SamplingTime, AccelerationX, AccelerationY, AccelerationZ, GyroX, GyroY, GyroZ, MagneticFieldX, MagneticFieldY, MagneticFieldZ
1733470025.456977, 1.889025, -9.352051, -2.212991, 0.064834, -0.260172, -0.113083, -12.017715, -74.127090, -643.182922
1733470025.466852, 1.827374, -9.560047, -2.594417, 0.182307, -0.350845, -0.104412, -11.839951, -74.383789, -642.386963
1733470025.476746, 1.701679, -10.082282, -3.330484, 0.304404, -0.254280, -0.111480, -11.946167, -74.267242, -643.061951
1733470025.487551, 1.793706, -10.209474, -3.678691, 0.435476, -0.083216, -0.082572, -12.203995, -74.393433, -642.433472
1733470025.497534, 1.179444, -10.748020, -3.362656, 0.603478, -0.037932, -0.088892, -12.185837, -74.542953, -642.819580
1733470025.507544, -0.266355, -12.617293, -2.903718, 0.866622, -0.228874, -0.302367, -12.144897, -74.943481, -642.487915
1733470025.517545, -0.436643, -12.401815, -2.214188, 1.246377, -0.663794, -0.484550, -12.145996, -75.123016, -641.456055
1733470025.527549, -0.441132, -12.808380, -1.373823, 1.597155, -1.177994, -0.682835, -12.200897, -75.438507, -642.068848
1733470025.537523, -0.670077, -13.558065, -0.297629, 1.795925, -1.771476, -0.940851, -12.261871, -75.486465, -641.494629
1733470025.547528, -1.094300, -13.891457, 0.385317, 1.840935, -2.341591, -1.248346, -12.224686, -75.589310, -642.125488
1733470025.557517, -1.466299, -13.967324, -0.137667, 1.784200, -2.678728, -1.554893, -12.275970, -75.430634, -641.900574
1733470025.567571, -1.397466, -13.593230, -1.691055, 1.751433, -2.656956, -1.799480, -11.983429, -75.677719, -641.459473
1733470025.577533, -0.915333, -13.239187, -3.052757, 1.802342, -2.386793, -1.958608, -11.835510, -75.406097, -641.970032
1733470025.586750, -0.359878, -12.895170, -3.803040, 1.913831, -2.022274, -2.065193, -11.622025, -75.474472, -641.229126
1733470025.597520, 0.343568, -12.520328, -4.022259, 2.053889, -1.663476, -2.126518, -11.455963, -75.333664, -640.912170
1733470025.607567, 0.896030, -12.471396, -3.773561, 2.213106, -1.402807, -2.160742, -10.956451, -75.424591, -640.798889
1733470025.617510, 1.197999, -12.588862, -3.030161, 2.342149, -1.285693, -2.225846, -10.339676, -75.557037, -639.958862
1733470025.626522, 1.470339, -12.559084, -2.232144, 2.437738, -1.319773, -2.310819, -9.794189, -75.423569, -640.122070
1733470025.637523, 1.502062, -12.461969, -1.612345, 2.526401, -1.466308, -2.408279, -9.315201, -75.403641, -639.155151
1733470025.647555, 1.421258, -12.266094, -1.256208, 2.586904, -1.639989, -2.543662, -8.718979, -75.119247, -638.870789
1733470025.657511, 1.567903, -11.672481, -1.165527, 2.619877, -1.810640, -2.676813, -8.139740, -74.962189, -638.801453
1733470025.667507, 1.950975, -10.998364, -1.192462, 2.652148, -1.945463, -2.776244, -7.736526, -74.605988, -638.491455
1733470025.677509, 2.493860, -10.302998, -1.253963, 2.690431, -2.045816, -2.852115, -7.073730, -74.416138, -638.388306
1733470025.687548, 3.014300, -9.623494, -1.038485, 2.734512, -2.154809, -2.914644, -6.580566, -73.990631, -637.943420
1733470025.697516, 3.493888, -9.030480, -0.850391, 2.754412, -2.236515, -2.973132, -6.026535, -73.624588, -637.048889
1733470025.707506, 3.750218, -8.367286, -0.529418, 2.736577, -2.330735, -3.038609, -5.352219, -73.260666, -637.639893
1733470025.717517, 3.700837, -7.702745, -0.372448, 2.707142, -2.418205, -3.115298, -4.674316, -72.887711, -637.147095
1733470025.727519, 3.929633, -6.985083, -0.616208, 2.667458, -2.402957, -3.188158, -4.198593, -72.306747, -638.150696
1733470025.737510, 4.404433, -6.038027, -0.621295, 2.643705, -2.386149, -3.243378, -3.517517, -72.003708, -637.279785
1733470025.747520, 4.992210, -5.148282, -0.514903, 2.659183, -2.419584, -3.276933, -3.158051, -71.087006, -636.668335
1733470025.757517, 5.575048, -4.342034, -0.246154, 2.709421, -2.546314, -3.260689, -2.879395, -70.400925, -637.518311
1733470025.767511, 5.928492, -3.986944, 0.363170, 2.760445, -2.847178, -3.278985, -2.113876, -69.890930, -637.471313
1733470025.776561, 6.534375, -3.450942, 0.380229, 2.731704, -3.102937, -3.268498, -1.784683, -69.084976, -638.500244
1733470025.787503, 6.918944, -2.763956, -0.078709, 2.627019, -3.168523, -3.210000, -1.327759, -68.596451, -637.979797
1733470025.797502, 6.823175, -2.433706, -0.879570, 2.460270, -2.925866, -3.160065, -1.257599, -67.866562, -637.921509
1733470025.807506, 6.544850, -2.258929, -1.593192, 2.278527, -2.397833, -3.181859, -1.081207, -67.088196, -639.113647
1733470025.817502, 6.457312, -1.907879, -1.321300, 2.110590, -1.858846, -3.267395, -0.591202, -66.256592, -638.383789
1733470025.826563, 7.047482, -1.201291, -0.250793, 1.944822, -1.527626, -3.314810, 0.200882, -65.338852, -639.372498
1733470025.837512, 8.060080, -0.269647, 0.804751, 1.748613, -1.416797, -3.268855, 0.746384, -64.435501, -638.828979
1733470025.847521, 9.107543, 0.444424, 1.516577, 1.528170, -1.476309, -3.145542, 0.970978, -63.390259, -638.951355
1733470025.857513, 9.863662, 0.747290, 1.734449, 1.325672, -1.666246, -2.956764, 1.140839, -62.572433, -640.279846
1733470025.867513, 9.911995, 0.634463, 1.411681, 1.173523, -1.866956, -2.771757, 1.261063, -61.813110, -640.259766
1733470025.876567, 9.685743, 0.619649, 0.840066, 1.034663, -1.950460, -2.618568, 1.628021, -60.912628, -641.438721
1733470025.887522, 9.583241, 0.967257, 0.136769, 0.867633, -1.812268, -2.458573, 1.509796, -60.231689, -641.572388
1733470025.897511, 9.661053, 1.469142, -0.234183, 0.687659, -1.513526, -2.299441, 1.582138, -59.350342, -641.587708
1733470025.907511, 10.059837, 1.979406, 0.021099, 0.493978, -1.298977, -2.149085, 1.465271, -58.572632, -642.797607
1733470025.917506, 10.575039, 2.345719, -0.041150, 0.336022, -1.202751, -1.973035, 1.633194, -58.107162, -643.044678
1733470025.926590, 10.958261, 2.655170, -0.357784, 0.288101, -1.171001, -1.770996, 1.613678, -57.416153, -643.636597
1733470025.937519, 10.929381, 2.824410, -0.378433, 0.315356, -1.231315, -1.569924, 1.626022, -57.042038, -644.133911
1733470025.947511, 10.572196, 2.857629, -0.178069, 0.338844, -1.352038, -1.386809, 1.479950, -56.623917, -644.216309
1733470025.957505, 10.087819, 2.898780, -0.124798, 0.346381, -1.446298, -1.220643, 1.249130, -56.038925, -645.550171
1733470025.967511, 9.690232, 2.969259, 0.056862, 0.325599, -1.529162, -1.048460, 0.887833, -55.869110, -645.726685
1733470025.976596, 9.302371, 3.030161, 0.336685, 0.252986, -1.626496, -0.864698, 0.755814, -55.562820, -646.434021
1733470025.987500, 8.663568, 2.752883, 0.158017, 0.139074, -1.649913, -0.717127, 0.643600, -55.251175, -647.311890
1733470025.997502, 7.995885, 2.647538, -0.124050, 0.009714, -1.630466, -0.575655, 0.185089, -55.038391, -647.476074
1733470026.007511, 7.327604, 2.775329, -0.250493, -0.119824, -1.627237, -0.440840, -0.192276, -54.648941, -648.679688
1733470026.017510, 6.542605, 2.494459, -0.765696, -0.225725, -1.612866, -0.366398, -0.906555, -54.639282, -648.843628
1733470026.027499, 5.975329, 2.082656, -1.696442, -0.275461, -1.508322, -0.337461, -1.346298, -54.240112, -650.050293
1733470026.037500, 5.698350, 1.856105, -2.317737, -0.248582, -1.362510, -0.319748, -1.699738, -54.004120, -650.371704
1733470026.047498, 5.470601, 1.636437, -2.687791, -0.181601, -1.214392, -0.305324, -2.027664, -53.990555, -650.069824
1733470026.057498, 5.300014, 1.543362, -2.982726, -0.097203, -1.060336, -0.300639, -2.226868, -53.710632, -651.141479
1733470026.067495, 5.285051, 1.719186, -3.164386, -0.007785, -0.912915, -0.285508, -2.542191, -53.582993, -651.434509
1733470026.077497, 5.379771, 2.132485, -3.294272, 0.092897, -0.776183, -0.234753, -2.905960, -53.721161, -651.027771
1733470026.087496, 5.479280, 2.266860, -3.571251, 0.175293, -0.554743, -0.234625, -3.163208, -53.752945, -651.306152
1733470026.097498, 6.114192, 2.306813, -3.631555, 0.222569, -0.299399, -0.251916, -3.422043, -53.569244, -651.805481
1733470026.107502, 7.164200, 2.373252, -3.341707, 0.242307, -0.173319, -0.212701, -4.173187, -53.713974, -651.134094
1733470026.117491, 7.677457, 2.678513, -3.240702, 0.268977, -0.118248, -0.232576, -4.295609, -53.852234, -651.602539
1733470026.127512, 8.549993, 3.088969, -2.974347, 0.285947, -0.095978, -0.399633, -4.295609, -53.852234, -651.602539
1733470026.137510, 10.712406, 3.262848, -2.205060, 0.273456, -0.383541, -0.476591, -4.624512, -53.812454, -651.992798
1733470026.147507, 12.874819, 3.353977, -2.152687, 0.345884, -0.857670, -0.525340, -5.859665, -53.825974, -652.466553
1733470026.157551, 15.416264, 3.390190, -2.184110, 0.460008, -1.376237, -0.733285, -7.030685, -53.840652, -651.979492
1733470026.167490, 20.448876, 5.320515, -2.325368, 0.407407, -1.901448, -0.903618, -7.994308, -53.584305, -653.033447
1733470026.177541, 28.105084, 9.117270, -4.665401, 0.231635, -2.119236, -0.656157, -8.942764, -53.313507, -653.716064
1733470026.187501, 37.296724, 10.794707, -9.591920, 0.393100, -1.801145, 0.188090, -10.425400, -53.635910, -654.054199
1733470026.197508, 45.489981, 12.579435, -13.121871, 0.929922, -1.312492, 1.609460, -10.930908, -54.745651, -653.925537
1733470026.207505, 50.596364, 14.125491, -13.079224, 1.499472, -1.187653, 3.490009, -12.040298, -56.650360, -655.187866
1733470026.217491, 50.267012, 14.010569, -12.475287, 1.957159, -1.076500, 5.445575, -12.336639, -58.789429, -654.885620
1733470026.227500, 44.761545, 13.157485, -11.622353, 2.225922, -0.405950, 7.296916, -13.250259, -61.776352, -654.443115
1733470026.237493, 35.320610, 11.074380, -8.292916, 2.077064, 0.684544, 8.756835, -14.207321, -64.982559, -654.036316
1733470026.247492, 23.401226, 7.286005, -3.067870, 1.497244, 1.714920, 9.582358, -15.724472, -68.455292, -652.936646
1733470026.257506, 11.262025, 1.020229, 2.811691, 0.493407, 2.161979, 9.463969, -17.665527, -70.882751, -652.940491
1733470026.267496, 2.156577, -5.083788, 6.557868, -0.636277, 1.851190, 8.540753, -19.347672, -72.787643, -653.011902
1733470026.277500, -2.636315, -8.472930, 5.611111, -1.402540, 1.130448, 7.293489, -20.434036, -73.612030, -652.949585
1733470026.287492, -3.452439, -9.051279, 1.208922, -1.502733, 0.370127, 6.315385, -21.331085, -74.351959, -653.022949
1733470026.297552, -3.946692, -8.432229, -3.437774, -0.996882, -0.063226, 5.835834, -22.246384, -75.086517, -653.251892
1733470026.307487, -7.498340, -8.713398, -5.147833, -0.382782, 0.001159, 5.464899, -23.877182, -75.854340, -652.954041
1733470026.317551, -12.307244, -10.096648, -3.721786, -0.072507, 0.221150, 4.956688, -24.648560, -76.330185, -653.399780
1733470026.327496, -16.522835, -10.791714, -1.714997, -0.062117, 0.406517, 4.368402, -25.530411, -76.811798, -653.083740
1733470026.337497, -21.111621, -11.086500, 0.133028, -0.258239, 0.482168, 3.619914, -26.357437, -77.358337, -653.331848
1733470026.347511, -25.382727, -11.881974, 1.662324, -0.593724, 0.225280, 2.565169, -26.961121, -77.395615, -653.568848
1733470026.357498, -27.769148, -11.684602, 1.736844, -0.890919, -0.328519, 1.339949, -27.509232, -77.176163, -653.770630
1733470026.367494, -28.110022, -10.654646, -0.019303, -1.040652, -0.764917, 0.154310, -27.358536, -76.856247, -653.851868
1733470026.377491, -26.673501, -9.139416, -2.536956, -1.076795, -0.767242, -0.883783, -27.197235, -76.392410, -654.834595
1733470026.387500, -23.892935, -7.269096, -4.796334, -1.060934, -0.319095, -1.655473, -26.877029, -75.865936, -655.373352
1733470026.397495, -20.877289, -5.552902, -6.535422, -1.018793, 0.546597, -2.250219, -25.843140, -75.526901, -655.456116
1733470026.407504, -17.840394, -3.866486, -7.155521, -0.907358, 1.554881, -2.760629, -24.261398, -74.729889, -655.630615
1733470026.417503, -15.013290, -1.656788, -6.331167, -0.664327, 2.232864, -3.129845, -22.366272, -74.150909, -655.597717
1733470026.427483, -12.731167, 0.330400, -5.274277, -0.269275, 2.508729, -3.394869, -20.240417, -73.717422, -655.432617
1733470026.437493, -10.786477, 2.035520, -4.157830, 0.222032, 2.472420, -3.574847, -18.401627, -73.314468, -654.346375
1733470026.447488, -9.117120, 3.299958, -3.349638, 0.723298, 2.294943, -3.699522, -16.505325, -73.000198, -653.093506
1733470026.457532, -7.563882, 4.063858, -2.798672, 1.186090, 2.096768, -3.790869, -14.879654, -72.566589, -653.034424
1733470026.467489, -6.110601, 4.688296, -2.211494, 1.593424, 1.884238, -3.847429, -12.889084, -72.071426, -651.997559
1733470026.477510, -4.614824, 5.310639, -1.531242, 1.957773, 1.636225, -3.833859, -11.598022, -71.851913, -650.706787
1733470026.487488, -2.823512, 5.691466, -0.924162, 2.293791, 1.353322, -3.780123, -10.249741, -71.597076, -649.858215
1733470026.497500, -0.690428, 5.691317, -0.183905, 2.581478, 0.982102, -3.658435, -9.016678, -71.494965, -649.120789
1733470026.507492, 1.424251, 5.178808, 0.607828, 2.718279, 0.224831, -3.251765, -8.465149, -71.182297, -648.021667
1733470026.517494, 4.981585, 4.238934, 1.824232, 2.577729, 0.024659, -3.060632, -7.571045, -71.065781, -647.197937
1733470026.527492, 6.667403, 3.397372, 2.637063, 2.354542, -0.074080, -2.954894, -7.276703, -70.821838, -645.363464
1733470026.537477, 9.102605, 2.451214, 3.564667, 2.035293, -0.136842, -2.888810, -7.124435, -70.577667, -645.629272
1733470026.547481, 12.308591, 1.912369, 4.514567, 1.583938, -0.152862, -2.823744, -7.281937, -70.113571, -645.419861
1733470026.557506, 16.017508, 1.423652, 5.385008, 0.979386, -0.255791, -2.681223, -6.971649, -69.521164, -645.269714
1733470026.567483, 19.708470, 0.975936, 5.598990, 0.361876, -0.437671, -2.418329, -6.652191, -68.978943, -645.000854
1733470026.577490, 23.060501, 1.349582, 4.520552, -0.112940, -0.447831, -2.139633, -6.932755, -68.231659, -645.167358
1733470026.587486, 28.039992, 2.443881, 3.177555, -0.509362, -0.112535, -1.816384, -7.513855, -67.413315, -645.625122
1733470026.597488, 35.143588, 2.759467, 2.506131, -0.838168, 0.029055, -1.309342, -8.287231, -66.732864, -645.945374
1733470026.607491, 42.496032, 2.013673, 0.570419, -0.752510, -0.073893, -0.665997, -9.151215, -66.259445, -646.119690
1733470026.617480, 49.841592, 2.964770, -0.893187, -0.175734, -0.580412, 0.514899, -9.256180, -66.262939, -646.298096
1733470026.627488, 53.625628, 3.743185, -1.277456, 0.509140, -1.206906, 1.972339, -10.151230, -66.848740, -645.721436
1733470026.637486, 52.999095, 3.125331, -1.326537, 1.008670, -1.458451, 3.293559, -10.997192, -67.772720, -647.093872
1733470026.647484, 50.246063, 4.492121, 0.154426, 1.130935, -1.350803, 4.765043, -11.434616, -69.180939, -646.895691
1733470026.657476, 44.701690, 4.730793, 2.658761, 0.693243, -0.957378, 6.262437, -12.158279, -71.253021, -646.872925
1733470026.667479, 35.179352, 3.580379, 5.187038, -0.328710, -0.315767, 7.532148, -13.707977, -72.915527, -646.940308
1733470026.677484, 21.993436, 1.632397, 7.073070, -1.874853, 0.518600, 8.121959, -15.273148, -74.847260, -646.940430
1733470026.687476, 9.928605, -2.790292, 6.042815, -3.575236, 1.568467, 7.719989, -17.851227, -75.957886, -648.379761
1733470026.697475, 3.327342, -9.840468, 2.792387, -4.848974, 2.195535, 6.518635, -20.109375, -76.453232, -649.720459
1733470026.707496, 0.613215, -12.841600, -1.706617, -4.986228, 1.733174, 5.136539, -20.878906, -76.092712, -651.356995
1733470026.717479, -0.028880, -13.256844, -7.460332, -3.867959, 0.698177, 3.958837, -21.651108, -75.708771, -652.532227
1733470026.727477, -1.074398, -13.164219, -12.243648, -2.073885, -0.091181, 3.095377, -21.749573, -75.238403, -652.635803
1733470026.737484, -2.822315, -12.197709, -13.451523, -0.265181, -0.367965, 2.616261, -21.647400, -75.358292, -653.641418
1733470026.747493, -6.426636, -11.263522, -10.288932, 0.985480, -0.375017, 2.291436, -21.733521, -75.895630, -653.083557
1733470026.757479, -11.270106, -10.469844, -5.062988, 1.518294, -0.413788, 1.861056, -22.050949, -76.915161, -652.506653
1733470026.767475, -15.580417, -9.837625, -0.188394, 1.425037, -0.620711, 1.207514, -22.472458, -77.609192, -651.486572
1733470026.777478, -18.543990, -9.129390, 2.804957, 0.938169, -1.056431, 0.383660, -22.441788, -78.196152, -651.103943
1733470026.787486, -19.857209, -8.191911, 2.506430, 0.441971, -1.333832, -0.430276, -22.455872, -78.386292, -650.779419
1733470026.797484, -19.919459, -6.539911, 1.133804, 0.001379, -1.330354, -1.120839, -22.014786, -78.259262, -651.049438
1733470026.807483, -18.670284, -5.032762, -0.480786, -0.390716, -1.003087, -1.602914, -22.042938, -78.218475, -651.390686
1733470026.817481, -16.751182, -4.199130, -2.105700, -0.699437, -0.400510, -1.956590, -21.518890, -77.789398, -651.821594
1733470026.827480, -14.608072, -3.504064, -3.065476, -0.894627, 0.301641, -2.252630, -20.953217, -77.171860, -651.477234
1733470026.837473, -12.349292, -2.372803, -3.305794, -0.970632, 0.920394, -2.488627, -19.989868, -76.473602, -652.291565
1733470026.847472, -10.306739, -1.039532, -3.068768, -0.931988, 1.341552, -2.656321, -18.911240, -75.885666, -652.331055
1733470026.857474, -8.784027, 0.085742, -2.784905, -0.776768, 1.570562, -2.816668, -17.285461, -74.964340, -652.684937
1733470026.867471, -7.574356, 1.036240, -2.642899, -0.501677, 1.616644, -2.970123, -15.952026, -74.279312, -652.169678
1733470026.877470, -6.305429, 1.892317, -2.612523, -0.126177, 1.596229, -3.091442, -14.611816, -73.514343, -652.207703
1733470026.887469, -5.035305, 2.559102, -2.416797, 0.284578, 1.498742, -3.167556, -13.042923, -72.775879, -651.571411
1733470026.897470, -3.761440, 3.172916, -1.972373, 0.689196, 1.319027, -3.188645, -11.575592, -72.158615, -651.210144
1733470026.907471, -2.538303, 3.717297, -1.471237, 1.058720, 1.088204, -3.145609, -10.787735, -71.529861, -650.534119
1733470026.917518, -1.370980, 4.066552, -0.994641, 1.347641, 0.855773, -3.047729, -9.307327, -71.099777, -649.902588
1733470026.927477, -0.239420, 4.168305, -0.568174, 1.516343, 0.673003, -2.911310, -8.518417, -70.773804, -648.487549
1733470026.936749, 1.059883, 4.237138, -0.093374, 1.575758, 0.527073, -2.762392, -7.812775, -70.151764, -648.610107
1733470026.947466, 2.571522, 4.299238, 0.501585, 1.551659, 0.352401, -2.567442, -6.925476, -69.772888, -648.160339
1733470026.957466, 4.099771, 4.074333, 0.822857, 1.427794, 0.227483, -2.295500, -6.487137, -69.427612, -647.757080
1733470026.967468, 5.362264, 3.779846, 1.021576, 1.208153, 0.176507, -1.977932, -6.241974, -69.244949, -647.224854
1733470026.977471, 6.238841, 3.326893, 1.093701, 0.967762, 0.120234, -1.679824, -6.413849, -68.869537, -646.824585
1733470026.987507, 7.111228, 2.360533, 0.833481, 0.781611, 0.181518, -1.540433, -6.679581, -68.525772, -646.979004
1733470026.997464, 8.455273, 1.056890, 0.883161, 0.606722, 0.270940, -1.540375, -6.611450, -68.234268, -646.697144
1733470027.007485, 10.416423, 0.276231, 1.406743, 0.424121, 0.163184, -1.544052, -6.614883, -67.914688, -646.639709
1733470027.017477, 13.069348, -0.270395, 1.837400, 0.274994, -0.150660, -1.542059, -7.119507, -67.383163, -646.562134
1733470027.027472, 16.251242, -1.397017, 1.581969, 0.229378, -0.632351, -1.604430, -7.870560, -67.020920, -646.191650
1733470027.037466, 19.968390, -2.766650, 0.196624, 0.353193, -1.015223, -1.728241, -9.015060, -66.688034, -647.521240
1733470027.047465, 24.841039, -3.043180, -0.931045, 0.582552, -1.141831, -1.947259, -10.215988, -66.326843, -648.061646
1733470027.057468, 31.846623, -3.222895, -1.012598, 0.779087, -1.328608, -2.124482, -10.533264, -65.800751, -648.178467
1733470027.067469, 39.733423, -3.395427, -1.538574, 1.131717, -1.743769, -1.794241, -10.885895, -65.497589, -649.137817
1733470027.077477, 45.822326, -2.567931, -2.463634, 1.593366, -2.109125, -1.043335, -11.510956, -65.590485, -648.909729
1733470027.087471, 50.420241, -2.656666, -2.748693, 1.979040, -2.270480, 0.057480, -12.307968, -66.229385, -649.195740
1733470027.097469, 51.561826, -1.393874, -1.146972, 1.936919, -2.181258, 1.274455, -12.851807, -67.136826, -649.145508
1733470027.107476, 50.566587, 0.160412, 0.610521, 1.320185, -1.736227, 2.491422, -13.628708, -68.183014, -649.210083
1733470027.117468, 48.122855, 0.779163, 1.552490, 0.306966, -1.124463, 3.660518, -14.508499, -69.184219, -649.342529
1733470027.127467, 42.277711, 2.864213, 1.342100, -0.815712, -0.345015, 4.761704, -15.275742, -70.416595, -649.087769
1733470027.137467, 34.144009, 2.492813, 0.727089, -1.861054, 0.598326, 5.391170, -17.126572, -71.241455, -650.425659
1733470027.147471, 28.383710, -3.118448, 0.811185, -2.872993, 0.974587, 5.345172, -18.230423, -71.838699, -651.069519
1733470027.157470, 24.108264, -6.240187, -1.319205, -3.380291, 0.761679, 4.957140, -18.862442, -72.107193, -652.280151
1733470027.167469, 19.687071, -6.790106, -5.162946, -3.059833, 0.334250, 4.513389, -18.839401, -72.133728, -653.564209
1733470027.177460, 15.057583, -6.661118, -7.182006, -2.239979, -0.215153, 4.188219, -18.986526, -72.196075, -653.738525
1733470027.187501, 9.953295, -5.669470, -8.165275, -1.305957, -0.589588, 4.067300, -18.877380, -72.555222, -653.580566
1733470027.197455, 4.010138, -4.512621, -8.764274, -0.440218, -0.448888, 4.138487, -18.968048, -73.132248, -653.540588
1733470027.207454, -2.926612, -3.576189, -7.531859, 0.185531, 0.130766, 4.274920, -19.110275, -74.077286, -653.316895
1733470027.217496, -9.846454, -3.376722, -3.828029, 0.342481, 0.667061, 4.217901, -19.573166, -75.074722, -652.840698
1733470027.227101, -16.269648, -3.203442, 0.684143, 0.044170, 0.803996, 3.871003, -20.646637, -75.908035, -652.474304
1733470027.237465, -22.001067, -3.211971, 4.463839, -0.564035, 0.277887, 3.082115, -21.688324, -76.002518, -653.115051
1733470027.247519, -25.999683, -3.574842, 5.113566, -1.061055, -0.838778, 1.916622, -22.333267, -75.989502, -653.957642
1733470027.257472, -26.752660, -3.954473, 1.169717, -1.130060, -1.662568, 0.781925, -22.772217, -75.589844, -654.416321
1733470027.267469, -25.345917, -4.526687, -3.705925, -0.884976, -1.775919, -0.076189, -23.163467, -75.226318, -654.529236
1733470027.277463, -23.555203, -5.287295, -7.246500, -0.511362, -1.211285, -0.752574, -23.601303, -74.897034, -655.446106
1733470027.287461, -21.726632, -5.308394, -8.795249, -0.146569, -0.158843, -1.421636, -23.256790, -74.987991, -655.178589
1733470027.297462, -19.491645, -3.885490, -8.312219, 0.170490, 0.997868, -2.098211, -22.264923, -74.867538, -655.217041
1733470027.307463, -16.607679, -1.666813, -6.530035, 0.475676, 1.890778, -2.681139, -20.959732, -74.613998, -654.490234
1733470027.317455, -13.331663, 0.375291, -4.191200, 0.804057, 2.294729, -3.073479, -18.939224, -74.476318, -653.827942
1733470027.327462, -10.068516, 1.879448, -2.300529, 1.119947, 2.273938, -3.221861, -16.979507, -74.393021, -652.617981
1733470027.337456, -7.358429, 2.968212, -1.159243, 1.397138, 2.024840, -3.138219, -15.127213, -74.204605, -652.184692
1733470027.347455, -5.598541, 3.583521, -0.486921, 1.633218, 1.699522, -2.950433, -13.861588, -74.267548, -651.315857
1733470027.357450, -4.322282, 3.539528, -0.221913, 1.841966, 1.406345, -2.778113, -12.785507, -74.103836, -650.496399
1733470027.367455, -2.801814, 3.369240, 0.099509, 1.996525, 1.155080, -2.596401, -11.969879, -74.205109, -649.395996
1733470027.377452, -1.144129, 3.241150, 0.560094, 2.062455, 0.880420, -2.359423, -11.374451, -74.252045, -648.801758
1733470027.387452, 0.584784, 2.926912, 0.720954, 2.070445, 0.622221, -2.094442, -10.679581, -74.261261, -647.819153
1733470027.397450, 2.074276, 2.247108, 0.657508, 2.037657, 0.410146, -1.839189, -10.514999, -74.315643, -646.871460
1733470027.407471, 3.240402, 1.347038, 0.302567, 1.957623, 0.348841, -1.618549, -10.157166, -74.381927, -646.319397
1733470027.417448, 4.364480, 0.508020, 0.277877, 1.856488, 0.338856, -1.461080, -10.016983, -74.362762, -645.427246
1733470027.427467, 5.524620, -0.245705, 0.298677, 1.781080, 0.329616, -1.348883, -9.803772, -74.534286, -644.386963
1733470027.437450, 6.766612, -1.055244, 0.051475, 1.739544, 0.397835, -1.258943, -9.691925, -74.738586, -644.163696
1733470027.447453, 8.604761, -1.808221, 0.168492, 1.696618, 0.452705, -1.151253, -9.562729, -74.737106, -643.248718
1733470027.457447, 11.010784, -1.885733, 0.384120, 1.593326, 0.552470, -0.933902, -9.328415, -74.730743, -642.970520
1733470027.467455, 13.145215, -1.916409, 0.763451, 1.406183, 0.619785, -0.638280, -10.002975, -75.036224, -642.605713
1733470027.477453, 14.918719, -2.769642, 1.567903, 1.220687, 0.474103, -0.432648, -10.680588, -75.276199, -642.623291
1733470027.487450, 16.577303, -3.934422, 2.021005, 1.153242, 0.236419, -0.480447, -11.485352, -75.285950, -642.170410
1733470027.497464, 19.942652, -4.830601, 2.260875, 1.089447, 0.018354, -0.692611, -12.154602, -75.536469, -641.927856
1733470027.507474, 25.143906, -5.513398, 2.441936, 0.993478, -0.260537, -0.805264, -12.772812, -75.263611, -641.699524
1733470027.517459, 31.627105, -6.411971, 1.630152, 0.911320, -0.358382, -0.734971, -12.966965, -75.524887, -641.239258
1733470027.527460, 39.043294, -6.305729, 0.542736, 1.011129, -0.419479, -0.103277, -13.661026, -75.991898, -640.735229
1733470027.537457, 44.377575, -5.613804, 0.322918, 1.331458, -0.499253, 0.863117, -14.951782, -76.918335, -640.893127
1733470027.547450, 46.554802, -5.050419, 1.455525, 1.563898, -0.432752, 1.693800, -15.966827, -77.756989, -640.160156
1733470027.557450, 47.351323, -3.509301, 3.556287, 1.526921, -0.113329, 2.373027, -16.699310, -78.876297, -639.385803
1733470027.567457, 47.675139, -1.187674, 6.880187, 1.120823, 0.144600, 3.216099, -17.324539, -79.972031, -638.892944
1733470027.577455, 45.906123, 0.502633, 10.076147, 0.231317, 0.161618, 4.165870, -18.851212, -81.260483, -639.064209
1733470027.587459, 40.499567, 3.054702, 9.709984, -0.632713, 0.216703, 4.929893, -20.763824, -82.172195, -639.656677
1733470027.597455, 35.788826, 1.627309, 5.758205, -1.035108, 0.444332, 5.353417, -22.339584, -83.509537, -640.228760
1733470027.607456, 32.818070, -1.107169, 2.180669, -0.907845, 0.519797, 5.622827, -23.429733, -84.437485, -639.952148
1733470027.617442, 29.442994, -1.819893, -0.466869, -0.175976, 0.650520, 6.123543, -24.360367, -85.547775, -639.765503
1733470027.627442, 23.530064, -1.159243, 1.048810, 0.485929, 0.809857, 6.795342, -24.360367, -85.547775, -639.765503
1733470027.637449, 12.952481, -0.309301, 6.030246, 0.422004, 0.800216, 7.358036, -25.576126, -86.807999, -638.171753
1733470027.647440, -1.487099, -2.315941, 9.638457, -0.320271, 0.610940, 7.281164, -27.725067, -87.549744, -638.546753
1733470027.657442, -15.049952, -4.785859, 10.404752, -1.411470, 0.277338, 6.435302, -30.393967, -87.865540, -639.238586
1733470027.667514, -24.703971, -5.996577, 8.207024, -2.316093, -0.097878, 5.120315, -31.747162, -87.734161, -640.194092
1733470027.677446, -30.340072, -5.182848, 4.582951, -2.839654, -0.481541, 3.829308, -32.612900, -87.147888, -640.993225
1733470027.687496, -32.881517, -3.856311, 0.554707, -3.133668, -0.571452, 2.825886, -33.371384, -86.387604, -641.805969
1733470027.697550, -34.121264, -4.269011, -3.050811, -3.294816, -0.304959, 1.952545, -34.614700, -85.521255, -643.424194
1733470027.707661, -35.053656, -5.424064, -5.623830, -3.406549, 0.124561, 0.942674, -35.414200, -84.526001, -644.827637
1733470027.717509, -34.429817, -5.939116, -8.447342, -3.359161, 0.842683, -0.212541, -35.440475, -83.673309, -646.833313
1733470027.727527, -31.262139, -6.334160, -10.298359, -3.090297, 1.703459, -1.380248, -35.122162, -82.653946, -648.437683
1733470027.737498, -26.014647, -5.829731, -10.213664, -2.621228, 2.317369, -2.368843, -34.152679, -82.223785, -649.019836
1733470027.747447, -20.358495, -4.964377, -9.189245, -1.990985, 2.532333, -3.151902, -32.807205, -81.476303, -650.921631
1733470027.757452, -15.632790, -3.708768, -7.566725, -1.276832, 2.269928, -3.704741, -30.984344, -80.857452, -651.404358
1733470027.767445, -11.883620, -2.313846, -6.149657, -0.556892, 1.690392, -4.040664, -28.694916, -80.310822, -651.129517
1733470027.777440, -8.782081, -1.066617, -5.353136, 0.147029, 1.044450, -4.173294, -26.859848, -79.807495, -651.395020
1733470027.787443, -6.350171, -0.259921, -4.883722, 0.786607, 0.486532, -4.148259, -25.069214, -79.474503, -651.137756
1733470027.797447, -4.440197, 0.244657, -4.548534, 1.330595, 0.083461, -4.008175, -23.566788, -79.517365, -650.481079
1733470027.807447, -2.910302, 0.477643, -4.164265, 1.777098, -0.123995, -3.844783, -22.215073, -79.515900, -650.000305
1733470027.817447, -1.497872, 0.592565, -3.145083, 2.106397, -0.298305, -3.645862, -21.315903, -79.785278, -649.421265
1733470027.826991, -0.448913, 0.515950, -2.062754, 2.308321, -0.506614, -3.461884, -20.209167, -79.800522, -648.541260
1733470027.837439, 0.231190, 0.201263, -1.360954, 2.394221, -0.657831, -3.340356, -18.999603, -79.904205, -647.944336
1733470027.847438, 0.814627, -0.070928, -0.805050, 2.383870, -0.726302, -3.269059, -18.235611, -79.647675, -646.916992
1733470027.857437, 1.369184, -0.281917, -0.241365, 2.285570, -0.753773, -3.234309, -17.247787, -79.738007, -645.760132
1733470027.867444, 1.985092, -0.556502, 0.204255, 2.093253, -0.738833, -3.234913, -16.627029, -79.612473, -644.855042
1733470027.877487, 2.750489, -0.786645, 0.439186, 1.810938, -0.705468, -3.228306, -15.492615, -79.327484, -644.693237
1733470027.887434, 3.786580, -0.731578, 0.767791, 1.523498, -0.770565, -3.151049, -15.026169, -78.771011, -643.845947
1733470027.897434, 5.157859, -0.657358, 0.708235, 1.257078, -0.802915, -3.029478, -14.172272, -78.527847, -644.038574
1733470027.907488, 6.779182, -1.022324, 0.354940, 0.972814, -0.744658, -2.915719, -14.141922, -77.831345, -643.850586
1733470027.917445, 9.385719, -1.339107, 0.013318, 0.632114, -0.525525, -2.797500, -13.641556, -77.508026, -644.047363
1733470027.927449, 12.176910, -1.166126, -0.414795, 0.216881, -0.094766, -2.755012, -13.537628, -76.665558, -644.037842
1733470027.937430, 16.162058, -0.708833, -1.273715, -0.200626, 0.710419, -2.823731, -13.389587, -75.771683, -644.028381
1733470027.947489, 22.322938, -0.395941, -0.858471, -0.513722, 1.252270, -2.789026, -13.319550, -74.995544, -643.860352
1733470027.957433, 29.405884, -0.966060, -0.280421, -0.551183, 1.223541, -2.629514, -13.520844, -74.105927, -644.178894
1733470027.967443, 36.759674, -0.677409, 0.014216, -0.201951, 0.819098, -2.356076, -13.762650, -73.666656, -644.215393
1733470027.977440, 45.676579, 0.345962, 0.595258, 0.548301, -0.073676, -1.794471, -13.855057, -73.290802, -644.056274
1733470027.987437, 54.588546, 2.302324, 1.741931, 1.516740, -1.082428, -0.689212, -13.696808, -73.513031, -643.570129
1733470027.997445, 60.864796, 5.763292, 5.876269, 1.960851, -2.054844, 0.961600, -14.043304, -73.983002, -643.453613
1733470028.007443, 62.445119, 8.050653, 10.313473, 1.405895, -2.776861, 3.012074, -15.005219, -75.008362, -643.754700
1733470028.017445, 57.069388, 8.523508, 10.178799, 0.354857, -2.879127, 5.143952, -15.981445, -76.290344, -643.967041
1733470028.027434, 45.346928, 8.065916, 7.470957, -0.890304, -2.406488, 6.884121, -18.088211, -77.450180, -644.643677
1733470028.037435, 30.601189, 6.817938, 3.294122, -2.129627, -1.663964, 7.943360, -19.854446, -78.685715, -646.195862
1733470028.047437, 14.668825, 3.970035, -4.033482, -2.789148, -0.647874, 8.132582, -23.386719, -79.595078, -647.768982
1733470028.057434, 3.143886, -3.410091, -11.806407, -2.597238, 0.385404, 7.300642, -25.781219, -80.165848, -648.534363
1733470028.067429, -2.627636, -8.980501, -15.152304, -1.464804, 0.446835, 6.118197, -27.433624, -80.792542, -649.546387
1733470028.077494, -8.006210, -11.555914, -15.033791, 0.220023, -0.015499, 4.723391, -28.529327, -81.358948, -649.109131
1733470028.087426, -10.763134, -12.710517, -12.522722, 1.686127, -0.453011, 3.457767, -28.821915, -82.114471, -648.223328
1733470028.097430, -10.952425, -12.206688, -9.059061, 2.531248, -0.473270, 2.608669, -29.167984, -82.888794, -646.531982
1733470028.107482, -10.931326, -11.320234, -6.529736, 2.690346, 0.220111, 2.226080, -29.651047, -84.039566, -645.271851
1733470028.117430, -11.574169, -10.727221, -2.289904, 2.370299, 0.901707, 2.137727, -29.843643, -84.820358, -644.276001
1733470028.127437, -13.645154, -10.939856, 2.875287, 1.804592, 0.845554, 2.062676, -30.809830, -85.728485, -642.606689
1733470028.137427, -17.445500, -11.976545, 5.024831, 1.126748, 0.466141, 1.614281, -31.268845, -86.269028, -643.078003
1733470028.147491, -19.953127, -11.940033, 4.116979, 0.498117, 0.357280, 0.879436, -31.574493, -86.542526, -642.838196
1733470028.157438, -20.040066, -10.743531, 3.147028, -0.061936, 0.479996, 0.116259, -31.328049, -86.552399, -642.488647
1733470028.167428, -18.260127, -9.081357, 2.857330, -0.522056, 0.648903, -0.526913, -30.817307, -86.547104, -642.614807
1733470028.177481, -16.029928, -6.826916, 2.907159, -0.950345, 0.773821, -0.956593, -30.401642, -86.067368, -642.724426
1733470028.187441, -14.622437, -4.986374, 1.848623, -1.398426, 0.971214, -1.333945, -29.388565, -85.716263, -643.838745
1733470028.197422, -13.472622, -3.560328, -0.206350, -1.709666, 1.367934, -1.709583, -28.378052, -85.206192, -644.235779
1733470028.207492, -12.265196, -1.912069, -1.555184, -1.804558, 1.790105, -2.069178, -26.845871, -84.368073, -645.149170
1733470028.217424, -10.909479, -0.275483, -1.890821, -1.712101, 1.953117, -2.390137, -25.303192, -83.755920, -645.436340
1733470028.227432, -9.486426, 1.079785, -2.178125, -1.405926, 1.828880, -2.630914, -23.720688, -83.209198, -645.366333
1733470028.237434, -8.142829, 2.022801, -2.638111, -0.896222, 1.619845, -2.792056, -22.253464, -82.516190, -645.331299
1733470028.247471, -6.789058, 2.482039, -2.641253, -0.322511, 1.472727, -2.875719, -20.716095, -81.857254, -645.346069
1733470028.257430, -5.357325, 2.819172, -1.768268, 0.146543, 1.317925, -2.876668, -19.475571, -81.387131, -645.143860
1733470028.267426, -4.019715, 2.980631, -0.739210, 0.481940, 1.140641, -2.839261, -17.786652, -81.052902, -644.857849
1733470028.277425, -2.560150, 3.103634, 0.294487, 0.765118, 0.875403, -2.762291, -16.685181, -80.753601, -644.533020
1733470028.287430, -1.393425, 3.069367, 0.981772, 1.020792, 0.594587, -2.636931, -15.815521, -80.441177, -644.235962
1733470028.297422, -0.504578, 2.690035, 1.316961, 1.196454, 0.460394, -2.517258, -14.899872, -80.147797, -643.529907
1733470028.307423, 0.276830, 2.081010, 1.789965, 1.193719, 0.471113, -2.470152, -13.868149, -79.645538, -642.971558
1733470028.317429, 1.138892, 1.586009, 2.192341, 1.014023, 0.545921, -2.454949, -13.335617, -79.336472, -642.011841
1733470028.327424, 2.199673, 1.183783, 2.093729, 0.739173, 0.746189, -2.469067, -12.449158, -78.897156, -641.454102
1733470028.337485, 4.004302, 0.630124, 1.918653, 0.498392, 1.036284, -2.481329, -11.933517, -78.055817, -642.083130
1733470028.347415, 6.361543, -0.072125, 1.895908, 0.360886, 1.423640, -2.507728, -11.514572, -77.515961, -641.624390
1733470028.357422, 8.935759, -0.278924, 2.452560, 0.351667, 1.805228, -2.615773, -10.912064, -76.851776, -641.004395
1733470028.367414, 12.754361, -0.232836, 3.878607, 0.476215, 1.850148, -2.718245, -10.252167, -76.228912, -640.039551
1733470028.377422, 18.069190, -0.417190, 5.133917, 0.730962, 1.302858, -2.625107, -9.674881, -75.625519, -639.629822
1733470028.387484, 22.895900, -1.023222, 5.816264, 1.139783, 0.294015, -2.349813, -9.811996, -75.242386, -639.154968
1733470028.397421, 26.798748, -1.595137, 6.688352, 1.619197, -0.849532, -1.981611, -9.654770, -75.077606, -639.261841
1733470028.407418, 30.151528, -1.738939, 7.749133, 1.809671, -1.829599, -1.507937, -9.887192, -74.871536, -639.418579
1733470028.417421, 33.157149, -2.199224, 8.072201, 1.651121, -2.518968, -0.870132, -10.634583, -74.801270, -639.766907
1733470028.427422, 35.269434, -3.833416, 7.110779, 1.292365, -2.756163, -0.149922, -11.499969, -74.993622, -639.771362
1733470028.437473, 36.788255, -5.684134, 5.494992, 0.739145, -2.562617, 0.663381, -12.432999, -75.440765, -640.940857
1733470028.447421, 36.968269, -6.928520, 3.790620, 0.098323, -1.970733, 1.485847, -13.647720, -75.856827, -641.886047
1733470028.457416, 35.798702, -7.483077, 2.170344, -0.516469, -1.050178, 2.139133, -14.535461, -76.608749, -642.288940
1733470028.467284, 35.184739, -8.039729, 1.190068, -1.046344, -0.201265, 2.685975, -15.396133, -77.077850, -642.358032
1733470028.477429, 33.955915, -7.761852, 0.272490, -1.342808, 0.466026, 3.178695, -16.090164, -77.817444, -642.828247
1733470028.487423, 30.981119, -7.136816, 0.558448, -1.519645, 0.961330, 3.542287, -16.878754, -78.213745, -642.748108
1733470028.497426, 26.930728, -6.637924, 2.269853, -1.729701, 1.080537, 3.711390, -17.930817, -78.734375, -643.711548
1733470028.507432, 23.390003, -7.356634, 2.804957, -1.953192, 1.048991, 3.634704, -19.169495, -79.009445, -644.541565
1733470028.517427, 21.147983, -10.453683, 1.991677, -2.172761, 0.985469, 3.300429, -19.148453, -79.354980, -645.125671
1733470028.527339, 18.842217, -11.359739, 0.683395, -2.167002, 0.887691, 2.927240, -19.257446, -79.647476, -644.982483
1733470028.537424, 16.878822, -10.792911, -0.857723, -1.835854, 0.854294, 2.766143, -19.053467, -79.577011, -646.092407
1733470028.547410, 14.705336, -10.340856, -1.491139, -1.379164, 0.833437, 2.831045, -19.123932, -79.793961, -645.692383
1733470028.557418, 11.282675, -9.033024, -0.766444, -0.993831, 0.779594, 3.072889, -19.169937, -80.196335, -645.520386
1733470028.567417, 7.009474, -7.515249, 0.779313, -0.772017, 0.599630, 3.417351, -19.488602, -80.714661, -645.693848
1733470028.577467, 1.554435, -6.563405, 2.381034, -0.733923, 0.268099, 3.746148, -20.594238, -81.390610, -646.385254
1733470028.587410, -5.323657, -7.032818, 4.118176, -0.916047, -0.279082, 3.748857, -21.969574, -81.605072, -646.652954
1733470028.597409, -12.507609, -7.848941, 5.600786, -1.284346, -1.247554, 3.294627, -23.249405, -81.602798, -647.306335
1733470028.607465, -18.558654, -7.723096, 5.406556, -1.663040, -2.396709, 2.468045, -24.476288, -81.146561, -648.093933
1733470028.617412, -22.411374, -6.474221, 2.997540, -1.966499, -3.232988, 1.524634, -25.265396, -80.524918, -649.346191
1733470028.627424, -24.021474, -4.882376, -0.999280, -2.151953, -3.339749, 0.671285, -26.206985, -79.888428, -649.888550
1733470028.637416, -23.602489, -4.390068, -5.417181, -2.199066, -2.556388, -0.050294, -26.715988, -78.990326, -652.022583
1733470028.647473, -21.416882, -4.618265, -8.560767, -2.176360, -1.175787, -0.653072, -26.625214, -78.108139, -652.334106
1733470028.657411, -18.408568, -4.446481, -9.803657, -2.140619, 0.341740, -1.098145, -26.044113, -77.302216, -653.174805
1733470028.667405, -15.385140, -3.510797, -9.687838, -2.044857, 1.661346, -1.458998, -24.695663, -76.674088, -653.688843
1733470028.677407, -12.678495, -2.016666, -8.680178, -1.779795, 2.557421, -1.744058, -23.203079, -75.884460, -654.005127
1733470028.687464, -10.476278, -0.414496, -7.278822, -1.339837, 2.918450, -1.961076, -21.554214, -75.378220, -653.643311
1733470028.697410, -8.632593, 0.826748, -5.922656, -0.761353, 2.790623, -2.098306, -20.177200, -75.057953, -653.141296
1733470028.707408, -6.906524, 1.565359, -5.081843, -0.110289, 2.416129, -2.157389, -18.573334, -74.786911, -653.010864
1733470028.717424, -5.394885, 1.945438, -4.343830, 0.538045, 1.960692, -2.158085, -17.449448, -74.709793, -652.036926
1733470028.727412, -4.091541, 2.085649, -3.465607, 1.089976, 1.518112, -2.122079, -16.430023, -74.857559, -650.735718
1733470028.737406, -2.936339, 2.202516, -2.473360, 1.494452, 1.117688, -2.059091, -15.663223, -74.830582, -650.892090
1733470028.747408, -1.839645, 2.318934, -1.383849, 1.742348, 0.750565, -1.972214, -15.148941, -74.846924, -650.067139
1733470028.757419, -0.903661, 2.304718, -0.512509, 1.857291, 0.403381, -1.877445, -14.561096, -75.024811, -649.371826
1733470028.767416, -0.150386, 2.078167, -0.127342, 1.869312, 0.120705, -1.796703, -14.339233, -75.150726, -648.801636
1733470028.777417, 0.549320, 1.651550, -0.079308, 1.804487, -0.041766, -1.748946, -14.485565, -75.214142, -648.071655
1733470028.787409, 1.439963, 0.885555, -0.005387, 1.701830, -0.115719, -1.760042, -13.870026, -75.225113, -647.766724
1733470028.797412, 2.755277, -0.315885, -0.000299, 1.554974, -0.113590, -1.822883, -13.761459, -75.048065, -647.227844
1733470028.807413, 4.482843, -1.213711, 0.172831, 1.401813, -0.144296, -1.823096, -13.506851, -74.984085, -646.763367
1733470028.817467, 6.442797, -1.746271, 0.338630, 1.274461, -0.248283, -1.761104, -13.395447, -74.911713, -646.698792
1733470028.827415, 8.290372, -2.371906, 0.215029, 1.165119, -0.332880, -1.696342, -13.529175, -74.809555, -646.066650
1733470028.836752, 9.909750, -3.222595, 0.279224, 1.049029, -0.401307, -1.669924, -13.995895, -74.526382, -646.367859
1733470028.846639, 11.702110, -4.331260, 0.265008, 0.889734, -0.362165, -1.732309, -14.542740, -74.290558, -646.351929
1733470028.857438, 14.234277, -4.889109, -0.052672, 0.718524, -0.080322, -1.985387, -14.423721, -74.009567, -646.233765
1733470028.867421, 19.420417, -4.703708, 0.502333, 0.612405, 0.248377, -2.227170, -14.418839, -73.446243, -645.912415
1733470028.876614, 26.806080, -4.085107, 1.864485, 0.557718, 0.303143, -2.146005, -14.285248, -73.221664, -646.059692
1733470028.887410, 34.797028, -3.000982, 3.089119, 0.538852, -0.009915, -1.561694, -14.911926, -73.253265, -645.879883
1733470028.897401, 41.658959, -3.178752, 3.764882, 0.579757, -0.618556, -0.616317, -15.084091, -73.295685, -645.940430
1733470028.907554, 45.639619, -4.483741, 3.774160, 0.652164, -1.306336, 0.523436, -16.346176, -74.118652, -646.866516
1733470028.917537, 45.672838, -4.689493, 3.293524, 0.630809, -1.753646, 1.726326, -17.422470, -74.920334, -647.398926
1733470028.927534, 43.407924, -4.993706, 2.090587, 0.422753, -1.547489, 2.673764, -18.172958, -75.716721, -646.573975
1733470028.937520, 41.107694, -5.298518, 1.557877, 0.016800, -0.942263, 3.534359, -19.111877, -76.615463, -647.085144
1733470028.947432, 37.676803, -4.332757, 1.885284, -0.537404, -0.248869, 4.436992, -20.558792, -77.310181, -647.714600
1733470028.957425, 31.910518, -3.244143, 2.446575, -1.213722, 0.391833, 5.193483, -22.525650, -77.927734, -648.488525
1733470028.967477, 25.437196, -3.999215, 2.486827, -1.850833, 0.958772, 5.484089, -23.759857, -78.250854, -649.028015
1733470028.977400, 17.178547, -9.953893, 1.421557, -2.656036, 1.153501, 5.165039, -24.886566, -78.574356, -650.113037
1733470028.987406, 17.178547, -9.953893, 1.421557, -2.656036, 1.153501, 5.165039, -24.886566, -78.574356, -650.113037
1733470028.997407, 7.228693, -11.320983, -0.137667, -2.339168, 0.270323, 4.317097, -25.630966, -78.390198, -651.233521
1733470029.007428, 2.051232, -10.019884, -0.746542, -1.915569, -0.372821, 3.957076, -26.173492, -78.062805, -651.757202
1733470029.017407, -3.208230, -8.593089, -1.993173, -1.464754, -0.826480, 3.686163, -26.650864, -77.954391, -651.855652
1733470029.027396, -8.544457, -8.031200, -2.953547, -1.047853, -1.057407, 3.427107, -27.607559, -77.872925, -651.614746
1733470029.036794, -8.544457, -8.031200, -2.953547, -1.047853, -1.057407, 3.427107, -27.607559, -77.872925, -651.614746
1733470029.047391, -19.113510, -8.410531, -2.586037, -0.613342, -0.932827, 2.326485, -29.489609, -77.931473, -652.879395
1733470029.057382, -21.921460, -7.895628, -1.705869, -0.737522, -0.777463, 1.459668, -30.449280, -77.747360, -652.825439
1733470029.067396, -22.941540, -6.697929, -1.022773, -1.015308, -0.766806, 0.561672, -30.373001, -77.415207, -653.380798
1733470029.077396, -22.370822, -5.655703, -1.725022, -1.268923, -0.765687, -0.241581, -30.662186, -76.968155, -653.952881
1733470029.087177, -20.573525, -4.924274, -3.676596, -1.406829, -0.546252, -0.884176, -30.662186, -76.968155, -653.952881
1733470029.097393, -18.140118, -4.248511, -5.632359, -1.403934, -0.040007, -1.399155, -30.527802, -75.921127, -655.310791
1733470029.107409, -15.470134, -3.214665, -6.985233, -1.269034, 0.683852, -1.807955, -29.473419, -75.393066, -655.726562
1733470029.117403, -12.804789, -1.969231, -7.342867, -1.003283, 1.428051, -2.103124, -28.270584, -74.931824, -655.787903
1733470029.127406, -10.341455, -0.673070, -6.742072, -0.660132, 1.973123, -2.267394, -28.270584, -74.931824, -655.787903
1733470029.137393, -8.188020, 0.530166, -5.568614, -0.286451, 2.199414, -2.290475, -26.858826, -74.554611, -655.441406
1733470029.147402, -6.461052, 1.424101, -4.435259, 0.072950, 2.143703, -2.216977, -25.099548, -74.286926, -655.476624
1733470029.157390, -5.225046, 1.774253, -3.752163, 0.423385, 1.905032, -2.127444, -24.000427, -74.233276, -655.289551
1733470029.167418, -4.264372, 1.712153, -3.595642, 0.792618, 1.644231, -2.082127, -22.735092, -74.134689, -654.886780
1733470029.177405, -3.253421, 1.651999, -3.338864, 1.170479, 1.393782, -2.057676, -21.519775, -74.104401, -654.619690
1733470029.187395, -2.206706, 1.613842, -2.826056, 1.512725, 1.104419, -2.008936, -20.672424, -74.170303, -653.856567
1733470029.197400, -1.200243, 1.405097, -2.398990, 1.781787, 0.796155, -1.941541, -19.876175, -74.316193, -653.579895
1733470029.207392, -0.386215, 0.946907, -2.295291, 1.984269, 0.587766, -1.902853, -18.878815, -74.535461, -652.359009
1733470029.217413, 0.186897, 0.355838, -2.288258, 2.135358, 0.495834, -1.920483, -18.434204, -74.888672, -651.793762
1733470029.227399, 0.861015, -0.320823, -2.318485, 2.247267, 0.519341, -2.011008, -17.932434, -75.135162, -650.899780
1733470029.237393, 1.758391, -1.231667, -2.337639, 2.330209, 0.656773, -2.181274, -17.438690, -75.524353, -649.102844
1733470029.247396, 3.017293, -2.072182, -2.053178, 2.407956, 0.815220, -2.402748, -16.727081, -75.624313, -649.169128
1733470029.257398, 4.770447, -2.838326, -1.426495, 2.488709, 0.871136, -2.608899, -16.018677, -75.959381, -648.133728
1733470029.267399, 7.369053, -3.565714, -0.745495, 2.600128, 0.804205, -2.736937, -15.100220, -76.011124, -647.172852
1733470029.277406, 10.512191, -4.248960, 0.296133, 2.747047, 0.601382, -2.819299, -14.688889, -76.047775, -646.180664
1733470029.287398, 13.847464, -4.681712, 1.783381, 2.927558, 0.252659, -2.878538, -13.996689, -76.272232, -644.886963
1733470029.297383, 16.959178, -4.318691, 3.214814, 3.077042, -0.031757, -2.853462, -13.188629, -76.254669, -644.287048
1733470029.307404, 20.711191, -3.048866, 4.982483, 3.014671, -0.168945, -2.630036, -12.643448, -76.126907, -643.023682
1733470029.317389, 25.202265, -2.125901, 7.656956, 2.611766, -0.559019, -2.165122, -12.248001, -76.232300, -641.810974
1733470029.327396, 30.402770, -1.978508, 9.196428, 2.010619, -1.233672, -1.413918, -12.469803, -76.142349, -641.602905
1733470029.337416, 35.084481, -2.586336, 7.671471, 1.577698, -1.828548, -0.405617, -12.892349, -76.239227, -641.279541
1733470029.347237, 37.337575, -3.499724, 4.748899, 1.511506, -2.126651, 0.718881, -13.294983, -76.713043, -641.449585
1733470029.357404, 37.184496, -3.637840, 2.557606, 1.613135, -1.989472, 1.856815, -14.309891, -77.444336, -641.327820
1733470029.367395, 35.661484, -3.787477, 1.887678, 1.537603, -1.582298, 2.971875, -15.229218, -78.238327, -641.312927
1733470029.377401, 32.381877, -3.866935, 1.172710, 1.231856, -0.763954, 3.901064, -16.911331, -79.254257, -641.147888
1733470029.387390, 28.552052, -4.566491, 0.711527, 0.751342, 0.403788, 4.536825, -18.092224, -80.690521, -640.748901
1733470029.397387, 24.199094, -5.569362, 2.027889, 0.047707, 1.415161, 4.990656, -19.193176, -81.929245, -640.356750
1733470029.407389, 18.510920, -6.020968, 4.398897, -0.852133, 1.976399, 5.132213, -20.805618, -82.909912, -640.331665
1733470029.417383, 13.165266, -7.355885, 5.424662, -1.778273, 2.278345, 4.730295, -23.301987, -83.726547, -640.568359
1733470029.427385, 11.260828, -11.006295, 4.687847, -2.493667, 2.302567, 3.964150, -24.353912, -84.001740, -641.418213
1733470029.436752, 11.420641, -12.434436, 2.654421, -2.663903, 1.880418, 3.380413, -24.946945, -84.030350, -642.254395
1733470029.447391, 11.897686, -12.720693, -0.475548, -2.115597, 1.268734, 3.127331, -25.588013, -84.055557, -643.027710
1733470029.457441, 11.202021, -12.918663, -2.751686, -0.956299, 0.620967, 3.152493, -26.025192, -84.147980, -643.123657
1733470029.466417, 8.158841, -12.039393, -3.056348, 0.387851, 0.023240, 3.353699, -26.653870, -84.428940, -642.847778
1733470029.477396, 3.080739, -11.733384, -1.911471, 1.465935, -0.364977, 3.510232, -27.127945, -85.246643, -642.348206
1733470029.487398, -3.567959, -12.485013, 0.639551, 2.086309, -0.563158, 3.445762, -28.173965, -85.976715, -641.531006
1733470029.497409, -11.308862, -13.952061, 5.100098, 2.069170, -0.945655, 2.897453, -29.370056, -86.990784, -640.357422
1733470029.507384, -17.813459, -15.487492, 9.660903, 1.349521, -1.749480, 1.757453, -30.581390, -87.393356, -639.671631
1733470029.517404, -20.940137, -14.637550, 10.206482, 0.346846, -2.384860, 0.482505, -30.980408, -87.647507, -639.211731
1733470029.527391, -20.636073, -12.324602, 7.144747, -0.600563, -2.350197, -0.471162, -30.609879, -87.630173, -639.215942
1733470029.537398, -18.264916, -9.881918, 3.553594, -1.468089, -1.747779, -0.957538, -30.300446, -87.063675, -639.631958
1733470029.547388, -15.705963, -7.576601, 0.220865, -2.210863, -0.621584, -1.121066, -30.193207, -86.692688, -640.316162
1733470029.557381, -13.767258, -6.102521, -1.836203, -2.801678, 0.729017, -1.208775, -29.480225, -86.123123, -641.869324
1733470029.567397, -12.133814, -5.158158, -2.410961, -3.240749, 1.917027, -1.333391, -28.856827, -85.369675, -643.294312
1733470029.577378, -10.793510, -4.264971, -2.364274, -3.506277, 2.601457, -1.550534, -28.056152, -84.471634, -644.643433
1733470029.587390, -9.685892, -3.495385, -2.514810, -3.524406, 2.686224, -1.862357, -26.685135, -83.310638, -645.969971
1733470029.597383, -8.478167, -2.504933, -3.141193, -3.251016, 2.321611, -2.180961, -25.065750, -82.180756, -647.296021
1733470029.607386, -7.384316, -1.397166, -4.172645, -2.687377, 1.753658, -2.442792, -24.002289, -81.030014, -648.387756
1733470029.617380, -6.372018, -0.678307, -5.302708, -1.931870, 1.230266, -2.675788, -22.684494, -79.789108, -648.799011
1733470029.627430, -5.287295, -0.278027, -6.012439, -1.112258, 0.823666, -2.888528, -21.567871, -78.902466, -648.537598
1733470029.637384, -4.152892, -0.113126, -6.012289, -0.354732, 0.489541, -3.110339, -20.322906, -78.229736, -649.478760
1733470029.647374, -2.880075, 0.178069, -5.371391, 0.298800, 0.147430, -3.304494, -19.026855, -77.579575, -649.305969
1733470029.656891, -1.368137, 0.967856, -4.480299, 0.835340, -0.222174, -3.392164, -17.897812, -77.173019, -649.121155
1733470029.667425, 0.581791, 1.591845, -3.542072, 1.274756, -0.665516, -3.368454, -16.929459, -76.847763, -648.872192
1733470029.677385, 2.726397, 1.567005, -2.628684, 1.636670, -1.171419, -3.233617, -16.139114, -76.449966, -648.344666
1733470029.687380, 4.274847, 1.030853, -2.375796, 1.842755, -1.500459, -3.014640, -15.594849, -76.405396, -648.146118
1733470029.697379, 5.368997, 0.487968, -2.086098, 1.870321, -1.597412, -2.786163, -15.200455, -76.297729, -648.114502
1733470029.707026, 6.462998, -0.155324, -1.468244, 1.772970, -1.576286, -2.605778, -15.403534, -75.966476, -647.605286
1733470029.716677, 7.988403, -0.833182, -1.097442, 1.588763, -1.420054, -2.460989, -15.137253, -76.138321, -647.513489
1733470029.726895, 10.042629, -1.171064, -0.612018, 1.344978, -1.123055, -2.324785, -15.504761, -76.048340, -646.963440
1733470029.737398, 12.653356, -1.569549, -0.609773, 1.041460, -0.591805, -2.261353, -15.391373, -75.589325, -647.129150
1733470029.747385, 16.608577, -1.628356, -0.377835, 0.706079, 0.021183, -2.014541, -14.600479, -75.340424, -646.928528
1733470029.757374, 20.409821, -1.145625, 1.103128, 0.422825, 0.261444, -1.475627, -14.715881, -75.170013, -647.062256
1733470029.767380, 22.902335, -1.541267, 2.199822, 0.208424, 0.259796, -0.929641, -14.943527, -75.126053, -647.042969
1733470029.777386, 25.187600, -2.301576, 2.904915, -0.005073, 0.112517, -0.378435, -15.133987, -74.803696, -646.793640
1733470029.787378, 27.037869, -2.684499, 3.391536, -0.269064, -0.088630, 0.157422, -15.871002, -74.813599, -647.080688
1733470029.797384, 28.832772, -3.963002, 3.135806, -0.550599, -0.180234, 0.639246, -16.102478, -74.798553, -647.224792
1733470029.807384, 30.723294, -5.108478, 2.765303, -0.852001, -0.315190, 1.254868, -16.600922, -74.897598, -647.801514
1733470029.816779, 31.053843, -5.184344, 1.821838, -1.138072, -0.424161, 1.978811, -17.071182, -74.826874, -648.149658
1733470029.827412, 29.777434, -5.156362, 0.121805, -1.355567, -0.313891, 2.691918, -18.198593, -75.303177, -648.189819
1733470029.837378, 27.275344, -5.998523, -0.982221, -1.552946, 0.007005, 3.204593, -18.982178, -75.237350, -649.427795
1733470029.847378, 24.178893, -5.610812, -0.785597, -1.768410, 0.293858, 3.605294, -19.597412, -75.332489, -649.691101
1733470029.857377, 20.289063, -4.818181, -0.033369, -1.998400, 0.449230, 3.893190, -20.579605, -75.654831, -650.451721
1733470029.867379, 15.701324, -5.479579, 0.790984, -2.379395, 0.485709, 3.937707, -21.428894, -75.597198, -651.032593
1733470029.877377, 10.781389, -6.044611, 0.956633, -2.907275, 0.392470, 3.665141, -22.482300, -75.213074, -652.059204
1733470029.887369, 7.642292, -7.452102, -1.965789, -3.209210, 0.463444, 3.141537, -23.265976, -74.873383, -653.581421
1733470029.896665, 7.055563, -11.128100, -6.768109, -2.952777, 0.693281, 2.547792, -23.934174, -74.403183, -654.432922
1733470029.907442, 6.534525, -13.717878, -10.590003, -2.085150, 1.066533, 1.952315, -24.092087, -74.059021, -654.963257
1733470029.917367, 6.243030, -15.319898, -11.797578, -0.826586, 1.459359, 1.398576, -23.551041, -74.223969, -654.856812
1733470029.927372, 5.794716, -15.227123, -8.888474, 0.420252, 1.267407, 1.013770, -22.578598, -74.470169, -653.701904
1733470029.937371, 3.583671, -12.790125, -4.077774, 1.341799, 0.447335, 0.878801, -21.928177, -74.926071, -653.356934
1733470029.947435, -0.436792, -11.254843, -0.143802, 1.783482, -0.582956, 0.814033, -21.539459, -75.774933, -652.861694
1733470029.957372, -5.047127, -10.539725, 2.917933, 1.711416, -1.741473, 0.712410, -21.684601, -76.159424, -651.968140
1733470029.966898, -9.765949, -10.080038, 3.749619, 1.263125, -2.648073, 0.486691, -22.244644, -76.771805, -652.126465
1733470029.977373, -13.303232, -9.466224, 1.805976, 0.618035, -2.783251, 0.129538, -22.833313, -76.825882, -652.176270
1733470029.987375, -14.547917, -8.255058, -1.158644, -0.040638, -2.110782, -0.235150, -23.516098, -76.560623, -652.116089
1733470029.997363, -14.322863, -6.638672, -3.605069, -0.591633, -0.990585, -0.490687, -23.218796, -76.470535, -652.719238
1733470030.007374, -13.425187, -5.350143, -4.960337, -0.982843, 0.175919, -0.686043, -23.248932, -76.143677, -653.155090
1733470030.017375, -12.179603, -4.251953, -5.519982, -1.165806, 1.080647, -0.875387, -22.709930, -75.723404, -653.357300
1733470030.027375, -10.698939, -3.181595, -5.393538, -1.110091, 1.504443, -1.069526, -22.116028, -75.277359, -653.048340
1733470030.037370, -9.228151, -2.580052, -5.417330, -0.840091, 1.507117, -1.324459, -21.511459, -74.799820, -653.869568
1733470030.047430, -7.738359, -2.105102, -5.792472, -0.358504, 1.257145, -1.630271, -20.691986, -74.462891, -653.941833
1733470030.057333, -5.954529, -1.120786, -5.933730, 0.301525, 0.893389, -1.906285, -20.121048, -74.279510, -653.282288
1733470030.067360, -4.132991, -0.322319, -5.617545, 1.006658, 0.477519, -2.149604, -19.282318, -74.386032, -652.540100
1733470030.077424, -2.113781, 0.258723, -4.978742, 1.636159, 0.062346, -2.327849, -18.685303, -74.594269, -652.127808
1733470030.087362, 0.031873, 0.595857, -4.305523, 2.114825, -0.272438, -2.424462, -18.363174, -74.825272, -651.861084
1733470030.097358, 2.154333, 0.760907, -3.564068, 2.424187, -0.505330, -2.432212, -17.611496, -75.020187, -650.917725
1733470030.107358, 4.069694, 1.068113, -2.914492, 2.576334, -0.644466, -2.288581, -17.182159, -75.396774, -650.046021
1733470030.117368, 6.027702, 1.313968, -2.447323, 2.623801, -0.682682, -1.984267, -17.014999, -75.975311, -649.416321
1733470030.127357, 7.576152, 1.043124, -1.987487, 2.605731, -0.624742, -1.591393, -16.814987, -76.417694, -648.132202
1733470030.137362, 8.649802, -0.037559, -1.523012, 2.509883, -0.456821, -1.224883, -17.008347, -76.851501, -647.568237
1733470030.147426, 9.469965, -1.415572, -0.549918, 2.306138, -0.320244, -0.908631, -17.034531, -77.452560, -647.183594
1733470030.157362, 9.767744, -2.560150, 0.353294, 1.966420, -0.204393, -0.720609, -17.486465, -77.861465, -646.385864
1733470030.167368, 9.933842, -3.975123, 0.658106, 1.541296, -0.008083, -0.776045, -17.885086, -77.982346, -646.523682
1733470030.177358, 10.813262, -5.441272, 0.544382, 1.154980, 0.309163, -1.067475, -17.735153, -78.176498, -645.650330
1733470030.187412, 13.000665, -6.007501, 0.827047, 0.867837, 0.609232, -1.378585, -17.023849, -78.055313, -645.342285
1733470030.197358, 16.210990, -5.807884, 1.656339, 0.707233, 0.666903, -1.500001, -16.745956, -77.949661, -645.336914
1733470030.207354, 19.345598, -5.377826, 2.601450, 0.685466, 0.402467, -1.452119, -16.228287, -77.845001, -644.506958
1733470030.217358, 22.581063, -4.829703, 3.152415, 0.799913, -0.072935, -1.121582, -15.996506, -77.827011, -644.098755
1733470030.227360, 25.757570, -4.377798, 3.481319, 0.949798, -0.659943, -0.498435, -16.132462, -78.168076, -643.598206
1733470030.236773, 27.817032, -4.314800, 3.650260, 0.971278, -1.137547, 0.317563, -16.808701, -78.322861, -644.041992
1733470030.247379, 28.222849, -5.008221, 3.443012, 0.776836, -1.373548, 1.160077, -17.843842, -78.739273, -644.314819
1733470030.257365, 27.111191, -5.351190, 2.660557, 0.475999, -1.224265, 1.946740, -18.620239, -79.283783, -643.433472
1733470030.267370, 25.397990, -5.323956, 2.089839, 0.115571, -0.766781, 2.710688, -19.449890, -79.961884, -644.031494
1733470030.277366, 23.058706, -4.914997, 2.014721, -0.283845, -0.156871, 3.421950, -20.654922, -80.507324, -643.553955
1733470030.287319, 19.954474, -4.228160, 2.416947, -0.746566, 0.570683, 4.007819, -21.630173, -80.996277, -644.109436
1733470030.297357, 16.229096, -3.803638, 3.553893, -1.318365, 1.157651, 4.431206, -22.614761, -81.432404, -644.963135
1733470030.307407, 11.954997, -4.064157, 4.709544, -2.004651, 1.487392, 4.651196, -24.017853, -81.514191, -645.484131
1733470030.317355, 7.346309, -5.461174, 5.409848, -2.780371, 1.526258, 4.566458, -25.227127, -81.281143, -646.655090
1733470030.327355, 2.659060, -7.166743, 4.867412, -3.515073, 1.336341, 4.114856, -26.381348, -80.547211, -647.323425
1733470030.337356, -1.172411, -7.502231, 2.187253, -4.006070, 1.068571, 3.451773, -27.276337, -79.656982, -649.759338
1733470030.347363, -2.449867, -8.998906, -3.186084, -4.026309, 1.072796, 2.707712, -27.280304, -78.926773, -651.028015
1733470030.357348, -2.292747, -11.605144, -9.047239, -3.392307, 1.210035, 2.016867, -27.714813, -78.108185, -652.277710
1733470030.367357, -2.207454, -13.330915, -13.777583, -2.063678, 1.552838, 1.404676, -27.316223, -77.865677, -652.037598
1733470030.377355, -1.577480, -15.069105, -15.331270, -0.318327, 1.894919, 0.868176, -26.572220, -78.365326, -651.922363
1733470030.387351, -1.392677, -15.274258, -12.218060, 1.434344, 1.725550, 0.529097, -25.696335, -79.082458, -650.745117
1733470030.397410, -2.970306, -13.575273, -5.992088, 2.716678, 1.086111, 0.263080, -25.354996, -80.018127, -649.419128
1733470030.407353, -4.888212, -11.839626, 0.417339, 3.294020, 0.146711, -0.009943, -25.200851, -81.097900, -647.926453
1733470030.417357, -6.501604, -11.485584, 5.364658, 3.126474, -0.898296, -0.389388, -25.156219, -81.645645, -646.909363
1733470030.427350, -7.544878, -11.466879, 7.875128, 2.373635, -1.829860, -0.828704, -25.113174, -82.153793, -645.781860
1733470030.437374, -7.894581, -10.813262, 7.057358, 1.425979, -2.283140, -1.150084, -24.904694, -81.965988, -646.380005
1733470030.447375, -7.552210, -10.020632, 4.105158, 0.589696, -2.065429, -1.330844, -24.964310, -81.882401, -646.052368
1733470030.457185, -6.111349, -9.352650, 1.460463, -0.137718, -1.396237, -1.375141, -24.626190, -81.560318, -646.372803
1733470030.467358, -4.930260, -8.979753, -0.734721, -0.753990, -0.576309, -1.356099, -24.450439, -81.087158, -647.192810
1733470030.477359, -4.273351, -8.355315, -2.713678, -1.154551, 0.297196, -1.374116, -23.922562, -80.689651, -647.799011
1733470030.487350, -3.189226, -7.326407, -3.478326, -1.343804, 0.950231, -1.448165, -23.217972, -80.117981, -648.223633
1733470030.497379, -1.617134, -6.245574, -3.418471, -1.343861, 1.127943, -1.526358, -22.608566, -79.567703, -648.662415
1733470030.506586, -0.376039, -5.679196, -3.528904, -1.128232, 0.824944, -1.655298, -22.608566, -79.567703, -648.662415
1733470030.517352, 0.382174, -4.993407, -4.228759, -0.691783, 0.282888, -1.807329, -21.600677, -78.550125, -649.336182
1733470030.527348, 1.095946, -3.981108, -5.170428, -0.110355, -0.176095, -1.987886, -20.858063, -78.166931, -648.212280
1733470030.537346, 2.084153, -2.902521, -5.623680, 0.515016, -0.499310, -2.131530, -20.456635, -78.077744, -648.864075
1733470030.547346, 3.803339, -1.800440, -5.666626, 1.102565, -0.681285, -2.167789, -19.947968, -78.281906, -648.011719
1733470030.557345, 6.148908, -1.087117, -5.234024, 1.601937, -0.789232, -2.065148, -19.270706, -78.371536, -647.816162
1733470030.567360, 8.457068, -0.752528, -4.655226, 1.955824, -0.784010, -1.781404, -19.206680, -78.627274, -646.885132
1733470030.577349, 10.182091, -0.528819, -3.770119, 2.124159, -0.687972, -1.366300, -18.901917, -79.094391, -646.514221
1733470030.587345, 11.022007, -0.444424, -2.712182, 2.122634, -0.568948, -0.911844, -19.053940, -79.541763, -645.733459
1733470030.597341, 10.888979, -0.549020, -1.671901, 2.003032, -0.444279, -0.486943, -19.520508, -79.963272, -645.235046
1733470030.606704, 10.297012, -1.232415, -0.838120, 1.797274, -0.302980, -0.230359, -19.520508, -79.963272, -645.235046
1733470030.617349, 10.136601, -2.089539, -0.216376, 1.585459, -0.164438, -0.186974, -20.095627, -80.226990, -644.179077
1733470030.627381, 10.901848, -3.021931, 0.203956, 1.378953, 0.094768, -0.292813, -20.109375, -80.718658, -643.818787
1733470030.637350, 12.903699, -3.767127, 1.169119, 1.073500, 0.349716, -0.324614, -20.162033, -81.083481, -642.742798
1733470030.647350, 14.994286, -4.540304, 2.339883, 0.636244, 0.468295, -0.256783, -20.316757, -81.190994, -642.866455
1733470030.657366, 16.379332, -5.857714, 2.809296, 0.162215, 0.556258, -0.219884, -20.543167, -81.118500, -643.187805
1733470030.667345, 18.207904, -7.204452, 2.771737, -0.186742, 0.562027, -0.094799, -20.287689, -81.218750, -643.141785
1733470030.677350, 19.927539, -8.153454, 2.944120, -0.367913, 0.387540, 0.147358, -20.551071, -81.151169, -643.259583
1733470030.687351, 21.021839, -9.164405, 3.154959, -0.500205, 0.253490, 0.328048, -20.760239, -81.121567, -643.580811
1733470030.697344, 22.573132, -9.947459, 3.540725, -0.739702, 0.155941, 0.569823, -20.948380, -81.033157, -643.951904
1733470030.707360, 23.462578, -9.870845, 3.468300, -1.052510, 0.187109, 0.938686, -20.729187, -80.800995, -643.943787
1733470030.717353, 22.613983, -8.503905, 3.812018, -1.420500, 0.248004, 1.423047, -21.029114, -80.556488, -644.226685
1733470030.727352, 20.648343, -6.978050, 4.351312, -1.862925, 0.174601, 1.893494, -21.134140, -80.510712, -645.099731
1733470030.737340, 17.974768, -4.881777, 3.538331, -2.216382, 0.075616, 2.444105, -21.002136, -80.419632, -645.349548
1733470030.747349, 13.609839, -3.135357, 2.647837, -2.529386, 0.116052, 3.003959, -21.678375, -79.756378, -646.510559
1733470030.757362, 7.965509, -3.129371, 2.642002, -3.076610, 0.172144, 3.352243, -22.376419, -79.473785, -647.587769
1733470030.767350, 2.542642, -4.333954, 1.330578, -3.823402, 0.390768, 3.387237, -23.421707, -78.540726, -648.947693
1733470030.777349, -1.785775, -5.814917, -1.752406, -4.530958, 0.916597, 3.121330, -23.773346, -77.552750, -650.309753
1733470030.787345, -4.921431, -5.738153, -5.397578, -4.957361, 1.502446, 2.728171, -24.373764, -76.136841, -652.137512
1733470030.797398, -6.146365, -6.511181, -9.501539, -4.845435, 1.903980, 2.204676, -24.925598, -74.819794, -653.935303
1733470030.807374, -5.188085, -10.688315, -14.235474, -3.954368, 1.932450, 1.594131, -24.928467, -73.689117, -655.368408
1733470030.817349, -4.272154, -12.735956, -18.056171, -2.213292, 1.931506, 1.014964, -25.009155, -73.220108, -655.739868
1733470030.827346, -3.234267, -13.478607, -18.044499, -0.107725, 1.845611, 0.370256, -24.627823, -73.549103, -656.068359
1733470030.837347, -1.771560, -13.178284, -13.399449, 1.833563, 1.230880, -0.190889, -23.958069, -74.118195, -654.645813
1733470030.847338, -1.359158, -10.953024, -7.436989, 3.260987, 0.355564, -0.611130, -23.476181, -75.332916, -653.338623
1733470030.857339, -0.818069, -9.823559, -2.030882, 4.035994, -0.523677, -0.939645, -23.321106, -76.508804, -651.687134
1733470030.867331, 0.304513, -10.083330, 2.480243, 4.101899, -1.410926, -1.139500, -23.166367, -77.551346, -650.556519
1733470030.877348, 0.915483, -9.944167, 5.389946, 3.552134, -2.294970, -1.203290, -22.934845, -78.499603, -649.738586
1733470030.887338, 0.619200, -9.332598, 5.585373, 2.708137, -2.869049, -1.224046, -23.026108, -79.212250, -649.024292
1733470030.897387, -0.429161, -8.844331, 3.683779, 1.968708, -3.014736, -1.226025, -23.348770, -79.693787, -648.885620
1733470030.907334, -1.451036, -8.884284, 0.879271, 1.432537, -2.609776, -1.278408, -23.521072, -79.998581, -648.587830
1733470030.917337, -1.611148, -8.536077, -0.995689, 0.985990, -1.819073, -1.289184, -23.378708, -79.904465, -648.293701
1733470030.927384, -1.773655, -7.461829, -1.499668, 0.543335, -0.979208, -1.213646, -23.282410, -79.966354, -648.263184
1733470030.937335, -1.533636, -7.214927, -1.863587, 0.125660, -0.128380, -1.217539, -23.391052, -79.940018, -648.679871
1733470030.947334, -0.347758, -7.665186, -2.240225, -0.261529, 0.677378, -1.323447, -22.486145, -79.720627, -648.355225
1733470030.957381, 0.659603, -7.087286, -1.870021, -0.581823, 1.096760, -1.424908, -21.942596, -79.419037, -648.609802
1733470030.967331, 0.842160, -5.795764, -1.731756, -0.706982, 1.011715, -1.581404, -21.268738, -79.006897, -648.864990
1733470030.977325, 1.034295, -4.898237, -2.558354, -0.528826, 0.659914, -1.786158, -20.306076, -78.576859, -648.853882
1733470030.986436, 1.575684, -3.973477, -3.678242, -0.078573, 0.295546, -1.957878, -19.472931, -78.192154, -648.797546
1733470030.997325, 2.259827, -3.019388, -4.135534, 0.496397, -0.017449, -2.044791, -18.947739, -77.939102, -648.460083
1733470031.007342, 2.932149, -2.545336, -4.068048, 1.028124, -0.249471, -2.085870, -18.339630, -77.747528, -648.195923
1733470031.017340, 4.172495, -2.809446, -3.915567, 1.389088, -0.284266, -2.117256, -17.464554, -77.748932, -647.380920
1733470031.027330, 5.297022, -3.392733, -3.402460, 1.546979, -0.271380, -2.114060, -16.990372, -77.834900, -646.867798
1733470031.037345, 6.246173, -3.123236, -2.821866, 1.581503, -0.213100, -2.059184, -16.223923, -77.897171, -646.446777
1733470031.047336, 7.309797, -2.139967, -2.403778, 1.551395, -0.045614, -1.926306, -15.716873, -77.680283, -645.983826
1733470031.057328, 8.774599, -1.221043, -1.790115, 1.518161, 0.064257, -1.734177, -15.404709, -77.840042, -645.376221
1733470031.067328, 10.236858, -0.671873, -1.198448, 1.524249, 0.156206, -1.525001, -14.893387, -78.205872, -644.897339
1733470031.077336, 11.847108, -0.535403, -0.676661, 1.519993, 0.318254, -1.340274, -14.792328, -78.003937, -644.059265
1733470031.087326, 13.990817, -0.385466, 0.373196, 1.458922, 0.433585, -1.107186, -14.776947, -78.352859, -643.340210
1733470031.097328, 16.098762, -0.131531, 1.317858, 1.343442, 0.572163, -0.875073, -14.674744, -78.381409, -642.707825
1733470031.107328, 18.924219, 0.222212, 2.422334, 1.171621, 0.758322, -0.612141, -14.391556, -78.767715, -642.415344
1733470031.117332, 22.582858, 1.188272, 4.362834, 0.930136, 0.701900, -0.123170, -14.817474, -78.983749, -641.865845
1733470031.127332, 26.160693, 2.017414, 5.953182, 0.647543, 0.338010, 0.616281, -14.732498, -79.352722, -640.856750
1733470031.137345, 28.717551, 2.856432, 6.507141, 0.444269, -0.182887, 1.657147, -15.342621, -79.745911, -641.456787
1733470031.147336, 29.108554, 3.110966, 5.803096, 0.265733, -0.548602, 2.848195, -17.130173, -80.736588, -641.025940
1733470031.157329, 27.237037, 2.423830, 4.399495, 0.067031, -0.502052, 3.945660, -18.440857, -81.711380, -641.438110
1733470031.167333, 24.351874, 1.776647, 3.700688, -0.262216, -0.149446, 4.913448, -20.178696, -82.514938, -641.706238
1733470031.177341, 19.843742, 1.135450, 4.237438, -0.693690, 0.168937, 5.712663, -22.613556, -83.395554, -641.697021
1733470031.187329, 13.799879, -0.820313, 5.286397, -1.220232, 0.381020, 6.143245, -25.069931, -83.937241, -642.448242
1733470031.197328, 6.409876, -4.283077, 6.982091, -1.952970, 0.353779, 6.030756, -27.488235, -84.152405, -643.793884
1733470031.207374, -1.288679, -8.233510, 8.166622, -2.844743, 0.023094, 5.290019, -28.881378, -83.705002, -645.698669
1733470031.217323, -6.993014, -10.974721, 6.312911, -3.633131, -0.299574, 4.191470, -29.541687, -82.798111, -646.890991
1733470031.227334, -9.349657, -11.931055, 1.852514, -4.042963, -0.488593, 3.286294, -29.890106, -81.523468, -647.510254
1733470031.237330, -10.096498, -12.197560, -3.722984, -4.004230, -0.523328, 2.813676, -31.008331, -80.196487, -649.618774
1733470031.247320, -11.102661, -14.148834, -10.517429, -3.482934, -0.080345, 2.567559, -32.263763, -79.481125, -651.396973
1733470031.257338, -13.170354, -19.137452, -15.985935, -2.550748, 0.889355, 1.994080, -33.051605, -79.039520, -652.062256
1733470031.267329, -14.011018, -22.463148, -17.556980, -1.507657, 1.975679, 1.049411, -32.847198, -78.904297, -652.262878
1733470031.277331, -11.734431, -23.690177, -16.226253, -0.416404, 2.751168, 0.059569, -32.023636, -79.054596, -652.303223
1733470031.287334, -8.586056, -23.025337, -12.514193, 0.766573, 2.725400, -0.841881, -30.657806, -79.646652, -651.607361
1733470031.297332, -6.185570, -19.268685, -7.680000, 1.978536, 1.905420, -1.504403, -29.516052, -80.572464, -650.345825
1733470031.307322, -4.814440, -15.742175, -3.123685, 3.015654, 0.588183, -1.944980, -28.132812, -81.201202, -648.674438
1733470031.317327, -4.815637, -13.317447, 0.153827, 3.637461, -0.627721, -2.305354, -27.087173, -82.152222, -647.311218
1733470031.327379, -5.311836, -11.305121, 2.374001, 3.730094, -1.366323, -2.633400, -26.151199, -82.906006, -645.006104
1733470031.337332, -4.830152, -10.037391, 3.965546, 3.299663, -1.614197, -2.918869, -25.547180, -83.284149, -644.748596
1733470031.347316, -3.133262, -9.784803, 4.763863, 2.473183, -1.562988, -3.150573, -24.725845, -83.275528, -644.259766
1733470031.357344, -1.404648, -9.781212, 3.919757, 0.701073, -0.837575, -3.312396, -23.083939, -83.141617, -643.860901
1733470031.367324, -0.772130, -8.459163, 1.728763, 0.701073, -0.837575, -3.312396, -21.987320, -82.743988, -643.685608
1733470031.377328, -0.424372, -7.060501, -0.242862, 0.139801, -0.256605, -3.314806, -20.599091, -82.382248, -643.827148
1733470031.387320, 0.863259, -4.361487, -1.982998, -0.260092, 0.540907, -3.188922, -19.094131, -81.647690, -643.531982
1733470031.397320, 1.372775, -3.040786, -1.515979, -0.155700, 0.466840, -3.076321, -17.722504, -81.054794, -643.670898
1733470031.407333, 1.903989, -2.244115, -1.318158, 0.042497, 0.182912, -2.957814, -16.367050, -80.576889, -643.643311
1733470031.417317, 2.449867, -1.628955, -1.379060, 0.248457, -0.053948, -2.844403, -15.116531, -79.744873, -643.621216
1733470031.427324, 2.687791, -0.953940, -1.088015, 0.376063, -0.228349, -2.716942, -14.062302, -79.400589, -642.769348
1733470031.437315, 2.798822, -0.468964, -0.678457, 0.383146, -0.328838, -2.614746, -13.390182, -78.721313, -643.467590
1733470031.446931, 2.798822, -0.468964, -0.678457, 0.383146, -0.328838, -2.614746, -12.513885, -78.087234, -643.432617
1733470031.457324, 4.088399, 0.846051, -0.734122, 0.227051, -0.270256, -2.393841, -11.766983, -77.506561, -643.192383
1733470031.467327, 5.319916, 1.546654, -0.554856, 0.171420, -0.265564, -2.200070, -11.125641, -76.908661, -643.368103
1733470031.477321, 6.525546, 2.146103, -0.569820, 0.135107, -0.300834, -1.919348, -10.451767, -76.376526, -643.407471
1733470031.487338, 7.841609, 2.473659, -0.842460, 0.140003, -0.315306, -1.545605, -10.198334, -75.950272, -643.317810
1733470031.497321, 8.998158, 2.516755, -1.070507, 0.175766, -0.260978, -1.154948, -10.286377, -75.664261, -643.202026
1733470031.507323, 10.268731, 2.650681, -1.068412, 0.222013, -0.159654, -0.791766, -10.355240, -75.436493, -643.353943
1733470031.516481, 10.268731, 2.650681, -1.068412, 0.222013, -0.159654, -0.791766, -10.329590, -75.224655, -643.494263
1733470031.527320, 12.826486, 2.816329, -0.179116, 0.302619, -0.135568, 0.019201, -10.621597, -75.464020, -642.858337
1733470031.537321, 13.346178, 2.400636, -0.229694, 0.299640, 0.004206, 0.220323, -11.556473, -75.632919, -643.395264
1733470031.547200, 14.757709, 1.768268, -0.155473, 0.293021, 0.213118, 0.333184, -11.886505, -75.937576, -643.436279
1733470031.557315, 16.730532, 0.193930, 0.282217, 0.257673, 0.323705, 0.342090, -12.737503, -76.061066, -643.236267
1733470031.567320, 19.463962, -1.444003, 0.733374, 0.206414, 0.299261, 0.342488, -12.976593, -76.126328, -643.264282
1733470031.576545, 22.921787, -2.369212, 0.955137, 0.214939, 0.082243, 0.559035, -13.819107, -76.402771, -643.001709
1733470031.587314, 25.307759, -3.699939, 0.583437, 0.396010, -0.094749, 0.738176, -14.646774, -76.841827, -643.622437
1733470031.597315, 27.883920, -4.836587, 0.807145, 0.732801, -0.332859, 0.877957, -15.987518, -77.291016, -642.981445
1733470031.607328, 31.184626, -6.533477, 1.323245, 1.063334, -0.630378, 1.020084, -16.579208, -77.974365, -643.054749
1733470031.617320, 34.849401, -5.254674, 2.514211, 1.278513, -1.096764, 1.522866, -16.281952, -78.687317, -642.695496
1733470031.627313, 36.833296, -0.447117, 4.242825, 1.295098, -1.679497, 2.731355, -16.262726, -79.198059, -641.592896
1733470031.637312, 33.742531, 2.451363, 4.388572, 0.877535, -1.666067, 4.459044, -16.752518, -80.034866, -641.838867
1733470031.647311, 24.085968, 1.594239, 3.946542, -0.233519, -0.754966, 6.020205, -18.725739, -80.997147, -642.250977
1733470031.657313, 11.966370, -2.136077, 4.452617, -2.155568, 0.427535, 6.713745, -20.956207, -81.711792, -642.856812
1733470031.667310, 2.404676, -4.884471, 1.035193, -4.018365, 1.872343, 6.691304, -22.467148, -81.807495, -644.453979
1733470031.677311, -4.315399, -6.141127, -4.752939, -5.099434, 3.275731, 6.293075, -23.812515, -81.541336, -645.969116
1733470031.687308, -8.450933, -6.390872, -7.201759, -5.413281, 3.782032, 5.670025, -25.068192, -80.856873, -647.773010
1733470031.697310, -10.316615, -7.427113, -9.540894, -4.937639, 3.580832, 4.911288, -26.532181, -79.895874, -649.348938
1733470031.706615, -10.066122, -13.029545, -12.612804, -3.651579, 2.835637, 3.962592, -27.731277, -79.550674, -651.150513
1733470031.716536, -10.332028, -17.493983, -13.584700, -1.684765, 1.762833, 2.756687, -28.848724, -79.525894, -651.788086
1733470031.727318, -10.095899, -18.363078, -11.331008, 0.460626, 0.601454, 1.403666, -29.286682, -79.917816, -650.606873
1733470031.737303, -8.283938, -17.186477, -6.424840, 2.246761, -0.753599, 0.284693, -28.703430, -80.687714, -650.152954
1733470031.747371, -6.829161, -14.772374, -1.524358, 3.368203, -1.975289, -0.383519, -28.406754, -81.438828, -648.708801
1733470031.757313, -6.964284, -12.867637, 2.281973, 3.729958, -2.751774, -0.772117, -28.361511, -82.329651, -647.105774
1733470031.767312, -7.695563, -11.936143, 4.878336, 3.370405, -2.883739, -1.066463, -28.746277, -83.315948, -646.180542
1733470031.777303, -8.647707, -10.972626, 6.776788, 2.481867, -2.636543, -1.371374, -28.885208, -83.910126, -645.152649
1733470031.787369, -9.755175, -10.047716, 7.257274, 1.460474, -2.218007, -1.727686, -28.421097, -84.129715, -644.475159
1733470031.797306, -10.387693, -9.093627, 6.222680, 0.526850, -1.620370, -2.115963, -27.979507, -84.158173, -644.547729
1733470031.807319, -9.974094, -7.871537, 4.752490, -0.262827, -0.967709, -2.472971, -27.073639, -83.838531, -644.896790
1733470031.816589, -9.027487, -6.584653, 3.180697, -0.847780, -0.408838, -2.772733, -25.931870, -83.321259, -645.305481
1733470031.827311, -7.916727, -5.343708, 1.761235, -1.222575, 0.003627, -3.007389, -24.577423, -82.755157, -645.577087
1733470031.837306, -6.438308, -3.970335, 0.492607, -1.423157, 0.341896, -3.147265, -23.423996, -81.825470, -646.817261
1733470031.847306, -4.718523, -2.535759, -0.368557, -1.477050, 0.585845, -3.175237, -22.086899, -80.804337, -646.980469
1733470031.857302, -3.076699, -1.362750, -1.141286, -1.406305, 0.687790, -3.122917, -20.937714, -79.902618, -647.516663
1733470031.867308, -1.716343, -0.850540, -2.060659, -1.236325, 0.701969, -3.069493, -19.529297, -79.147415, -648.133789
1733470031.877297, -0.505177, -0.604835, -2.987664, -0.997510, 0.720868, -3.029479, -18.546783, -77.992004, -647.759766
1733470031.887319, 0.752378, -0.068833, -3.731064, -0.733540, 0.815470, -2.943574, -17.152039, -77.240677, -648.025696
1733470031.897302, 2.052130, 0.189740, -4.034379, -0.493794, 0.922538, -2.836050, -15.949036, -76.431717, -647.805969
1733470031.907356, 3.692308, 0.109235, -4.159626, -0.306725, 0.994079, -2.707500, -15.102264, -75.603210, -647.560913
1733470031.917312, 5.913678, 0.566827, -4.320636, -0.132764, 0.974018, -2.475255, -14.099380, -75.197372, -647.528809
1733470031.927300, 8.232163, 1.234361, -4.739621, 0.129065, 0.901615, -2.065069, -13.683670, -74.620865, -646.928467
1733470031.937295, 10.166678, 1.410035, -5.125088, 0.555010, 0.830658, -1.565287, -13.289108, -74.427155, -647.463196
1733470031.947337, 11.911602, 1.259799, -4.998495, 1.076225, 0.774624, -1.029998, -12.878006, -74.536789, -646.564148
1733470031.957298, 13.407230, 0.893935, -4.025401, 1.503187, 0.751664, -0.549218, -13.043320, -74.903244, -645.641968
1733470031.967297, 14.120852, 0.326659, -2.334796, 1.713983, 0.750861, -0.212785, -13.529022, -75.403549, -645.083801
1733470031.977341, 15.096339, -0.713622, -0.743100, 1.681917, 0.817082, -0.060982, -13.835602, -75.789001, -644.597595
1733470031.987292, 17.161338, -1.978359, 0.830339, 1.469891, 0.800306, -0.029086, -14.074234, -76.312134, -643.770203
1733470031.997292, 19.899407, -2.511817, 2.365022, 1.233539, 0.496568, 0.034661, -14.322876, -76.767242, -643.149841
1733470032.007323, 22.485295, -2.170045, 2.877381, 1.188038, 0.094048, 0.206932, -14.695740, -77.128723, -642.944458
1733470032.017306, 24.913165, -2.248754, 3.261052, 1.281716, -0.339000, 0.474258, -15.431915, -77.631226, -642.541138
1733470032.027307, 27.434109, -3.202993, 4.086304, 1.296347, -0.793295, 0.844427, -16.022934, -78.247574, -641.569641
1733470032.037319, 29.857041, -4.394856, 4.519205, 1.181408, -1.153405, 1.394689, -16.493408, -78.872604, -641.864502
1733470032.047023, 31.041722, -4.923227, 4.800524, 0.951458, -1.389902, 2.209304, -17.260498, -79.637024, -641.725403
1733470032.057306, 30.270490, -5.013608, 5.046379, 0.589241, -1.545234, 3.207311, -18.451065, -80.468353, -642.005615
1733470032.066972, 27.752239, -4.806360, 4.809203, 0.050798, -1.515857, 4.297115, -18.451065, -80.468353, -642.005615
1733470032.077310, 23.062746, -4.936096, 4.331111, -0.727187, -1.188072, 5.341078, -21.914185, -81.730988, -643.451599
1733470032.087303, 15.762376, -4.650288, 4.453514, -1.815555, -0.610340, 6.098592, -24.100922, -82.082886, -643.946777
1733470032.097291, 7.835175, -4.920683, 4.351162, -3.208990, 0.124920, 6.406033, -26.433334, -81.825455, -645.706909
1733470032.107312, 1.148020, -6.977302, 2.806902, -4.704793, 0.946515, 6.213893, -27.934723, -80.707428, -647.560059
1733470032.117301, -4.748151, -8.544457, -0.772878, -5.967935, 1.837891, 5.601485, -27.934723, -80.707428, -647.560059
1733470032.127304, -9.550022, -7.771279, -5.327099, -6.692494, 2.577773, 4.741558, -29.001236, -79.452255, -650.237122
1733470032.137371, -11.257835, -7.926603, -10.931177, -6.565580, 2.927283, 3.805970, -29.591156, -77.297043, -652.013000
1733470032.147309, -10.308983, -11.330110, -17.633445, -5.271896, 2.872523, 2.941119, -30.076233, -75.711288, -654.463745
1733470032.157298, -9.306411, -14.987104, -22.887071, -2.882392, 2.739286, 2.105591, -30.273346, -74.484299, -656.230835
1733470032.167296, -7.894730, -17.431584, -22.515072, -0.195185, 2.261849, 1.205498, -30.598907, -74.020386, -656.643188
1733470032.177295, -6.083367, -18.064401, -17.517775, 2.112379, 1.321227, 0.334488, -30.351486, -74.622025, -655.970337
1733470032.187298, -5.080496, -16.337733, -11.616367, 3.823463, 0.386522, -0.460026, -29.838470, -75.971191, -654.820801
1733470032.197301, -3.947290, -14.381520, -5.880907, 4.903948, -0.416527, -1.088720, -29.585281, -77.222015, -653.045044
1733470032.207306, -2.525733, -13.275848, -0.702549, 5.314276, -1.139025, -1.518615, -28.844925, -79.030197, -650.928711
1733470032.217294, -1.952471, -12.072163, 3.002329, 5.141040, -1.714258, -1.788293, -28.304733, -80.567200, -648.995544
1733470032.227288, -2.207304, -10.909180, 4.907964, 4.553692, -1.972567, -1.985680, -27.723358, -81.938751, -647.103638
1733470032.237342, -2.673126, -9.965864, 4.933552, 3.782851, -1.796590, -2.143173, -27.314636, -82.942993, -644.712952
1733470032.247302, -3.064578, -8.849269, 4.179528, 2.978790, -1.192057, -2.227664, -26.399796, -83.461258, -643.353394
1733470032.257297, -3.233369, -7.746888, 3.995324, 2.117867, -0.395445, -2.294193, -25.873703, -83.828415, -642.536011
1733470032.267305, -2.814983, -6.777985, 3.986046, 1.255234, 0.414989, -2.334723, -24.729599, -84.088120, -641.884277
1733470032.277297, -2.410662, -6.062119, 4.093786, 0.481411, 1.062791, -2.344630, -23.512573, -84.004807, -641.723999
1733470032.287283, -2.212841, -5.659743, 4.014029, -0.130854, 1.440752, -2.406949, -22.156982, -83.894638, -641.642883
1733470032.297356, -1.761235, -5.371990, 3.320010, -0.547728, 1.621185, -2.512108, -20.774124, -83.430023, -641.906494
1733470032.307299, -1.147122, -4.927417, 2.628833, -0.774181, 1.608073, -2.638359, -19.317566, -82.765884, -640.923828
1733470032.317302, -0.816872, -4.161721, 2.071882, -0.860187, 1.426183, -2.749515, -17.807846, -82.220261, -641.500122
1733470032.327303, -0.749385, -3.386598, 1.408988, -0.815714, 1.195087, -2.857165, -16.231400, -81.332550, -641.509705
1733470032.337356, -1.024269, -2.753631, 0.944812, -0.698775, 0.980644, -3.008931, -14.999893, -80.555862, -641.080139
1733470032.347284, -0.906056, -1.976563, 0.545728, -0.557609, 0.791157, -3.195710, -13.505264, -79.611755, -641.512146
1733470032.357286, -0.501136, -1.004517, 0.225803, -0.394974, 0.628062, -3.332701, -11.903198, -78.558548, -641.455688
1733470032.367307, 0.051326, -0.187795, 0.039205, -0.203891, 0.441000, -3.405573, -10.635254, -77.521149, -641.673584
1733470032.377295, 1.108216, 0.408511, -0.239869, 0.054637, 0.226347, -3.413447, -9.291733, -76.456985, -641.418640
1733470032.387281, 2.419191, 0.667533, -0.331597, 0.382618, -0.066576, -3.337156, -7.870560, -75.775040, -641.035828
1733470032.397341, 3.820098, 0.472256, -0.223110, 0.733195, -0.447404, -3.202366, -7.180328, -74.919434, -641.382324
1733470032.407286, 5.127781, 0.489165, 0.167444, 1.066244, -0.919705, -3.020967, -6.647858, -74.027618, -641.070740
1733470032.417278, 5.818060, 0.870143, 0.401178, 1.347885, -1.313548, -2.822301, -5.938828, -73.396469, -641.356384
1733470032.427282, 6.526594, 1.190517, 0.367061, 1.536332, -1.395435, -2.655028, -5.921860, -72.757111, -641.191223
1733470032.436513, 7.855974, 1.549048, 0.778864, 1.644359, -1.304705, -2.551438, -5.651871, -72.419220, -641.098633
1733470032.447283, 10.382306, 1.178097, 1.575684, 1.659250, -1.242898, -2.600708, -6.357986, -72.210007, -641.551575
1733470032.457279, 14.281263, 0.049979, 2.653075, 1.506680, -1.396953, -2.718408, -6.648346, -71.512634, -641.692505
1733470032.467295, 17.934815, -0.428562, 3.368642, 1.223117, -1.729832, -2.855186, -7.062531, -71.107269, -641.750488
1733470032.477334, 22.390275, 0.536451, 2.729540, 1.035586, -1.871546, -2.933000, -6.806488, -70.111710, -641.922546
1733470032.487278, 28.663382, 2.290054, 1.816451, 1.112659, -2.003976, -2.535199, -7.063599, -69.532349, -642.729614
1733470032.497308, 35.082985, 3.166631, 0.866102, 1.387654, -2.192165, -1.748451, -7.007065, -69.162979, -643.064270
1733470032.507305, 40.820540, 4.907365, 0.686837, 1.672503, -2.348701, -0.442499, -7.668152, -69.429596, -643.514526
1733470032.517286, 44.207886, 7.246351, 1.814057, 1.680318, -2.438220, 1.258807, -7.670395, -69.962051, -643.013306
1733470032.527307, 44.078150, 9.026140, 2.854337, 1.398852, -2.298584, 3.257531, -8.821945, -71.254257, -643.335083
1733470032.537292, 40.278403, 8.685565, 3.511396, 0.836687, -1.941535, 5.207249, -9.671890, -72.831833, -643.322632
1733470032.547331, 32.325164, 9.277681, 3.635595, 0.108403, -1.298621, 7.106556, -11.364960, -74.762848, -643.871643
1733470032.557287, 19.011009, 7.273136, 4.468029, -0.861017, -0.386240, 8.354741, -14.255249, -76.834976, -644.759033
1733470032.567280, 5.194221, 1.093402, 6.124966, -2.214798, 0.315381, 8.490096, -17.018631, -78.357727, -645.414246
1733470032.577277, -6.206669, -3.799897, 5.847688, -3.639763, 0.711454, 7.643613, -19.216446, -78.772797, -646.954224
1733470032.587274, -13.992313, -6.813000, 1.653795, -4.618288, 1.124785, 6.186568, -22.330414, -78.731979, -649.093994
1733470032.597337, -15.269769, -12.331336, -4.308366, -4.924684, 1.313665, 4.306089, -23.463837, -77.848831, -651.004272
1733470032.607289, -11.716624, -16.581044, -11.310508, -4.112752, 1.114963, 2.678071, -24.124557, -77.017365, -652.279419
1733470032.617281, -8.566603, -17.259500, -16.168044, -2.252507, 0.857897, 1.456992, -24.064011, -76.600876, -653.289124
1733470032.627275, -7.267599, -16.662446, -16.107291, -0.038386, 0.475721, 0.488759, -24.372711, -76.610672, -653.156982
1733470032.637276, -6.470629, -16.466571, -11.965921, 1.706836, -0.183019, -0.443133, -23.946014, -77.021210, -652.309875
1733470032.647318, -5.753117, -15.024214, -7.269844, 2.718911, -0.879382, -1.202473, -22.815002, -77.713791, -651.617493
1733470032.657276, -5.016451, -12.499229, -3.759196, 3.103936, -1.201551, -1.616910, -22.224030, -78.436722, -650.194580
1733470032.667287, -5.433341, -10.141838, -0.408511, 2.921323, -1.172994, -1.719715, -21.380096, -79.171188, -648.872070
1733470032.677343, -6.843676, -8.892065, 2.417545, 2.276809, -0.911753, -1.774062, -20.697067, -79.451538, -648.031006
1733470032.687275, -8.365341, -8.211214, 4.330961, 1.351853, -0.587462, -1.937696, -20.403381, -79.780685, -647.664612
1733470032.697272, -9.436147, -7.709629, 4.775235, 0.430535, -0.269895, -2.286572, -19.754150, -79.494949, -647.838379
1733470032.707295, -9.619453, -6.927024, 3.960608, -0.258646, -0.009890, -2.760304, -18.862488, -78.934036, -647.933533
1733470032.717281, -8.660875, -6.148160, 2.585139, -0.695751, 0.144920, -3.264093, -17.711960, -78.003586, -648.237000
1733470032.727285, -6.678177, -5.328146, 1.118840, -0.929506, 0.212012, -3.688078, -16.189255, -77.056046, -647.837280
1733470032.737286, -4.238335, -3.807678, -0.005088, -1.015500, 0.218691, -3.948988, -14.920731, -75.819061, -648.680603
1733470032.747334, -1.625513, -1.945738, -0.914435, -0.990830, 0.163858, -4.009814, -13.330505, -74.462952, -649.409851
1733470032.757290, 0.968754, -0.390255, -1.664419, -0.884016, 0.022975, -3.861637, -11.993729, -73.245239, -649.185547
1733470032.767287, 2.760515, 0.741155, -2.406173, -0.729057, -0.206274, -3.548263, -11.209152, -71.903595, -649.462646
1733470032.777285, 3.685724, 1.390732, -3.378518, -0.529841, -0.366825, -3.243864, -10.331238, -70.835251, -649.788818
1733470032.787278, 4.453514, 2.015469, -4.354305, -0.277170, -0.376582, -2.963174, -9.637283, -69.929016, -649.697205
1733470032.797269, 5.238962, 2.485481, -4.859780, -0.018056, -0.289509, -2.633498, -9.240143, -68.995285, -649.924927
1733470032.807277, 5.995530, 2.581249, -4.995801, 0.159789, -0.134262, -2.307249, -8.969940, -68.446121, -650.011169
1733470032.817279, 6.645406, 2.342277, -5.079897, 0.225212, 0.035580, -2.051523, -8.640045, -67.903214, -649.519165
1733470032.827271, 7.269245, 2.169596, -5.239411, 0.271279, 0.227854, -1.872085, -8.276138, -67.464157, -648.844116
1733470032.837277, 8.314015, 2.536357, -5.176863, 0.368570, 0.534784, -1.699121, -7.999817, -66.962952, -649.337097
1733470032.847320, 9.701604, 3.054103, -4.534319, 0.443134, 0.858284, -1.532175, -7.763062, -66.771011, -648.941467
1733470032.857264, 11.218182, 3.429694, -3.535338, 0.460486, 1.062363, -1.371630, -7.603455, -66.487122, -648.349976
1733470032.867280, 12.826636, 3.930681, -2.653524, 0.513121, 1.176629, -1.277032, -7.331528, -65.973236, -647.633850
1733470032.877278, 15.536423, 4.193444, -1.555333, 0.563944, 1.176663, -1.153731, -6.842377, -66.095093, -647.418945
1733470032.887335, 18.923171, 4.284125, 0.080206, 0.536358, 0.804383, -0.860492, -6.731735, -66.075485, -647.112732
1733470032.897290, 21.376480, 4.925920, 1.015142, 0.469614, 0.221265, -0.400734, -6.770477, -66.221176, -646.796570
1733470032.907268, 23.365762, 5.397428, 0.676961, 0.397318, -0.218179, 0.181069, -7.076706, -66.395004, -646.792480
1733470032.917267, 25.152435, 5.094412, -0.173729, 0.348053, -0.443628, 0.954412, -7.570221, -66.814255, -646.574219
1733470032.927271, 25.720460, 4.590582, -1.060781, 0.333217, -0.336804, 1.764285, -8.274353, -67.615570, -646.229370
1733470032.937266, 25.817574, 3.869778, -0.995389, 0.238932, -0.011690, 2.528723, -9.196609, -68.363022, -646.595337
1733470032.947288, 25.934441, 3.404704, -0.257377, 0.020312, 0.323467, 3.353585, -9.946472, -69.595886, -646.779236
1733470032.957277, 25.199870, 3.211822, 0.430507, -0.310973, 0.649075, 4.148018, -10.848328, -70.782654, -646.501953
1733470032.967274, 23.954736, 2.964620, 0.965312, -0.676825, 0.908761, 4.871002, -12.073532, -72.279373, -646.484192
1733470032.977266, 22.390724, 2.902820, 1.005864, -0.988494, 1.074086, 5.546221, -13.879288, -73.645401, -646.740112
1733470032.987266, 20.443789, 2.482039, 0.795773, -1.219662, 1.208268, 6.067353, -15.172028, -74.675110, -646.318970
1733470032.997271, 18.295891, 2.379088, 1.090409, -1.409542, 1.212394, 6.542959, -16.262527, -75.812195, -646.660034
1733470033.007272, 14.826992, 2.650830, 1.995866, -1.620573, 1.047825, 7.066663, -18.294449, -76.722641, -646.687073
1733470033.017319, 9.086743, 1.312920, 2.901323, -2.011988, 0.912549, 7.371427, -20.640961, -77.505295, -648.069763
1733470033.027266, 2.141913, -2.516456, 3.935469, -2.753317, 0.662104, 7.154185, -23.189209, -77.928955, -649.335999
1733470033.037265, -4.567987, -7.090877, 3.444807, -3.670865, 0.237715, 6.322708, -24.812378, -77.006973, -650.795227
1733470033.047259, -8.838944, -10.032453, -1.646463, -4.159307, 0.130836, 5.235574, -26.544052, -76.467209, -652.233643
1733470033.057320, -11.720515, -13.883377, -8.987384, -3.780946, 0.321784, 3.992208, -28.156418, -75.684814, -653.505432
1733470033.067258, -12.840702, -19.707721, -16.118514, -2.359251, 0.693071, 2.587456, -28.499908, -75.485611, -653.721680
1733470033.077260, -12.166884, -23.040300, -20.090345, -0.186055, 1.068139, 1.216037, -28.078018, -75.983643, -653.970520
1733470033.087261, -10.322152, -23.079655, -17.974918, 2.040315, 0.875585, 0.069691, -27.219131, -76.965195, -652.855347
1733470033.097328, -8.522610, -21.440674, -12.568212, 3.792421, 0.170246, -0.775663, -26.666534, -78.277557, -651.012390
1733470033.107263, -8.485949, -19.434782, -6.542904, 4.854072, -0.708470, -1.489940, -26.223495, -79.747070, -648.902344
1733470033.117255, -8.398261, -18.429068, -1.070956, 5.178140, -1.625200, -2.207092, -25.694138, -80.856918, -647.157166
1733470033.126792, -7.245004, -17.908479, 2.661754, 4.838970, -2.375499, -2.780978, -24.467010, -81.752289, -644.773010
1733470033.137260, -5.871630, -16.732926, 4.664503, 4.015418, -2.828878, -3.099063, -23.875580, -82.252640, -644.159851
1733470033.147311, -4.617517, -14.864401, 4.873846, 2.947043, -2.876111, -3.153800, -23.367584, -82.510574, -643.097107
1733470033.157257, -3.948338, -13.402142, 3.706374, 1.849207, -2.434860, -3.099136, -22.821304, -82.387161, -643.245544
1733470033.167267, -3.307440, -12.208334, 2.431611, 0.797815, -1.589877, -3.038682, -21.658707, -82.128159, -643.048828
1733470033.177256, -2.779668, -10.149320, 1.715296, -0.175628, -0.626476, -2.910373, -20.612808, -81.491745, -643.535889
1733470033.187292, -2.027290, -8.235455, 1.270723, -1.031236, 0.332294, -2.749624, -19.308594, -80.687790, -644.026978
1733470033.197256, -1.264587, -6.657976, 1.014094, -1.721116, 1.097450, -2.641255, -18.072311, -79.763016, -644.669373
1733470033.206597, -0.505925, -5.097255, 0.761206, -2.202356, 1.520651, -2.581687, -16.920471, -78.673904, -645.103516
1733470033.217253, 0.188992, -3.797204, 0.224756, -2.442125, 1.675549, -2.562478, -15.458633, -77.257736, -645.651611
1733470033.227305, 0.941520, -2.782062, -0.451307, -2.445014, 1.661132, -2.567553, -13.996475, -76.232437, -645.273193
1733470033.237267, 1.701230, -1.790264, -0.872986, -2.261310, 1.509418, -2.561021, -12.991745, -74.894775, -646.717285
1733470033.247260, 2.165406, -0.785448, -1.104625, -1.952346, 1.245554, -2.502119, -11.655243, -73.712967, -646.777344
1733470033.257268, 2.401384, -0.038607, -1.308282, -1.562240, 0.967269, -2.444240, -10.967087, -72.717529, -647.034302
1733470033.267156, 2.639158, 0.392051, -1.446098, -1.154838, 0.715618, -2.430473, -10.108154, -71.759003, -646.994568
1733470033.277270, 3.183540, 0.710479, -1.462558, -0.764344, 0.432553, -2.447722, -9.357254, -70.858871, -647.120422
1733470033.287253, 3.956418, 1.149965, -1.482460, -0.402965, 0.163218, -2.428984, -8.736282, -70.078476, -647.159973
1733470033.297250, 5.042638, 1.770512, -1.273416, -0.058897, -0.117709, -2.355461, -8.462921, -69.466690, -647.212036
1733470033.307256, 6.545298, 2.255039, -1.029956, 0.248111, -0.369767, -2.245504, -7.961929, -68.792953, -646.942505
1733470033.317256, 8.056638, 2.672228, -0.965163, 0.513931, -0.607463, -2.074089, -8.054550, -68.339081, -647.399780
1733470033.327252, 9.405920, 3.015048, -1.188721, 0.734484, -0.692857, -1.880383, -8.128189, -68.059647, -646.831360
1733470033.337255, 10.724826, 3.221847, -1.221342, 0.908643, -0.600298, -1.770513, -7.996613, -67.781097, -647.078857
1733470033.347252, 12.470648, 3.421913, -0.660949, 0.997721, -0.466122, -1.629447, -8.155502, -67.538589, -646.968994
1733470033.357262, 14.676755, 3.530550, 0.161908, 0.981754, -0.393278, -1.394450, -8.381104, -67.500687, -646.942688
1733470033.367252, 17.313819, 3.510498, 1.011401, 0.841160, -0.393156, -1.072255, -8.525162, -67.637558, -647.154602
1733470033.377253, 20.095432, 3.345149, 1.974618, 0.607762, -0.610628, -0.637871, -9.312393, -67.599228, -646.828369
1733470033.387250, 22.330270, 3.176058, 2.252944, 0.368926, -0.984705, -0.149151, -10.019165, -67.734985, -647.636597
1733470033.397259, 24.151809, 3.265242, 1.456722, 0.215201, -1.241668, 0.362488, -10.561523, -67.884537, -648.251282
1733470033.407251, 26.300305, 3.281253, 0.266953, 0.116595, -1.261227, 1.027647, -11.243057, -68.418839, -648.505127
1733470033.417251, 27.895592, 3.015647, -0.492457, 0.005875, -1.192318, 1.913471, -11.890350, -69.129807, -648.760559
1733470033.427250, 27.857434, 2.737321, -1.326986, -0.094279, -0.996480, 2.883277, -13.007294, -70.236618, -648.438354
1733470033.437258, 26.429592, 2.463334, -2.044947, -0.169882, -0.689360, 3.871319, -14.248230, -71.401657, -649.033264
1733470033.447249, 23.779510, 2.420837, -2.363825, -0.271323, -0.303118, 4.783733, -15.318939, -72.556259, -648.732361
1733470033.457249, 19.793464, 2.781613, -2.312948, -0.429527, 0.156090, 5.556424, -16.928665, -73.726837, -649.054688
1733470033.467248, 14.528165, 2.799271, -1.657236, -0.697885, 0.651670, 6.120057, -18.429459, -74.739319, -649.232910
1733470033.477246, 9.050382, 0.887052, -0.653019, -1.181680, 1.141256, 6.325383, -20.395767, -75.535767, -649.930786
1733470033.487243, 2.761263, -2.416647, 1.026664, -1.958184, 1.489350, 6.087119, -22.165314, -75.452896, -650.758911
1733470033.497267, -3.277662, -6.845172, 3.041833, -2.993026, 1.454778, 5.098402, -22.352661, -74.892960, -652.291016
1733470033.507254, -6.407482, -9.652374, 2.290952, -3.774148, 1.222263, 3.776754, -23.224823, -73.879089, -653.362610
1733470033.517248, -6.330718, -10.852916, -1.168969, -3.974782, 1.012104, 2.582651, -23.940292, -73.071243, -654.755554
1733470033.527255, -4.340388, -15.604958, -5.893477, -3.485728, 0.449722, 1.515514, -24.117752, -72.471542, -654.991089
1733470033.537253, -2.357391, -20.899286, -11.902175, -2.152748, -0.120117, 0.557528, -23.610321, -72.304962, -655.712402
1733470033.547253, -1.603816, -21.322461, -15.781380, -0.214423, -0.394918, -0.178071, -23.201233, -72.772461, -654.702209
1733470033.557260, -1.338957, -19.433885, -15.301193, 1.671033, -0.427760, -0.673615, -23.127213, -73.715576, -654.219727
1733470033.567254, -1.394323, -18.647838, -11.214141, 3.031794, -0.576727, -1.025132, -22.943130, -74.721436, -652.898804
1733470033.577252, -2.231695, -18.910751, -5.963956, 3.710994, -0.988455, -1.400480, -22.050705, -75.701019, -651.826233
1733470033.587241, -3.045724, -19.246838, -1.636287, 3.735554, -1.609705, -1.811924, -21.827728, -76.276840, -650.879944
1733470033.597243, -3.827431, -18.546534, 0.549619, 3.289800, -2.065474, -2.163290, -21.346771, -76.746292, -650.118164
1733470033.607251, -4.002806, -17.140539, 0.868048, 2.621611, -2.068405, -2.406756, -21.346771, -76.746292, -650.118164
1733470033.617253, -3.516933, -15.470284, 0.692972, 1.866632, -1.742850, -2.525813, -20.973099, -76.865311, -649.068237
1733470033.627240, -2.800468, -13.567193, 0.410456, 1.102083, -1.235434, -2.534532, -20.393280, -76.797913, -648.938538
1733470033.637242, -2.102708, -11.482591, 0.005686, 0.398410, -0.645338, -2.468231, -19.559677, -76.770584, -648.375732
1733470033.647238, -1.408239, -9.536255, -0.403423, -0.199844, -0.032566, -2.373773, -18.761826, -76.073608, -648.880249
1733470033.657238, -0.772130, -7.759608, -0.775572, -0.663335, 0.522410, -2.282646, -17.986221, -75.565109, -648.945190
1733470033.667241, -0.139911, -6.103419, -0.955137, -0.990930, 0.973770, -2.191683, -16.711884, -75.090729, -649.281616
1733470033.677277, 0.333093, -4.817433, -1.035043, -1.194460, 1.305936, -2.138943, -15.972275, -74.055069, -649.533997
1733470033.687247, 0.730082, -3.692308, -1.063026, -1.299476, 1.518869, -2.146852, -14.722885, -73.198486, -649.676392
1733470033.697292, 1.126173, -2.592172, -0.986860, -1.323811, 1.628129, -2.181681, -13.573364, -72.143448, -649.526917
1733470033.706694, 1.573439, -1.619079, -0.901417, -1.282355, 1.636233, -2.229950, -12.360001, -71.376266, -649.705994
1733470033.717255, 2.054375, -0.670825, -0.821211, -1.189947, 1.551605, -2.256338, -10.907471, -70.144714, -649.744995
1733470033.727242, 2.693627, 0.223559, -0.797568, -1.057948, 1.392561, -2.244651, -10.057632, -69.224365, -649.588623
1733470033.737287, 3.536685, 1.094449, -0.853832, -0.872934, 1.143440, -2.172769, -9.207321, -68.377563, -649.113892
1733470033.747236, 4.709694, 1.839495, -1.068113, -0.612026, 0.813774, -2.045700, -8.372543, -67.443741, -649.228455
1733470033.757266, 6.012140, 2.088941, -1.578677, -0.280371, 0.555478, -1.901442, -8.237885, -67.009537, -649.169312
1733470033.767258, 7.658752, 2.382680, -1.718289, 0.092282, 0.403404, -1.722283, -7.953217, -66.491821, -648.948364
1733470033.777248, 8.951022, 2.970905, -1.331326, 0.418076, 0.288187, -1.495890, -7.627213, -66.057037, -648.998108
1733470033.787279, 9.644293, 3.508852, -1.024269, 0.865683, 0.311347, -1.199576, -7.464035, -65.783112, -648.245605
1733470033.797242, 10.685921, 4.045752, -0.620697, 1.035349, 0.300215, -1.046837, -7.426346, -65.839737, -648.257141
1733470033.807234, 12.967295, 4.540155, 0.277727, 1.122747, 0.084996, -0.853451, -7.762039, -65.821732, -647.586914
1733470033.817251, 18.871696, 4.851999, 2.582895, 1.065838, -0.329764, -0.584665, -7.827347, -66.034698, -647.485840
1733470033.827264, 21.758804, 4.661211, 3.243844, 0.946800, -0.947559, -0.182421, -8.237198, -66.252258, -647.484192
1733470033.837240, 24.017284, 3.652804, 2.468721, 0.921881, -1.401356, 0.203258, -9.118820, -66.705658, -646.929077
1733470033.847310, 25.979781, 2.532916, 1.485452, 0.921881, -1.401356, 0.203258, -10.441483, -67.052505, -647.949219
1733470033.856781, 25.979781, 2.532916, 1.485452, 0.968821, -1.531062, 0.500268, -10.970459, -67.530746, -648.146851
1733470033.867246, 30.815470, 4.904522, 2.596063, 0.732700, -1.885137, 1.641829, -11.313660, -68.153503, -648.244202
1733470033.877244, 32.044893, 6.516269, 2.316689, 0.481078, -2.248016, 2.798909, -12.018158, -68.751205, -648.506348
1733470033.887229, 30.920666, 7.622091, 0.830040, 0.286831, -2.373791, 4.331075, -12.617966, -69.554565, -649.124390
1733470033.897240, 26.297462, 8.242488, -0.519542, 0.061141, -2.013542, 6.015564, -13.650284, -70.777954, -649.207275
1733470033.907246, 17.473183, 7.832331, -0.281468, -0.460698, -1.036986, 7.457746, -15.344650, -72.282852, -649.307312
1733470033.917238, 7.364415, 5.103690, 1.778742, -1.581985, 0.177088, 8.272398, -17.596008, -73.596115, -650.138672
1733470033.927229, -2.237531, 0.364667, 3.741688, -3.172343, 1.189519, 8.251262, -20.521591, -74.291702, -650.813843
1733470033.936380, -2.237531, 0.364667, 3.741688, -3.172343, 1.189519, 8.251262, -22.781342, -74.668655, -652.127197
1733470033.947231, -15.332767, -7.890391, -0.262913, -5.306277, 2.465410, 6.091797, -24.500900, -73.914093, -653.940186
1733470033.957230, -16.287305, -10.558878, -4.219032, -5.149100, 1.927868, 4.630603, -25.613617, -72.654678, -655.863586
1733470033.967227, -15.080627, -15.509040, -10.796952, -4.022643, 1.165670, 3.122392, -26.973923, -71.262512, -657.175415
1733470033.977230, -12.678196, -20.418949, -16.818070, -2.181898, 0.852587, 1.640922, -27.441666, -70.596420, -658.512878
1733470033.987226, -8.598626, -22.475718, -18.700062, -0.239042, 0.821708, 0.267626, -28.016464, -70.039902, -658.506592
1733470033.997242, -3.851223, -21.312435, -16.616957, 1.438012, 0.667079, -0.685959, -27.527283, -70.220215, -658.475037
1733470034.007249, -0.830189, -17.899800, -12.666075, 2.743827, 0.580278, -1.116964, -26.464340, -71.013092, -657.583618
1733470034.017235, 0.192135, -14.883555, -7.110180, 3.464987, 0.473523, -1.196159, -25.325439, -71.985321, -656.140869
1733470034.027232, 0.309301, -13.175591, -1.282095, 3.452705, 0.274909, -1.014593, -24.237366, -73.027039, -654.569946
1733470034.037243, -0.606481, -12.489652, 3.442413, 2.701281, 0.062570, -0.742558, -23.450027, -74.096313, -653.110168
1733470034.047229, -3.054103, -12.253225, 6.309320, 1.431947, -0.136707, -0.618717, -23.196182, -74.600586, -652.570129
1733470034.057232, -5.682787, -12.352285, 6.120328, 0.044507, -0.092939, -0.786327, -23.051804, -74.727310, -652.620361
1733470034.067236, -6.913407, -12.236765, 3.509900, -1.149420, 0.200962, -1.206493, -22.936020, -74.439575, -652.750732
1733470034.077229, -6.177040, -11.943774, -0.156970, -1.980754, 0.613446, -1.696233, -22.485291, -73.612061, -653.229065
1733470034.087226, -4.467281, -10.969633, -3.380014, -2.396915, 0.951117, -2.134226, -21.540390, -72.712341, -653.683411
1733470034.097229, -2.772186, -9.276783, -5.914875, -2.387463, 1.159421, -2.480198, -20.512817, -71.438736, -654.782959
1733470034.107227, -1.221492, -7.451354, -7.619846, -2.004364, 1.238976, -2.689539, -19.240631, -70.276947, -655.475952
1733470034.117227, -0.053570, -5.942409, -8.576030, -1.321376, 1.226636, -2.758163, -17.813354, -68.993622, -655.160278
1733470034.127224, 0.398485, -4.597316, -8.687660, -0.463265, 1.185794, -2.740364, -16.602737, -68.122299, -655.161743
1733470034.137224, 0.430058, -3.378967, -7.706935, 0.366103, 1.078617, -2.735044, -15.447098, -67.578857, -654.728821
1733470034.147227, 0.527024, -2.461838, -5.954080, 1.014853, 0.852366, -2.768940, -14.424286, -67.068146, -654.192810
1733470034.157232, 0.788740, -1.816301, -4.235941, 1.425124, 0.555874, -2.840807, -13.391693, -66.917999, -654.237000
1733470034.166490, 1.224185, -1.305738, -2.982876, 1.626585, 0.238055, -2.935682, -12.538376, -66.814468, -653.210938
1733470034.177224, 1.849072, -0.792181, -2.256834, 1.665982, -0.036132, -3.023931, -11.665710, -66.575760, -652.907227
1733470034.187225, 2.411709, -0.130634, -2.013224, 1.604275, -0.223673, -3.073960, -10.869659, -66.308350, -652.336304
1733470034.197224, 2.950854, 0.576853, -2.155081, 1.515384, -0.256250, -3.066414, -10.358276, -66.122116, -651.984924
1733470034.207230, 3.620781, 1.115848, -2.484583, 1.451668, -0.082518, -2.992395, -9.324066, -65.568680, -651.757568
1733470034.217228, 4.666898, 1.559972, -2.670433, 1.415639, 0.285475, -2.854467, -8.742035, -65.099304, -651.285583
1733470034.227227, 6.159233, 2.147749, -2.622848, 1.389739, 0.758008, -2.650188, -8.258179, -64.777954, -650.283325
1733470034.237227, 8.409484, 2.930952, -2.182315, 1.387344, 1.247540, -2.382174, -7.675949, -64.445908, -649.858704
1733470034.247219, 11.262774, 3.636942, -1.079635, 1.394349, 1.658362, -1.968106, -6.732483, -64.386505, -649.519775
1733470034.257234, 14.325855, 4.330812, 0.222062, 1.303509, 2.055618, -1.378329, -6.279526, -64.349701, -648.911194
1733470034.267245, 17.277756, 5.481076, 1.823185, 1.004965, 2.421816, -0.719521, -5.911865, -64.398392, -647.636963
1733470034.277229, 19.704579, 6.780229, 3.588759, 0.552373, 2.660354, -0.157944, -5.887390, -64.777557, -646.230591
1733470034.287228, 22.290466, 7.135020, 4.549432, 0.275374, 2.729725, 0.109131, -6.417435, -65.133270, -645.993408
1733470034.297232, 27.188105, 6.896648, 5.592705, 0.480743, 2.335652, 0.448188, -6.121384, -65.520508, -645.169800
1733470034.307229, 33.171514, 6.605902, 7.533056, 0.974223, 1.184600, 1.374329, -5.964066, -66.223389, -644.016235
1733470034.317227, 36.245370, 5.866842, 9.131934, 1.300092, -0.121612, 2.611965, -6.456345, -67.284134, -643.729248
1733470034.327230, 36.337696, 5.102942, 9.746346, 1.099418, -0.938463, 3.938433, -7.170761, -68.711380, -642.776611
1733470034.337222, 34.059015, 4.344129, 8.925135, 0.411593, -1.000587, 5.215634, -8.742844, -70.501831, -643.603394
1733470034.347223, 29.805267, 3.093458, 7.385364, -0.451464, -0.452199, 6.276659, -10.047256, -72.097244, -643.683899
1733470034.357229, 24.648755, 2.763807, 6.309320, -1.334947, 0.342701, 7.204998, -11.760651, -74.018967, -644.125671
1733470034.367223, 18.719664, 2.740164, 5.517587, -2.256408, 1.218733, 7.944642, -13.269455, -75.376221, -644.358215
1733470034.377215, 10.177751, 1.787720, 5.392490, -3.342845, 2.147650, 8.373486, -15.671310, -76.468918, -645.170898
1733470034.387216, -0.020800, -3.380164, 6.376208, -4.719235, 2.764784, 7.770700, -18.408936, -77.070099, -646.623047
1733470034.397283, -7.697358, -9.373898, 6.440552, -6.050844, 2.466978, 6.077351, -20.263519, -76.767761, -648.763123
1733470034.407212, -11.552173, -11.465832, 3.133711, -6.541032, 0.955105, 4.025585, -21.119690, -75.623245, -650.782959
1733470034.417210, -11.568034, -13.365631, -5.287744, -5.701154, -0.779470, 2.141305, -21.881546, -74.175308, -653.166138
1733470034.427259, -8.025364, -13.824869, -14.755914, -3.659001, -1.690224, 0.894355, -21.745483, -72.863327, -653.622559
1733470034.437214, -3.592051, -13.242479, -20.027048, -1.191015, -1.953032, 0.494459, -22.092636, -72.195282, -654.469055
1733470034.447218, 0.775123, -15.777639, -20.916494, 1.057303, -1.742972, 0.744903, -22.602737, -72.742126, -654.364990
1733470034.457212, 0.931644, -17.633744, -16.925360, 2.579288, -1.315613, 1.126828, -23.473938, -73.582642, -653.639404
1733470034.467223, -3.508703, -17.821689, -10.125677, 3.130870, -0.902709, 1.171698, -24.364853, -75.136688, -652.826843
1733470034.477211, -8.072051, -18.676868, -3.820547, 2.847835, -0.724717, 0.723186, -24.771774, -76.289078, -651.748596
1733470034.487234, -11.176433, -18.111537, 0.680552, 2.070203, -0.950246, -0.054561, -24.685150, -76.986893, -651.329834
1733470034.497240, -12.531850, -16.039804, 2.091186, 1.166231, -1.347133, -0.826693, -24.528732, -77.060349, -650.736511
1733470034.507235, -12.312332, -14.548965, 0.323666, 0.377567, -1.547858, -1.446461, -24.254608, -77.142776, -650.956909
1733470034.517213, -11.801170, -13.227515, -2.763208, -0.178757, -1.349840, -1.923536, -24.021820, -76.856583, -651.270081
1733470034.527220, -11.146655, -11.292102, -5.017648, -0.526555, -0.895029, -2.323429, -23.502701, -76.662750, -650.969666
1733470034.537219, -10.208128, -9.133430, -6.346280, -0.685941, -0.426593, -2.635482, -22.631531, -76.056381, -651.802307
1733470034.547270, -9.378686, -7.411999, -7.292289, -0.652307, -0.021936, -2.919878, -21.596008, -75.364563, -652.280273
1733470034.557221, -8.419958, -5.925499, -7.981371, -0.409503, 0.350439, -3.228868, -20.683563, -74.940735, -651.959351
1733470034.567212, -7.042843, -4.346523, -8.077288, 0.019293, 0.657401, -3.516147, -19.402237, -74.108948, -651.713989
1733470034.577281, -5.478831, -2.842067, -7.491158, 0.542005, 0.831374, -3.736153, -17.754471, -73.676804, -651.395752
1733470034.587212, -4.063259, -1.474978, -6.372168, 1.059394, 0.836178, -3.898745, -16.218384, -73.357498, -650.881775
1733470034.597213, -2.751237, -0.439037, -5.207239, 1.502864, 0.751120, -4.050842, -14.817856, -73.042526, -650.536743
1733470034.607209, -1.469441, 0.468515, -3.986346, 1.867170, 0.574340, -4.192683, -13.410812, -72.337860, -649.268066
1733470034.617268, -0.143951, 1.330877, -2.880823, 2.151875, 0.341888, -4.300549, -12.130478, -72.148209, -648.471313
1733470034.627218, 1.244087, 2.136077, -2.020108, 2.344949, 0.095960, -4.370957, -10.709351, -72.026154, -647.456299
1733470034.637207, 2.915539, 2.995146, -1.104774, 2.474396, -0.215830, -4.373796, -9.439941, -71.293472, -647.218140
1733470034.647272, 4.983531, 3.943549, -0.211139, 2.578915, -0.670031, -4.240411, -8.430527, -70.943130, -646.368896
1733470034.657209, 7.102250, 4.868310, 0.495450, 2.680502, -1.242120, -3.929992, -7.605453, -70.413345, -645.928589
1733470034.667223, 8.915857, 5.617396, 0.994192, 2.782702, -1.845931, -3.455971, -7.394821, -70.213913, -645.573120
1733470034.677211, 10.316765, 5.870433, 1.002273, 2.846271, -2.224980, -2.933599, -7.334198, -70.141403, -645.317444
1733470034.687283, 11.541997, 6.070798, 0.875979, 2.775033, -2.166097, -2.415871, -7.451263, -70.173431, -645.604248
1733470034.697212, 13.153145, 6.611738, 1.622820, 2.519604, -1.911952, -1.816541, -7.670959, -70.285629, -645.275024
1733470034.707225, 14.893880, 7.123199, 2.181567, 2.040372, -1.501162, -1.128685, -8.507965, -70.421219, -644.898560
1733470034.717218, 16.440384, 7.078308, 2.355146, 1.369552, -0.839556, -0.512332, -9.148682, -70.664673, -644.437195
1733470034.727232, 18.617013, 5.783643, 2.546383, 0.562515, -0.053053, -0.038718, -10.331009, -70.793640, -644.092712
1733470034.737213, 21.211430, 4.103213, 2.753182, -0.193549, 0.552396, 0.367656, -10.118744, -70.970490, -644.819580
1733470034.747210, 23.967605, 3.087473, 2.509273, -0.695695, 0.877697, 0.925805, -10.435928, -71.165070, -645.121338
1733470034.757212, 26.083929, 1.994819, 2.442535, -0.947755, 0.767022, 1.667173, -11.049438, -71.711670, -645.244507
1733470034.767226, 26.809821, 0.862212, 1.881244, -0.997240, 0.424365, 2.396374, -11.879578, -72.161682, -645.751038
1733470034.777223, 26.600927, -0.061351, 0.572663, -0.882383, 0.189434, 3.076719, -12.844360, -72.876678, -645.996399
1733470034.787207, 26.164883, -1.366191, -0.755520, -0.706121, 0.174261, 3.747324, -14.227554, -73.736771, -645.895020
1733470034.797214, 25.511715, -2.531569, -2.237381, -0.483251, 0.528868, 4.401691, -15.186142, -74.745193, -645.561401
1733470034.807212, 24.472033, -3.066972, -2.824559, -0.208883, 1.116210, 5.153859, -16.218796, -76.053848, -645.309143
1733470034.817216, 22.194249, -3.591751, -2.156727, 0.001749, 1.842975, 5.964510, -17.364120, -77.643051, -644.963135
1733470034.827219, 18.498201, -4.172196, -0.420482, -0.071948, 2.635633, 6.675655, -18.712860, -79.140305, -643.756104
1733470034.837213, 12.997971, -5.005527, 1.760187, -0.585100, 3.379037, 7.121263, -20.729935, -80.100754, -644.370667
1733470034.847249, 6.671144, -7.309647, 3.681085, -1.503944, 3.944530, 7.019544, -22.239304, -80.897430, -644.208557
1733470034.857203, 0.844255, -9.978135, 4.381090, -2.567005, 4.124337, 6.327424, -23.832428, -81.355896, -645.027405
1733470034.867200, -3.440617, -13.749152, 2.683451, -3.275014, 4.012840, 5.096975, -24.755020, -81.294678, -646.164307
1733470034.877200, -4.750695, -17.790115, -0.043245, -3.219429, 3.384141, 3.653563, -24.938522, -80.856964, -647.085083
1733470034.887200, -3.037494, -18.801067, -2.834735, -2.501039, 2.438854, 2.545016, -24.779678, -80.553421, -647.287476
1733470034.897201, -0.268001, -18.461988, -5.796362, -1.352030, 1.653525, 1.874466, -24.623672, -80.650925, -647.050049
1733470034.907202, 1.251419, -17.086071, -6.834997, -0.064862, 1.078868, 1.573832, -24.491333, -80.886307, -646.554138
1733470034.917217, 1.069310, -14.664784, -5.160402, 0.992929, 0.611989, 1.502135, -24.712555, -81.309174, -645.481812
1733470034.927204, -0.210690, -13.247567, -2.177077, 1.540870, 0.246843, 1.473345, -25.099670, -82.204544, -644.379150
1733470034.937199, -2.413206, -12.786982, 0.712125, 1.540081, -0.177857, 1.301582, -25.833328, -82.625336, -644.419800
1733470034.947198, -5.137957, -12.547113, 2.770840, 1.142073, -0.790524, 0.867829, -26.000626, -82.890106, -643.891479
1733470034.957208, -7.335235, -11.999739, 2.925864, 0.586658, -1.483795, 0.254814, -26.017700, -83.064621, -643.919617
1733470034.967202, -8.614786, -10.798598, 1.174206, 0.107778, -2.095585, -0.349701, -26.114441, -82.856079, -644.219299
1733470034.977204, -9.502437, -9.472360, -0.716016, -0.181023, -2.630142, -0.880066, -26.210571, -82.635345, -644.734680
1733470034.987204, -10.634296, -8.198046, -1.939453, -0.369740, -3.104390, -1.360852, -26.223709, -82.425232, -645.271240
1733470034.997204, -12.104485, -7.117662, -2.823362, -0.573025, -3.418276, -1.864743, -26.304138, -81.887665, -645.608032
1733470035.007203, -13.030592, -6.261735, -4.006397, -0.812599, -3.331107, -2.385283, -25.893448, -81.446426, -646.539062
1733470035.017200, -13.235596, -5.356428, -5.103839, -1.079288, -2.752440, -2.886412, -25.250031, -80.575302, -647.203552
1733470035.027196, -12.378471, -4.249558, -5.452345, -1.332348, -1.868377, -3.309853, -24.174622, -79.800522, -647.320312
1733470035.037206, -10.410587, -2.505233, -5.308394, -1.548852, -0.960498, -3.538633, -23.131531, -78.866043, -648.640747
1733470035.047195, -8.099584, -1.387141, -5.222502, -1.657249, -0.242759, -3.650001, -22.113998, -77.821487, -649.249207
1733470035.057194, -5.749376, -0.796820, -5.254524, -1.586056, 0.225582, -3.717685, -20.789352, -76.977966, -650.170410
1733470035.067212, -3.562722, 0.011971, -5.108628, -1.325234, 0.383524, -3.732452, -19.683273, -75.912750, -650.529541
1733470035.077194, -1.660828, 0.580893, -5.001188, -0.881973, 0.267533, -3.721823, -18.382706, -75.011124, -650.629883
1733470035.087195, 0.107889, 0.723498, -5.366753, -0.307349, 0.107749, -3.661220, -17.563217, -74.354401, -650.623657
1733470035.097205, 2.009783, 0.775871, -5.393987, 0.321266, -0.027373, -3.516396, -16.529846, -73.650620, -649.907227
1733470035.107206, 3.789273, 0.962768, -4.882825, 0.925146, -0.165032, -3.269000, -16.529846, -73.650620, -649.907227
1733470035.117214, 5.727978, 1.309179, -3.934422, 1.461397, -0.344647, -2.886918, -15.491684, -73.418976, -649.822754
1733470035.127193, 7.647978, 1.457919, -2.984971, 1.859794, -0.414168, -2.343765, -15.280121, -73.405472, -649.326355
1733470035.137186, 9.345467, 0.976984, -1.957858, 2.064061, -0.358753, -1.775409, -14.816040, -73.721451, -648.210083
1733470035.147242, 10.711808, 0.153229, -0.516100, 2.071704, -0.262252, -1.244544, -15.050064, -73.975327, -648.097717
1733470035.157193, 11.945869, -0.604985, 0.658106, 1.836099, -0.101294, -0.754590, -14.985931, -74.242218, -647.675110
1733470035.167204, 12.717999, -1.515081, 1.791312, 1.424940, 0.060349, -0.393986, -15.507797, -74.561432, -647.147339
1733470035.177205, 13.428778, -2.744204, 2.233641, 0.981676, 0.387519, -0.217155, -15.795883, -74.904343, -646.945007
1733470035.187252, 15.180436, -3.832818, 2.815282, 0.554849, 0.766175, -0.089940, -15.914612, -75.006042, -646.674805
1733470035.197205, 17.446248, -4.622754, 4.073584, 0.133452, 0.865615, 0.103251, -15.750427, -75.274460, -646.797974
1733470035.207194, 19.424008, -5.761497, 5.019593, -0.243111, 0.629721, 0.334918, -16.232574, -75.305130, -646.556519
1733470035.217190, 20.725556, -7.822156, 5.259163, -0.548660, 0.228846, 0.433315, -17.254822, -75.414078, -647.021606
1733470035.227196, 21.946001, -10.181343, 4.905270, -0.807081, -0.192551, 0.366724, -17.670120, -75.369904, -647.634277
1733470035.237190, 23.700053, -12.500426, 4.063409, -0.946267, -0.679601, 0.299036, -18.089996, -75.288010, -647.612000
1733470035.247204, 25.562891, -14.141053, 2.655619, -0.874190, -1.014608, 0.275517, -18.631683, -75.007965, -648.637512
1733470035.257203, 27.538856, -13.770700, 1.827524, -0.671660, -1.055363, 0.376886, -19.137939, -74.849518, -648.749695
1733470035.267197, 29.368175, -11.376049, 2.917484, -0.543105, -1.220248, 0.781067, -19.086670, -74.754120, -649.222839
1733470035.277196, 29.827413, -7.846697, 4.233547, -0.569643, -1.590289, 1.571892, -19.212006, -74.722397, -649.399719
1733470035.287195, 27.262325, -4.907216, 4.807258, -0.793678, -1.787026, 2.572553, -20.176178, -74.709946, -649.802734
1733470035.297198, 21.835119, -3.654599, 5.062240, -1.405589, -1.701331, 3.413473, -20.684464, -74.906204, -650.702148
1733470035.307196, 15.314810, -1.785476, 3.893870, -2.330764, -1.279866, 4.075698, -21.770340, -74.806778, -651.554688
1733470035.317254, 8.179491, -0.932841, 1.005864, -3.293621, -0.452213, 4.350282, -23.558624, -74.276276, -652.860718
1733470035.327188, 2.576909, -3.828029, -2.600702, -3.964667, 0.391051, 3.958735, -25.214325, -73.767166, -654.202026
1733470035.337187, 0.165649, -7.778612, -6.644359, -4.024971, 0.844019, 3.162629, -26.073151, -72.927948, -655.336060
1733470035.347188, -0.624887, -9.418939, -10.679337, -3.395540, 1.022326, 2.320625, -26.550766, -71.749054, -656.608887
1733470035.357237, -0.344765, -10.386196, -13.623905, -2.116769, 1.089177, 1.564027, -26.342804, -71.300858, -657.213135
1733470035.367194, 0.543334, -10.747272, -13.079973, -0.522693, 0.726399, 1.068703, -25.891113, -71.371902, -657.838135
1733470035.377252, 0.722151, -10.693851, -10.162937, 0.856671, -0.028861, 0.704251, -25.905762, -71.739975, -657.216125
1733470035.387186, -0.137966, -9.919626, -7.260865, 1.801001, -0.641241, 0.410855, -25.709824, -72.439651, -656.499817
1733470035.397180, -1.322946, -8.519018, -4.479851, 2.278170, -0.949880, 0.223371, -25.612396, -73.264969, -655.445007
1733470035.407187, -2.319084, -7.142951, -1.709310, 2.309067, -1.095218, 0.148330, -25.538635, -73.977783, -654.847290
1733470035.417181, -3.311331, -5.791424, 0.382923, 1.990407, -1.101995, 0.198167, -25.728653, -74.724564, -653.915283
1733470035.427181, -4.753538, -4.726603, 1.498471, 1.428389, -1.005786, 0.330917, -25.615906, -75.287766, -653.375122
1733470035.437182, -6.580763, -4.292504, 1.523610, 0.756359, -0.842122, 0.441558, -26.039612, -75.831024, -652.923767
1733470035.447237, -8.560318, -4.527735, 0.130783, 0.147508, -0.521027, 0.397872, -26.302063, -75.831085, -653.534058
1733470035.457206, -10.035296, -4.682610, -1.592743, -0.238916, -0.182529, 0.181739, -26.800369, -75.798172, -653.452148
1733470035.467244, -10.625317, -4.402039, -3.075352, -0.367738, 0.014984, -0.129322, -26.841736, -75.686813, -653.801392
1733470035.477182, -10.582072, -4.071639, -4.620211, -0.279737, 0.162768, -0.502648, -26.629013, -75.731705, -654.019775
1733470035.487180, -9.739313, -3.533542, -5.926996, 0.000437, 0.314467, -0.904074, -26.433136, -75.565262, -653.775513
1733470035.497197, -8.036886, -2.595015, -6.262783, 0.430442, 0.340057, -1.221453, -25.861313, -75.736816, -653.798218
1733470035.507186, -5.805640, -1.649306, -5.794567, 0.881023, 0.201688, -1.364034, -25.281326, -75.823532, -653.400635
1733470035.517195, -3.675399, -1.093103, -5.421819, 1.230379, 0.101845, -1.341546, -25.036011, -75.936264, -652.823975
1733470035.527193, -1.923442, -0.796072, -4.948067, 1.431526, 0.184236, -1.228251, -24.680969, -76.248856, -652.231689
1733470035.537182, -0.551115, -0.783203, -4.009240, 1.512360, 0.317851, -1.090555, -24.346237, -76.682480, -651.606750
