SamplingTime, AccelerationX, AccelerationY, AccelerationZ, GyroX, GyroY, GyroZ, MagneticFieldX, MagneticFieldY, MagneticFieldZ
1733470072.633931, 0.290746, -10.765228, -0.075417, 0.183483, -0.492827, -0.234099, -9.136734, -78.658188, -632.425354
1733470072.643915, 0.484227, -10.733056, 0.061651, 0.225424, -0.640896, -0.248384, -8.935394, -78.468903, -632.090942
1733470072.653003, 0.674716, -10.826131, -0.122104, 0.218308, -0.623705, -0.184017, -8.850616, -78.443771, -632.287964
1733470072.663960, 0.893935, -10.790817, -0.380379, 0.165523, -0.436102, -0.055636, -9.133408, -78.538498, -631.887024
1733470072.673943, 0.755071, -10.980407, -0.562937, 0.070914, -0.263229, 0.023247, -9.097900, -78.761734, -632.812439
1733470072.683964, -0.263811, -11.603349, -0.908450, 0.029270, -0.166060, -0.003297, -9.041183, -78.677887, -632.841431
1733470072.693945, -0.982820, -11.889007, -1.887828, 0.090077, -0.040022, -0.119510, -9.003647, -78.757919, -631.951538
1733470072.703954, -1.952172, -12.557139, -2.110189, 0.318833, -0.171696, -0.328578, -9.120377, -78.889893, -632.876221
1733470072.713968, -2.982427, -13.766061, -1.714997, 0.645525, -0.568099, -0.736730, -9.420380, -78.878311, -632.014893
1733470072.723947, -3.448099, -13.812598, -1.114501, 0.942940, -1.184929, -1.146071, -8.801712, -78.424316, -632.439453
1733470072.733794, -2.784905, -13.461997, -0.889596, 1.205170, -1.807091, -1.502082, -8.494385, -78.104614, -632.731628
1733470072.743981, -1.940201, -13.220183, -1.228525, 1.448791, -2.388491, -1.745956, -8.212723, -77.985504, -631.967896
1733470072.753928, -0.665438, -12.566416, -2.026841, 1.698504, -2.787610, -1.851671, -7.443634, -77.624649, -632.933777
1733470072.763942, 0.413000, -11.594071, -3.105130, 1.980437, -2.969097, -1.792643, -7.242584, -77.615341, -632.572144
1733470072.773933, 1.003470, -10.903045, -3.874566, 2.318373, -2.923953, -1.678391, -7.307861, -77.364655, -632.636780
1733470072.783932, 1.305139, -10.585963, -3.833865, 2.617154, -2.715780, -1.588606, -7.078522, -77.432129, -632.840088
1733470072.793925, 1.523610, -10.192266, -2.667889, 2.771459, -2.524737, -1.508530, -7.135834, -77.522964, -632.012817
1733470072.803442, 1.530493, -10.471490, -0.942867, 2.770602, -2.499808, -1.514188, -7.133530, -77.438339, -632.676025
1733470072.813933, 1.012298, -10.947038, 0.391751, 2.686650, -2.644053, -1.647646, -6.790833, -77.562744, -631.876709
1733470072.823922, 0.429610, -10.997017, 0.817919, 2.603275, -2.843292, -1.864636, -6.709396, -77.246857, -631.766113
1733470072.833932, 0.015862, -11.286117, 0.532710, 2.597713, -3.028905, -2.175266, -6.141464, -77.118988, -631.361084
1733470072.843932, -0.116867, -11.253646, 0.345813, 2.694808, -3.343251, -2.506601, -5.573441, -76.714584, -631.770630
1733470072.853782, 0.386813, -10.919206, -0.098910, 2.912923, -3.757340, -2.766200, -5.449783, -76.283234, -631.830383
1733470072.863931, 1.265186, -10.677092, -0.364667, 3.281189, -4.312109, -2.922908, -4.631805, -75.764786, -632.311462
1733470072.873933, 1.927183, -10.400711, -1.452532, 3.484746, -4.406319, -2.994595, -4.352310, -75.540527, -632.084900
1733470072.883918, 2.508674, -9.738565, -1.425897, 3.510970, -4.194800, -3.015255, -3.873810, -75.044769, -632.684875
1733470072.893930, 3.076848, -9.184307, -0.827795, 3.355166, -3.806344, -2.975154, -3.287918, -74.620193, -631.820007
1733470072.903928, 3.730316, -8.573187, -0.080954, 3.032309, -3.318349, -2.834146, -2.679779, -73.898865, -632.242798
1733470072.913921, 4.401740, -7.589919, 0.740108, 2.605779, -2.823637, -2.634227, -2.647720, -73.639069, -632.070190
1733470072.923926, 4.695029, -7.356634, 1.297508, 2.223243, -2.524685, -2.526172, -2.549423, -73.310165, -632.146729
1733470072.933962, 4.294150, -7.917625, 1.732504, 1.991175, -2.519120, -2.633523, -2.291656, -72.533417, -633.158325
1733470072.943930, 3.977966, -7.413645, 1.517625, 1.913136, -2.657641, -2.826125, -1.872253, -71.925964, -632.647400
1733470072.953943, 3.948787, -6.792799, 1.513734, 1.931503, -2.940120, -3.045949, -1.121902, -71.176239, -634.163330
1733470072.963926, 4.332906, -6.121525, 1.484405, 1.969847, -3.331086, -3.256523, -0.466217, -70.164429, -634.043579
1733470072.973516, 4.529081, -5.478682, 1.331026, 1.967626, -3.654125, -3.421667, -0.231400, -69.306793, -634.750977
1733470072.983930, 4.735132, -4.931158, 0.691924, 1.842685, -3.641668, -3.582572, 0.161896, -68.052902, -636.057251
1733470072.993927, 5.191976, -4.217835, 0.326958, 1.692223, -3.478616, -3.721388, 0.979187, -66.895340, -636.636658
1733470073.003933, 5.690868, -2.988562, 0.314688, 1.610384, -3.360512, -3.677643, 1.247528, -65.742050, -637.900818
1733470073.013813, 6.213103, -1.702277, 0.135272, 1.546878, -3.202719, -3.517447, 1.450912, -64.727386, -638.029419
1733470073.023929, 6.354062, -0.983867, -0.998382, 1.302854, -2.635964, -3.312749, 1.052353, -63.705093, -638.329163
1733470073.033914, 7.135918, -0.970549, -0.619649, 1.086776, -2.395821, -3.223197, 1.579575, -62.696823, -640.097046
1733470073.043918, 7.261165, -0.518494, 0.232537, 0.924479, -2.406082, -3.107146, 1.692169, -61.797577, -640.397339
1733470073.053929, 6.773346, -0.058059, 0.482282, 0.811138, -2.655978, -3.022272, 1.712509, -60.601273, -642.149231
1733470073.063922, 6.120477, 0.275932, 0.233584, 0.715894, -2.926978, -2.987590, 1.701736, -59.474091, -643.073853
1733470073.073921, 5.346252, 0.735768, -0.480636, 0.624884, -3.057373, -2.965067, 1.433868, -58.514893, -643.462646
1733470073.083916, 4.825813, 1.285387, -1.562516, 0.531567, -2.925012, -2.949739, 1.369705, -57.454880, -644.883179
1733470073.093930, 4.407127, 2.016217, -2.472462, 0.439826, -2.582042, -2.890337, 1.225449, -56.507019, -645.396057
1733470073.103915, 4.101267, 2.769343, -2.725350, 0.348267, -2.160470, -2.799976, 0.989883, -55.264618, -647.023804
1733470073.113930, 4.253000, 3.213168, -2.851793, 0.222727, -1.655944, -2.734947, 0.856476, -54.279251, -646.750366
1733470073.123916, 4.683807, 3.673454, -2.823213, 0.050337, -1.212313, -2.641730, 0.749756, -53.467407, -646.915527
1733470073.133916, 4.991462, 3.874267, -2.567033, -0.085392, -1.020104, -2.582438, 0.856766, -52.383453, -648.208069
1733470073.143921, 5.205892, 3.945794, -2.497901, -0.078419, -1.081496, -2.533427, 0.794449, -51.469345, -647.832764
1733470073.153635, 5.404012, 4.308665, -2.695721, 0.002083, -1.209453, -2.527784, 0.433380, -50.402176, -648.874878
1733470073.163916, 5.164143, 3.812766, -3.673902, 0.130277, -1.277164, -2.596095, 0.177826, -49.569153, -649.681641
1733470073.173916, 5.415983, 3.839701, -3.593547, 0.302486, -1.388313, -2.671396, -0.041550, -48.546326, -649.582275
1733470073.183911, 5.933730, 4.053533, -3.851522, 0.455951, -1.390972, -2.699141, -0.524139, -47.652206, -650.399658
1733470073.193910, 6.599617, 3.760243, -4.026898, 0.561125, -1.308959, -2.666559, -1.279205, -46.906113, -650.163574
1733470073.203908, 7.575104, 3.131466, -3.511995, 0.634803, -1.275792, -2.669838, -1.871124, -46.107040, -651.246704
1733470073.213910, 9.245808, 3.035997, -3.306093, 0.615686, -1.215008, -2.653790, -2.244537, -45.201340, -652.139954
1733470073.223908, 11.717073, 3.176956, -3.639935, 0.458082, -1.055837, -2.513502, -3.283585, -44.550598, -652.143860
1733470073.233909, 14.055460, 3.408595, -3.791667, 0.189520, -0.793093, -2.384050, -4.161407, -43.637558, -652.848145
1733470073.243922, 16.633716, 4.371663, -3.685425, -0.209328, -0.381661, -2.417669, -5.025024, -42.465302, -652.901123
1733470073.253916, 21.291785, 6.057031, -3.397671, -0.776558, -0.038291, -2.486106, -5.514099, -41.332718, -652.646362
1733470073.263921, 27.341334, 7.830087, -3.661483, -1.264066, -0.057502, -2.383047, -5.465103, -40.064163, -652.871826
1733470073.273920, 32.962620, 9.968708, -6.046706, -1.248028, -0.261157, -1.861723, -5.730133, -39.206436, -653.173584
1733470073.283917, 37.616948, 12.146533, -9.017162, -0.747598, -0.406264, -0.834273, -5.575165, -39.344696, -652.443054
1733470073.293917, 39.994391, 13.331663, -10.515932, -0.134489, -0.327399, 0.345009, -5.515686, -39.492813, -652.955688
1733470073.303922, 39.566128, 14.665533, -9.474155, 0.306664, -0.256116, 1.518150, -5.396606, -40.459747, -652.865173
1733470073.313908, 37.274877, 15.477616, -7.634062, 0.515248, -0.022831, 2.655797, -5.508072, -41.759750, -652.840576
1733470073.323908, 33.174208, 15.007604, -6.060024, 0.416849, 0.557103, 3.422177, -5.508072, -41.759750, -652.840576
1733470073.333902, 29.132197, 14.553005, -4.036175, 0.067171, 1.189515, 3.779342, -5.403687, -44.905716, -652.130859
1733470073.343919, 26.230724, 14.217368, -2.610278, -0.217759, 1.627839, 3.715857, -5.403687, -44.905716, -652.130859
1733470073.353928, 25.577855, 14.432248, -2.028637, -0.216436, 1.707222, 3.469206, -4.567230, -46.526123, -651.891602
1733470073.363905, 27.183616, 15.508441, -1.902343, 0.125861, 1.444284, 3.389887, -3.858047, -47.798782, -651.088501
1733470073.373906, 29.952810, 16.813880, -1.537975, 0.686300, 0.828479, 3.794369, -2.857422, -49.441650, -649.935608
1733470073.383919, 32.213086, 18.390312, -0.452504, 1.296656, -0.079865, 4.848948, -2.058548, -51.344940, -650.204529
1733470073.393962, 31.495274, 19.714904, 1.721281, 1.775900, -1.147478, 6.469454, -1.535767, -54.075729, -649.951172
1733470073.403900, 26.178650, 20.768951, 3.830124, 1.911632, -1.861504, 8.324828, -1.766632, -57.384186, -650.426941
1733470073.413905, 16.630274, 21.795764, 5.277120, 1.639361, -1.814609, 10.120341, -3.053818, -61.226105, -650.722473
1733470073.423903, 4.090643, 21.818659, 7.395689, 0.752605, -1.215169, 11.340092, -5.406418, -65.032883, -650.034851
1733470073.433951, -8.286182, 21.694609, 9.542240, -0.727020, -0.378017, 11.856110, -7.881622, -68.318771, -650.849121
1733470073.443909, -20.546141, 20.325575, 9.734824, -2.450837, 0.663203, 11.466464, -11.605103, -70.495956, -651.397339
1733470073.453897, -30.142101, 15.153800, 7.994539, -4.111861, 1.559456, 9.977077, -14.670990, -71.374100, -653.018188
1733470073.463912, -32.601245, 11.165958, 3.606266, -4.995168, 1.957194, 8.176393, -15.987122, -71.371872, -653.834900
1733470073.473956, -31.951070, 10.723180, -0.659303, -4.751583, 1.313977, 6.626317, -17.391968, -70.969849, -655.318237
1733470073.483911, -33.238702, 8.163779, -2.968511, -3.644571, -0.580124, 5.107071, -19.262878, -70.577377, -656.447998
1733470073.493906, -34.989761, 4.057873, -7.174973, -1.883201, -2.640010, 3.631518, -20.173080, -70.032883, -657.450439
1733470073.503109, -35.829377, 0.418686, -12.167333, 0.049147, -3.717482, 2.468679, -21.770401, -70.151749, -657.549744
1733470073.513913, -36.564098, -2.946215, -13.879636, 1.339352, -3.477431, 1.491049, -23.744583, -70.499695, -656.907410
1733470073.523910, -37.642087, -5.314379, -11.877186, 1.577713, -2.299217, 0.395991, -24.682724, -71.249451, -656.971680
1733470073.533201, -37.116411, -6.099977, -10.300454, 1.151987, -0.331309, -0.725150, -25.303162, -71.819107, -656.994873
1733470073.543903, -34.217631, -4.759673, -8.489989, 0.578870, 1.694225, -1.791928, -24.913498, -71.865814, -655.917480
1733470073.553945, -28.773665, -2.659808, -5.555446, 0.220152, 2.848140, -2.613697, -23.069092, -71.824463, -656.428406
1733470073.563003, -23.044939, -0.461482, -3.605069, 0.301365, 3.096567, -3.053257, -21.380692, -71.736084, -656.069824
1733470073.573907, -18.987815, 0.083947, -2.949507, 0.681317, 2.834463, -3.360314, -19.614868, -71.562469, -655.705994
1733470073.583900, -16.138116, 0.016460, -2.735675, 1.168194, 2.396682, -3.679417, -18.413742, -71.466949, -655.008972
1733470073.593945, -13.820828, -0.163105, -2.433407, 1.710922, 1.919483, -4.054436, -16.929810, -71.347534, -654.089722
1733470073.603894, -11.659612, -0.619200, -1.724124, 2.215818, 1.345208, -4.453336, -15.467590, -71.161926, -653.217773
1733470073.613894, -9.092729, -0.858022, -1.151312, 2.582228, 0.790565, -4.793939, -14.141586, -70.625992, -651.984131
1733470073.623908, -6.086360, -1.273566, -1.434875, 2.799334, 0.467983, -5.051346, -13.130066, -70.562988, -650.763611
1733470073.633896, -2.500295, -1.838298, -1.840094, 2.933144, 0.287194, -5.232868, -11.881622, -70.214584, -650.487427
1733470073.643966, 1.558775, -2.878579, -1.971775, 3.040097, 0.065323, -5.360053, -11.675690, -69.942657, -650.166016
1733470073.653895, 5.506215, -4.445284, -2.596961, 3.127804, 0.048235, -5.634788, -11.335709, -69.206619, -649.508179
1733470073.663908, 10.259154, -4.396502, -2.914043, 3.193634, 0.405789, -6.106821, -11.060745, -68.442917, -648.352051
1733470073.673897, 18.051383, -2.962076, -1.723376, 3.093763, 0.985719, -6.566088, -10.922607, -67.108078, -647.144775
1733470073.683899, 29.339295, -0.650026, 1.468843, 2.667605, 1.381724, -6.818782, -9.893860, -65.748077, -646.062012
1733470073.693972, 43.416752, 3.689914, 5.325004, 2.128924, 1.394053, -6.454631, -8.860138, -64.316925, -645.338379
1733470073.703907, 59.156832, 9.296086, 10.845734, 1.292720, 0.508813, -4.969387, -9.096741, -62.743179, -643.772156
1733470073.713903, 70.462552, 11.804013, 13.491177, 0.200804, -0.546619, -3.157710, -8.649918, -61.561951, -644.535645
1733470073.723894, 76.237666, 14.169783, 10.643723, -0.773868, -0.944036, -1.015159, -8.140030, -60.950165, -644.821228
1733470073.733959, 76.318320, 16.653019, 6.680272, -1.588814, -0.671061, 1.342620, -8.094193, -60.981018, -645.589111
1733470073.743901, 70.700027, 16.869844, 4.126706, -2.325729, -0.096302, 3.438328, -7.943222, -61.569733, -645.597290
1733470073.753897, 61.708902, 15.768062, 1.806724, -2.770286, 0.470927, 5.124177, -8.680145, -63.075790, -646.753784
1733470073.763907, 51.211824, 13.173197, -0.056563, -2.836189, 0.828057, 6.153430, -9.781601, -64.468475, -646.940247
1733470073.773914, 41.842415, 7.878719, -0.845901, -2.453109, 0.664934, 6.415611, -10.563797, -66.172241, -647.933105
1733470073.783289, 36.078973, 4.287866, -1.071555, -1.580114, -0.129653, 6.488969, -10.514236, -67.847214, -647.588501
1733470073.793904, 31.647156, 3.570952, -0.577452, -0.439736, -1.227372, 6.861019, -11.317749, -69.672180, -647.579651
1733470073.803903, 23.926305, 3.874566, 1.435324, 0.426555, -2.002787, 7.402806, -12.013687, -71.901733, -646.870605
1733470073.813900, 11.653178, 3.003676, 4.579360, 0.598063, -2.101552, 7.747072, -13.513306, -73.860474, -647.466370
1733470073.823890, -1.360056, 1.158345, 8.032846, -0.001927, -1.760838, 7.604194, -15.416580, -75.440109, -647.987366
1733470073.833892, -12.012458, 0.905457, 10.231920, -1.133309, -1.311365, 7.084230, -17.158569, -76.326935, -648.625305
1733470073.843938, -20.954951, 2.656367, 9.648034, -2.300763, -0.854901, 6.344810, -18.750198, -76.499451, -649.636108
1733470073.853895, -28.642583, 3.601478, 7.494150, -3.171736, -0.779747, 5.320977, -19.746994, -76.202209, -650.529297
1733470073.863753, -33.443107, 4.116979, 2.647538, -3.404804, -1.017606, 4.359718, -21.098892, -75.382446, -651.838379
1733470073.873895, -37.189284, 2.163909, -4.497657, -2.943599, -1.070359, 3.436013, -22.540375, -74.586792, -653.070435
1733470073.883891, -40.312520, -1.721880, -10.764780, -2.282218, -0.340674, 2.241904, -23.330200, -74.009399, -654.012573
1733470073.893888, -41.256733, -4.616470, -13.448979, -1.758811, 0.700803, 0.737666, -23.464569, -73.592148, -654.540649
1733470073.903887, -39.498043, -5.733814, -14.150031, -1.117980, 1.660965, -0.873717, -22.583618, -73.426514, -654.310059
1733470073.913894, -34.885763, -4.097527, -13.345280, -0.173890, 2.171766, -2.263809, -21.643799, -73.333374, -654.776001
1733470073.923896, -28.626422, -1.907131, -10.984298, 0.919736, 2.163416, -3.371861, -19.545944, -73.356796, -653.994690
1733470073.933893, -22.672491, 0.831087, -7.241562, 1.923826, 1.618443, -4.101796, -17.813263, -73.473114, -653.244446
1733470073.943888, -18.356793, 2.852093, -3.568258, 2.628168, 0.838916, -4.523158, -16.371475, -73.730957, -652.243225
1733470073.953879, -15.304036, 3.758148, -1.323245, 2.983922, 0.191275, -4.770154, -15.116043, -73.839325, -650.946045
1733470073.963908, -12.773215, 4.326622, -0.331148, 3.101031, -0.252473, -4.924615, -13.765579, -73.751221, -649.949951
1733470073.973940, -10.556334, 4.421941, -0.208296, 3.146770, -0.509756, -4.999411, -12.467010, -73.564606, -649.292969
1733470073.983882, -8.711003, 4.481796, -0.678906, 3.136778, -0.469587, -4.986426, -11.589035, -73.516235, -648.367310
1733470073.993881, -7.190386, 4.322133, -0.757316, 3.058043, -0.259751, -5.057424, -10.500244, -72.970688, -647.818176
1733470074.003339, -4.976049, 4.261978, 0.090082, 2.960946, -0.185185, -5.133358, -8.959793, -72.807449, -646.187134
1733470074.013177, -1.659631, 4.355202, 1.313519, 2.827288, -0.310318, -5.080728, -8.149384, -71.924393, -645.928162
1733470074.023910, 2.036119, 4.123563, 2.425775, 2.608999, -0.669336, -4.864366, -7.125580, -70.966248, -645.879883
1733470074.033889, 5.681441, 4.142567, 2.437597, 2.355812, -0.888353, -4.479748, -6.684219, -70.416870, -645.507812
1733470074.043882, 9.562292, 4.675277, 2.093430, 2.001715, -0.827914, -3.863457, -6.322067, -69.758850, -645.348694
1733470074.053890, 13.259837, 4.800524, 2.466028, 1.475703, -0.650601, -3.128248, -6.477371, -69.052811, -644.989197
1733470074.063899, 16.567576, 4.370465, 2.338387, 0.936329, -0.419288, -2.327397, -6.906586, -68.635818, -644.777466
1733470074.073940, 19.372533, 4.099621, 1.470189, 0.432153, 0.115503, -1.636382, -7.455353, -68.140671, -644.591614
1733470074.083880, 22.587647, 4.452317, 1.565658, -0.148456, 0.713139, -1.056955, -8.307175, -67.989670, -644.804688
1733470074.093911, 25.924715, 5.044583, 1.445050, -0.630465, 1.321699, -0.620548, -8.717392, -67.663086, -644.654907
1733470074.103882, 29.343635, 5.968296, 1.529147, -0.984447, 1.889874, -0.434034, -8.947617, -67.394196, -643.888916
1733470074.113931, 34.877682, 6.006902, 3.170073, -1.186828, 1.756234, -0.180191, -9.592194, -67.290207, -644.651733
1733470074.123925, 41.167100, 4.656573, 3.948637, -1.101036, 0.963720, 0.289295, -10.378174, -67.336334, -645.140808
1733470074.134005, 45.649944, 2.912846, 3.088371, -0.818397, 0.046945, 0.823680, -11.012421, -67.403595, -645.470703
1733470074.143916, 48.647634, 0.513856, 2.203114, -0.492225, -0.827189, 1.344797, -11.670685, -67.702164, -645.860352
1733470074.153925, 50.915093, -1.932719, 1.327585, -0.253376, -1.578400, 2.067002, -11.960098, -68.441132, -646.445129
1733470074.163940, 50.637066, -3.458724, -0.485424, -0.173994, -1.766673, 2.991535, -13.278748, -69.330811, -646.713562
1733470074.173905, 47.031099, -3.740790, -1.659481, -0.381329, -1.234897, 3.846921, -14.204956, -70.420471, -647.377319
1733470074.183903, 42.201096, -4.100669, -0.606481, -0.958365, -0.521159, 4.498683, -15.087845, -71.332718, -648.042175
1733470074.193930, 36.987273, -4.804115, 0.834828, -1.695216, -0.011102, 4.910132, -16.316849, -72.004822, -648.329468
1733470074.203854, 31.819988, -5.406556, 1.036839, -2.323183, 0.182788, 5.072441, -17.227753, -72.524368, -648.578247
1733470074.213882, 22.607698, -5.517138, -1.246332, -2.636686, 0.032691, 5.084276, -18.142532, -73.015839, -650.150146
1733470074.223880, 17.368886, -4.834941, -2.570175, -2.299247, -0.954020, 4.898454, -19.326141, -73.299255, -650.782410
1733470074.233873, 12.559533, -6.370671, -4.257788, -1.914434, -1.316297, 4.722407, -20.297562, -73.371399, -651.742065
1733470074.243879, 7.300519, -6.765415, -6.407333, -1.569728, -1.020611, 4.582479, -20.999786, -73.619263, -652.034607
1733470074.253879, 1.570896, -5.986701, -6.142624, -1.481522, -0.358928, 4.405506, -21.798843, -73.831787, -652.726501
1733470074.263880, -4.362385, -5.065981, -3.116203, -1.683410, 0.096964, 4.110143, -22.437363, -73.893402, -652.886475
1733470074.273880, -10.085275, -3.654001, -0.587477, -1.930806, 0.112858, 3.686588, -22.468338, -73.980759, -653.407654
1733470074.283876, -15.283686, -1.261744, 0.495151, -2.005482, -0.410728, 3.266663, -22.873596, -73.547928, -653.750610
1733470074.293876, -19.965098, 0.536900, -0.132878, -1.832101, -1.283637, 2.890694, -23.354874, -73.248230, -654.269897
1733470074.303874, -24.766969, 0.336086, -3.096301, -1.426580, -1.813632, 2.521308, -24.203842, -72.987686, -653.787170
1733470074.313874, -29.239188, -1.032948, -6.573281, -1.100433, -1.537503, 2.022897, -25.048859, -72.347717, -655.402893
1733470074.323875, -31.929223, -3.325995, -9.632621, -0.952926, -0.438513, 1.376128, -25.918137, -72.161697, -656.029297
1733470074.333874, -32.849794, -4.502745, -11.064204, -0.899577, 0.966310, 0.566359, -26.392303, -72.107315, -656.039795
1733470074.343876, -31.809363, -4.334403, -10.611401, -0.752694, 1.944547, -0.385019, -25.950851, -72.082779, -656.423950
1733470074.353877, -28.997822, -3.515287, -10.321553, -0.181337, 2.346514, -1.424600, -25.360504, -72.009399, -656.606079
1733470074.363880, -24.348283, -2.105700, -10.094852, 0.873324, 2.240465, -2.342847, -24.247589, -72.231903, -656.003174
1733470074.373875, -18.611925, 0.293439, -7.613861, 2.097053, 1.441506, -2.906512, -22.974762, -72.738525, -655.427002
1733470074.383872, -14.331242, 2.521094, -4.120720, 3.090475, 0.240755, -3.156287, -21.634903, -73.449097, -654.151367
1733470074.393871, -12.238411, 3.235315, -2.306364, 3.684073, -0.645946, -3.311949, -21.062714, -74.156509, -652.954163
1733470074.403889, -11.002554, 3.548656, -1.670105, 3.915517, -0.975332, -3.462268, -20.271042, -75.186646, -651.506348
1733470074.413870, -9.597606, 4.057274, -1.035642, 3.929881, -0.965253, -3.582760, -19.567368, -75.795502, -650.739807
1733470074.423914, -7.802703, 4.217985, -0.039953, 3.812332, -0.900094, -3.663841, -19.228149, -76.363235, -649.508423
1733470074.433864, -5.927145, 3.832369, 0.899322, 3.556506, -0.774606, -3.749210, -18.210403, -76.835983, -648.538879
1733470074.443864, -3.069367, 3.758148, 1.759439, 3.167745, -0.670447, -3.683451, -17.220734, -77.141113, -647.097351
1733470074.453868, -0.036960, 3.371186, 2.288109, 2.757383, -0.647187, -3.519931, -16.767761, -77.278412, -646.344238
1733470074.463869, 2.817676, 2.519299, 1.879299, 2.407144, -0.487068, -3.290612, -16.118759, -77.215988, -645.966614
1733470074.473863, 5.947047, 1.836802, 1.850568, 2.070896, -0.346570, -2.949630, -15.639450, -77.102509, -645.454224
1733470074.483866, 8.960599, 1.360954, 1.779790, 1.747640, -0.211987, -2.478871, -15.126572, -76.943054, -644.925659
1733470074.493870, 11.475259, 0.581192, 1.143830, 1.444112, 0.115536, -1.984689, -15.138458, -76.847290, -644.508362
1733470074.503861, 13.637971, -0.527772, 1.180940, 1.200614, 0.364996, -1.563334, -15.024918, -76.926498, -643.903870
1733470074.513866, 15.895105, -1.598728, 0.970400, 1.003169, 0.603154, -1.238037, -15.442886, -76.878662, -643.925476
1733470074.523872, 17.951724, -2.753033, 0.142904, 0.847992, 1.053476, -1.139974, -15.790482, -76.892227, -643.544189
1733470074.533872, 21.312136, -3.589956, 0.415843, 0.683855, 1.537265, -1.247597, -16.404755, -76.726181, -643.109680
1733470074.543867, 26.597336, -4.372860, 2.014122, 0.447700, 1.785702, -1.474095, -16.581467, -76.612625, -642.577087
1733470074.553869, 34.539950, -5.244499, 2.994997, 0.320923, 1.721452, -1.468276, -16.286285, -76.475266, -642.157532
1733470074.563874, 43.475859, -6.414814, 3.502567, 0.446713, 1.198344, -1.020498, -16.065536, -76.155655, -642.070923
1733470074.573876, 49.624468, -7.197718, 3.912126, 0.742451, 0.442037, -0.167520, -16.112030, -76.410553, -641.674438
1733470074.583875, 51.508705, -7.920318, 5.048473, 0.921233, -0.244895, 0.784725, -16.349854, -76.723953, -641.267456
1733470074.593910, 49.771562, -8.788815, 6.934506, 0.696154, -0.637115, 1.619733, -17.073746, -77.271500, -641.179993
1733470074.603863, 46.304010, -9.593267, 7.284658, 0.111117, -0.429481, 2.260075, -17.345291, -77.852814, -640.782715
1733470074.613865, 42.834961, -10.178051, 6.856545, -0.693612, 0.135089, 2.719665, -18.122772, -78.492447, -641.680786
1733470074.623873, 39.881265, -9.423428, 6.380099, -1.422212, 0.572319, 3.037633, -18.887177, -79.023361, -641.968018
1733470074.633867, 38.355111, -7.870339, 5.223549, -1.806206, 0.540401, 3.373746, -19.570908, -79.530441, -642.045288
1733470074.643928, 36.411019, -6.355259, 3.724630, -1.804777, 0.105059, 3.733057, -20.565445, -79.867035, -643.056274
1733470074.653869, 32.681900, -5.575796, 2.071583, -1.567023, -0.377391, 4.028441, -21.531433, -80.367676, -643.650879
1733470074.663864, 28.560432, -5.205892, 0.963816, -1.221034, -0.830374, 4.332696, -22.338852, -80.848328, -643.778687
1733470074.673861, 23.283910, -4.516063, 0.650774, -0.905359, -1.160119, 4.667712, -23.049362, -81.401749, -644.526978
1733470074.683908, 15.865028, -3.654450, 0.585682, -0.733040, -1.153519, 4.925187, -24.090866, -81.867477, -644.396179
1733470074.693034, 7.033716, -2.965219, 1.006612, -0.810957, -0.794448, 4.968605, -24.090866, -81.867477, -644.396179
1733470074.703863, -2.135179, -2.601899, 2.186954, -1.174676, -0.318425, 4.688861, -26.728226, -82.441376, -644.401489
1733470074.713913, -10.766426, -2.296788, 2.891597, -1.665641, 0.089840, 3.956500, -27.378540, -82.411972, -645.493469
1733470074.723852, -17.561020, -0.678307, 3.297265, -2.130150, 0.165168, 2.923226, -27.273743, -81.988602, -646.037476
1733470074.733852, -20.598664, 2.322825, 1.697190, -2.321527, -0.046492, 2.070175, -27.221603, -81.317108, -646.517212
1733470074.743082, -19.994577, 5.264251, -2.022053, -2.084051, -0.352182, 1.838859, -27.221603, -81.317108, -646.517212
1733470074.753863, -19.238757, 5.894375, -5.758654, -1.576188, -0.519612, 2.100525, -27.783997, -80.286804, -647.485474
1733470074.763878, -21.833174, 4.996699, -7.144447, -1.218948, -0.499862, 2.404386, -29.194626, -80.126648, -648.330994
1733470074.773882, -27.110892, 1.874061, -7.770381, -1.285345, 0.064443, 2.150450, -30.322189, -79.867828, -649.073242
1733470074.783869, -31.291168, -1.693748, -8.570793, -1.460934, 0.933562, 1.247774, -30.741379, -79.602951, -649.892700
1733470074.793853, -32.175676, -3.068319, -8.768315, -1.327298, 1.430271, -0.014729, -30.700745, -79.378006, -650.704590
1733470074.803857, -29.328372, -2.653524, -9.279776, -0.629635, 1.429517, -1.226231, -29.982819, -79.317551, -650.242432
1733470074.813860, -24.396765, -1.406444, -9.412654, 0.473518, 1.166792, -2.134271, -29.982819, -79.317551, -650.242432
1733470074.823857, -19.664925, 0.512509, -7.417386, 1.464558, 0.712742, -2.656929, -28.644974, -79.505753, -650.293213
1733470074.833856, -16.716166, 1.745074, -4.613776, 2.079099, 0.163534, -2.999779, -27.725815, -79.667023, -649.279236
1733470074.843863, -14.993538, 1.925537, -2.832939, 2.440644, -0.287852, -3.322924, -26.616287, -80.359650, -648.505249
1733470074.853854, -13.268067, 1.917456, -1.848473, 2.656034, -0.605784, -3.630954, -25.778809, -80.779236, -647.686646
1733470074.863857, -11.261427, 1.653944, -1.035193, 2.729428, -0.770214, -3.905668, -24.458755, -81.285721, -646.540405
1733470074.873855, -9.441684, 1.367987, -0.089633, 2.630434, -0.822871, -4.157838, -23.558807, -81.415909, -645.679565
1733470074.883849, -7.199514, 0.921468, 0.557699, 2.402846, -0.807565, -4.385763, -22.380951, -81.698242, -645.012756
1733470074.893928, -4.266617, 0.708983, 0.941221, 2.186629, -0.889685, -4.515646, -21.271225, -81.720871, -644.458313
1733470074.903865, -0.935235, 0.481235, 0.958578, 2.024131, -1.113102, -4.496172, -19.938980, -81.402435, -643.434570
1733470074.913853, 2.343026, -0.330549, -0.105644, 1.897584, -1.237355, -4.385959, -18.889816, -80.987198, -643.395386
1733470074.923862, 5.314978, -0.899322, -1.070358, 1.857277, -1.270549, -4.166950, -17.881607, -80.490799, -642.764404
1733470074.933913, 8.000225, -1.418864, -1.378611, 1.881622, -1.267945, -3.877557, -16.854172, -80.246872, -642.315735
1733470074.943851, 10.748918, -2.426972, -1.260248, 1.772787, -1.088414, -3.560482, -16.384033, -79.796890, -641.713806
1733470074.953864, 12.478878, -3.610007, -1.430984, 1.432103, -0.467669, -3.345680, -15.787231, -79.315933, -641.594360
1733470074.963870, 13.505991, -4.262726, -0.691026, 0.864205, 0.528519, -3.390446, -15.380630, -78.726273, -641.275269
1733470074.973865, 15.252711, -3.153463, 1.043124, 0.022312, 1.813557, -3.719608, -14.938156, -78.023865, -640.844360
1733470074.983855, 20.260932, -3.120094, 3.146131, -0.894728, 2.798762, -4.192430, -13.992477, -76.879379, -640.413025
1733470074.993900, 29.477411, -2.497003, 4.620360, -1.458369, 3.085423, -4.299655, -12.890915, -75.501556, -640.375305
1733470075.003861, 40.661924, -0.298826, 5.822698, -1.524716, 2.569407, -3.830806, -11.900986, -73.878662, -640.218384
1733470075.013865, 50.641555, 1.388936, 8.165724, -1.278585, 1.109893, -2.929524, -11.478134, -72.707352, -640.012207
1733470075.023855, 57.245511, 3.194763, 7.927950, -0.903761, -0.252765, -1.750624, -11.093628, -71.502701, -639.816223
1733470075.033859, 60.848486, 4.425233, 5.047576, -0.619975, -0.637258, -0.352349, -10.700592, -71.061523, -640.242798
1733470075.043862, 61.887419, 6.423493, 4.039168, -0.622180, -0.255455, 1.248191, -10.601349, -70.840851, -640.303040
1733470075.053870, 60.004679, 7.889493, 6.178686, -1.020633, 0.197755, 2.921550, -10.607101, -71.482697, -640.759399
1733470075.063859, 53.887793, 8.114249, 9.811139, -1.773923, 0.246072, 4.427850, -10.726517, -72.523834, -641.037415
1733470075.073859, 45.049747, 7.758859, 10.671106, -2.646298, 0.150639, 5.524733, -11.525970, -73.359009, -641.641113
1733470075.083857, 36.626497, 6.600365, 7.913884, -3.298635, 0.124802, 6.244825, -12.818146, -74.555374, -642.689575
1733470075.093855, 28.697350, 5.715408, 4.258985, -3.545040, -0.016071, 6.735377, -13.818115, -75.354691, -643.704712
1733470075.103865, 20.622755, 5.826739, 1.185130, -3.470981, -0.215870, 7.130198, -15.171768, -76.040665, -644.554626
1733470075.113852, 9.751583, 3.059042, -0.328903, -3.294143, -0.529047, 6.990906, -16.982407, -76.833191, -646.490601
1733470075.123854, -2.198176, -1.344494, -0.980276, -3.154898, -0.938626, 6.232879, -18.463730, -77.104919, -647.427673
1733470075.133848, -11.482591, -4.045752, -2.869600, -3.051630, -1.202464, 5.173584, -19.283493, -77.134872, -648.558838
1733470075.143889, -16.272491, -4.961235, -6.177938, -2.882286, -1.129307, 4.337099, -20.073502, -76.799591, -649.586304
1733470075.153856, -18.333001, -5.049371, -10.360608, -2.421946, -0.694070, 3.937176, -21.083450, -76.473618, -650.396240
1733470075.163858, -22.372917, -6.022764, -11.822867, -1.816140, -0.265444, 3.533668, -21.942078, -76.300018, -651.081543
1733470075.173862, -27.503990, -7.550564, -10.411036, -1.353026, -0.201188, 2.841180, -22.970978, -76.216415, -651.716431
1733470075.183853, -31.349377, -8.734048, -10.340707, -0.944339, -0.113417, 1.830260, -24.156937, -76.121033, -652.092712
1733470075.193851, -32.050579, -9.694272, -11.072434, -0.424809, 0.168218, 0.667465, -24.775970, -76.097641, -652.347290
1733470075.203845, -29.987974, -9.916035, -10.367192, 0.112127, 0.410624, -0.450211, -24.520004, -76.202591, -651.937744
1733470075.213845, -26.545412, -9.283068, -8.538322, 0.586649, 0.481433, -1.432487, -24.198212, -76.346603, -652.204163
1733470075.223846, -22.490382, -7.816320, -6.740276, 1.011362, 0.420439, -2.242122, -23.950943, -76.546036, -651.956299
1733470075.233847, -18.265065, -5.743540, -4.978593, 1.376028, 0.192235, -2.795659, -22.756088, -76.964600, -651.767273
1733470075.243851, -14.870087, -3.794660, -3.520674, 1.657915, -0.127385, -3.109904, -21.752090, -77.190140, -650.986816
1733470075.253862, -12.594847, -2.361880, -3.013701, 1.816089, -0.245077, -3.302423, -20.829453, -77.223679, -650.094543
1733470075.263855, -10.703727, -1.266233, -2.690484, 1.851828, -0.165835, -3.452863, -19.664093, -77.252747, -649.279053
1733470075.273852, -8.998158, -0.186897, -2.238878, 1.838920, -0.021844, -3.555437, -18.668442, -77.387970, -648.347290
1733470075.283854, -7.887847, 0.288801, -1.839495, 1.849020, 0.093954, -3.738757, -17.649200, -77.332733, -647.993286
1733470075.293843, -6.431424, 0.524330, -1.591695, 1.924439, 0.153492, -3.962344, -16.212021, -77.176224, -647.297363
1733470075.303842, -4.628740, 0.888847, -1.276558, 2.074955, 0.109872, -4.177799, -14.977707, -77.159149, -646.319641
1733470075.313898, -2.359037, 1.317110, -0.631920, 2.290271, -0.123643, -4.337360, -13.879547, -76.483902, -645.816528
1733470075.323841, -0.015113, 1.806874, 0.280870, 2.495625, -0.533503, -4.400949, -12.946442, -76.255020, -645.411011
1733470075.333839, 1.910274, 1.962796, 0.688333, 2.596798, -0.939856, -4.405327, -11.582291, -75.819763, -644.693115
1733470075.343839, 3.661782, 2.226608, 0.717812, 2.559445, -1.130581, -4.346345, -10.380600, -75.317017, -644.227905
1733470075.353852, 5.415535, 2.803311, 0.467618, 2.398921, -0.995690, -4.171152, -9.346481, -74.767563, -643.564697
1733470075.363850, 7.043442, 3.258808, 0.408211, 2.125196, -0.546277, -3.931937, -8.838623, -73.964615, -643.056641
1733470075.373841, 8.109460, 2.807950, 1.101632, 1.640632, 0.080109, -3.796407, -7.747025, -73.333984, -642.439941
1733470075.383838, 8.828020, 2.391059, 2.398990, 0.936853, 0.641952, -3.814703, -6.820251, -72.470337, -642.061707
1733470075.393847, 9.982624, 3.132214, 3.244592, 0.120628, 1.225189, -3.957907, -5.912262, -71.109863, -641.711060
1733470075.403837, 12.651560, 4.047697, 4.081366, -0.593117, 1.480979, -4.115477, -5.107986, -69.933868, -641.051636
1733470075.413830, 16.202012, 5.195268, 4.758177, -0.983714, 1.264762, -4.185419, -4.249435, -67.922119, -641.004700
1733470075.423855, 20.749947, 6.896797, 5.099350, -1.164320, 0.686804, -4.128035, -3.638824, -66.055344, -640.779419
1733470075.433843, 27.962031, 8.215404, 5.122245, -1.383805, -0.326556, -3.635677, -3.386963, -64.162964, -641.437256
1733470075.443836, 35.148676, 9.697415, 2.915689, -1.437962, -1.255965, -2.746979, -3.643463, -62.606735, -642.359070
1733470075.453844, 41.749041, 11.262474, -2.218078, -1.092114, -1.493747, -1.334303, -4.081009, -62.033493, -643.162659
1733470075.463844, 46.757861, 12.675203, -6.730400, -0.392824, -0.886817, 0.278083, -5.079117, -62.213867, -643.246277
1733470075.473835, 48.794129, 13.904625, -6.751200, 0.274498, -0.155946, 1.706000, -5.804977, -63.307953, -643.840332
1733470075.483852, 49.779044, 14.738556, -2.037765, 0.675702, -0.064131, 3.088179, -6.666336, -64.801636, -643.495361
1733470075.493857, 48.625039, 14.695460, 2.313547, 0.713999, -0.227124, 4.337406, -7.173035, -66.620880, -643.843994
1733470075.503610, 46.004585, 14.523078, 6.175245, 0.217214, -0.492568, 5.638845, -7.662094, -68.342331, -642.608154
1733470075.513848, 41.273493, 13.998299, 8.280346, -0.712392, -0.613173, 6.961028, -8.800140, -70.131790, -643.506958
1733470075.523841, 34.377893, 13.232304, 7.975385, -1.830354, -0.518884, 8.289599, -10.032349, -72.242065, -644.256042
1733470075.533841, 24.985589, 12.416031, 6.569240, -2.981637, -0.334979, 9.441113, -12.041183, -73.847900, -645.273560
1733470075.543847, 12.715156, 11.078121, 3.503914, -3.975695, 0.250189, 10.176772, -14.494858, -74.979691, -646.704468
1733470075.553842, 0.089334, 6.784120, 0.394295, -4.927522, 1.180387, 10.200265, -17.310547, -75.660828, -648.608398
1733470075.563844, -10.530148, -0.316184, -2.223615, -5.797113, 2.056865, 9.352630, -20.015518, -75.436142, -650.502930
1733470075.573833, -16.896629, -6.851607, -5.300912, -6.165699, 2.359072, 7.934591, -21.629379, -74.659882, -652.267212
1733470075.583884, -20.562152, -10.225486, -8.659678, -5.512712, 1.391875, 6.479431, -23.153427, -73.835968, -654.139160
1733470075.593839, -26.302251, -14.949246, -13.643358, -3.744380, -0.360348, 4.758530, -24.585571, -73.389191, -655.430847
1733470075.603830, -32.067338, -20.303429, -20.051589, -1.304811, -1.378963, 2.617498, -25.546310, -73.205505, -655.075623
1733470075.613833, -33.118692, -23.039403, -22.191257, 0.880921, -1.471255, 0.484610, -25.452896, -73.747162, -654.866943
1733470075.623833, -29.887568, -22.308573, -18.287810, 2.305674, -1.244869, -1.197680, -24.903458, -74.423615, -653.846680
1733470075.633836, -25.703850, -18.951902, -12.263400, 2.973543, -0.886067, -2.331241, -24.275436, -75.386887, -653.137695
1733470075.643831, -21.390546, -15.527595, -6.580164, 2.990381, -0.397718, -3.016077, -23.344528, -76.078995, -652.063477
1733470075.653841, -17.198748, -12.392687, -1.151611, 2.497389, -0.072721, -3.345574, -22.257797, -76.733154, -650.814819
1733470075.663829, -13.832201, -9.646538, 2.698864, 1.686305, 0.061773, -3.464956, -21.020157, -76.605469, -650.264465
1733470075.673827, -11.587936, -7.624634, 4.082712, 0.776544, 0.226873, -3.519347, -19.805542, -76.374908, -650.456970
1733470075.683834, -10.182091, -5.991190, 3.734955, -0.016749, 0.380568, -3.559431, -18.723038, -75.822815, -650.439575
1733470075.693875, -8.741829, -4.577265, 2.349610, -0.546832, 0.594856, -3.604719, -17.241608, -74.997589, -651.036316
1733470075.703828, -7.268647, -3.148226, 0.904410, -0.837819, 0.818810, -3.659683, -15.941803, -73.987122, -649.798401
1733470075.713839, -5.714361, -1.461062, -0.204106, -0.927079, 1.010709, -3.668744, -14.288940, -72.807602, -650.577393
1733470075.723826, -4.165761, 0.073921, -1.083975, -0.837595, 1.116755, -3.654062, -13.089417, -71.870880, -650.702942
1733470075.733835, -2.845808, 0.966809, -1.704372, -0.580814, 1.065703, -3.675311, -12.096130, -70.614395, -650.796875
1733470075.743833, -1.698387, 1.604714, -2.051980, -0.211697, 0.882691, -3.732652, -10.810013, -69.625259, -650.387207
1733470075.753838, -0.476446, 2.447622, -2.128595, 0.220368, 0.579126, -3.775098, -9.791367, -68.777039, -650.405396
1733470075.763846, 0.882712, 3.272874, -2.044499, 0.667476, 0.245056, -3.771580, -8.656860, -67.779068, -650.262512
1733470075.773842, 2.189348, 3.815759, -1.740585, 1.045697, -0.111813, -3.705863, -7.880966, -67.128494, -650.011353
1733470075.783829, 3.393033, 4.512621, -1.318607, 1.327705, -0.427506, -3.570699, -7.068970, -66.392654, -649.661743
1733470075.793827, 4.805911, 5.214122, -1.176002, 1.513699, -0.623166, -3.363039, -6.747971, -65.853134, -649.198914
1733470075.803822, 6.654833, 5.829282, -0.943914, 1.600919, -0.682090, -3.083087, -6.693329, -65.637497, -648.380188
1733470075.813894, 8.778490, 6.575675, -0.570119, 1.544967, -0.563468, -2.709878, -6.611679, -65.203735, -648.819092
1733470075.823831, 10.598682, 7.426065, -0.297779, 1.300454, -0.249384, -2.318380, -6.534058, -64.757950, -648.901123
1733470075.833826, 12.187534, 7.864803, 0.152630, 0.951539, 0.153485, -1.963903, -6.446884, -64.536240, -648.581665
1733470075.843844, 14.281712, 8.067113, 0.945859, 0.584741, 0.414124, -1.605956, -6.334305, -64.236450, -648.828491
1733470075.853845, 16.670677, 8.123975, 1.566706, 0.288613, 0.398681, -1.200498, -6.699890, -64.052750, -648.676025
1733470075.863893, 18.728942, 8.137592, 1.480215, 0.116817, 0.267405, -0.806041, -7.248123, -63.837967, -648.724365
1733470075.873821, 21.065383, 8.014141, 1.215357, -0.008015, 0.191586, -0.476309, -7.716339, -63.722656, -648.499939
1733470075.883822, 24.367287, 7.867796, 1.236456, -0.191588, 0.052884, -0.128163, -8.215103, -63.642120, -648.797546
1733470075.893819, 28.414086, 7.518242, 1.180790, -0.345848, -0.315111, 0.382226, -8.576416, -63.806473, -648.590698
1733470075.903823, 32.636859, 6.659023, 0.185700, -0.278253, -0.885330, 1.220302, -9.865402, -64.497513, -648.831177
1733470075.913819, 35.238159, 5.164592, -1.947533, -0.023422, -1.243066, 2.200160, -11.158508, -65.364166, -649.986694
1733470075.923819, 36.449625, 2.840421, -3.689465, 0.202496, -1.321726, 3.132063, -12.851089, -66.418381, -650.768677
1733470075.933818, 37.151575, 0.569670, -4.870554, 0.268334, -1.061241, 3.937879, -14.155487, -67.877792, -650.783997
1733470075.943865, 37.067329, -0.531064, -5.241955, 0.163084, -0.593339, 4.641533, -15.313324, -69.313553, -650.173279
1733470075.953824, 36.595672, 0.018405, -4.618864, 0.047293, -0.217218, 5.435966, -15.793427, -70.811462, -650.177124
1733470075.963815, 34.625393, 0.901118, -3.164985, -0.052889, -0.025227, 6.464950, -16.496246, -72.282166, -650.228638
1733470075.973833, 28.492197, 1.561468, -0.456095, -0.539789, 0.323759, 7.568349, -18.226395, -73.363037, -650.487244
1733470075.983822, 17.656489, -0.729932, 2.524087, -1.863365, 1.134037, 8.193433, -20.401031, -73.766266, -651.746826
1733470075.993834, 6.064363, -5.311836, 4.861576, -3.888841, 1.959331, 7.983725, -21.219452, -73.305283, -652.654846
1733470076.003817, -1.747917, -8.842236, 3.668366, -5.776268, 2.412103, 7.178429, -21.910721, -72.294586, -654.368591
1733470076.013838, -5.215319, -9.627085, -2.723554, -6.513221, 2.465053, 6.484637, -23.055954, -70.891403, -656.645569
1733470076.023844, -9.312547, -12.112865, -9.291148, -6.034253, 1.885455, 5.681486, -23.978088, -69.636917, -657.974731
1733470076.033818, -14.668525, -17.563414, -15.561862, -4.519282, 1.090603, 4.456090, -24.418610, -68.675522, -658.325317
1733470076.043827, -18.268656, -21.571308, -20.600459, -2.444292, 0.631882, 3.030585, -24.361633, -68.649887, -658.389404
1733470076.053820, -19.416377, -22.186319, -20.495264, -0.646920, 0.319226, 1.629647, -23.980133, -68.811951, -657.947144
1733470076.063823, -19.501970, -20.892552, -17.084873, 0.590590, 0.094948, 0.390513, -23.417175, -69.425171, -657.651672
1733470076.073820, -19.741839, -18.197878, -13.281235, 1.368020, -0.051275, -0.686594, -22.682541, -69.724014, -656.921387
1733470076.083821, -19.453337, -14.945954, -9.231593, 1.769002, -0.283809, -1.541067, -22.332275, -70.275024, -656.380615
1733470076.093815, -18.355147, -12.295123, -6.551434, 1.852733, -0.378852, -2.191132, -21.663757, -70.740585, -655.250732
1733470076.103019, -17.113753, -9.898976, -5.237166, 1.737203, -0.233546, -2.704009, -20.715988, -71.217896, -654.801453
1733470076.113874, -15.865626, -7.600842, -4.070442, 1.503286, 0.027427, -3.140249, -19.599411, -71.059189, -654.771790
1733470076.123814, -14.640244, -6.035782, -3.316119, 1.222659, 0.377052, -3.569135, -18.204514, -70.809158, -654.418945
1733470076.133812, -12.962956, -4.315997, -2.920776, 0.931160, 0.665222, -3.960739, -16.467545, -70.547348, -654.165710
1733470076.143810, -11.100267, -2.300379, -2.904167, 0.754474, 0.864727, -4.226640, -14.968369, -69.926300, -653.443726
1733470076.153815, -9.066842, -0.648529, -3.443909, 0.776194, 1.046049, -4.388395, -13.347321, -69.320206, -652.861084
1733470076.163813, -7.147141, 0.930147, -4.042011, 0.982783, 1.217104, -4.433506, -11.683258, -68.792618, -652.729980
1733470076.173807, -5.382465, 2.120514, -4.326472, 1.323023, 1.407644, -4.445332, -10.339066, -68.207718, -651.539185
1733470076.183809, -3.969586, 3.046173, -3.934721, 1.708550, 1.490537, -4.466147, -8.653687, -67.844116, -650.783081
1733470076.193808, -2.690185, 3.971981, -3.089268, 2.071127, 1.421075, -4.477318, -7.287567, -67.232162, -649.455933
1733470076.203808, -1.177947, 4.834192, -2.164358, 2.393996, 1.222947, -4.448885, -5.724411, -66.775940, -647.918823
1733470076.213805, 0.847847, 5.774665, -0.899172, 2.668633, 0.794773, -4.287179, -4.733643, -66.325897, -648.022400
1733470076.223808, 3.036895, 6.327426, 0.141707, 2.858732, 0.131242, -4.008701, -4.037582, -66.114319, -647.739380
1733470076.233804, 4.674080, 6.354660, 0.687734, 2.943732, -0.595386, -3.615705, -4.153473, -65.800430, -647.063110
1733470076.243811, 5.527463, 6.156390, 0.293888, 2.962775, -1.081245, -3.234692, -3.995895, -65.749817, -646.951111
1733470076.253817, 6.531981, 5.711069, -0.286556, 3.013235, -1.293321, -2.900703, -3.980942, -65.802551, -646.531189
1733470076.263396, 8.581567, 5.390844, -0.007033, 3.011015, -1.366078, -2.519517, -3.980942, -65.802551, -646.531189
1733470076.273816, 11.121216, 5.521927, 0.781707, 2.787860, -1.397459, -1.983622, -4.190689, -65.571854, -645.980408
1733470076.283824, 13.360693, 5.502474, 0.992546, 2.385942, -1.266551, -1.326288, -4.637253, -66.032822, -646.185791
1733470076.293815, 15.191658, 5.310938, 0.474202, 1.939214, -0.683860, -0.709092, -5.353699, -66.451630, -645.965271
1733470076.303810, 16.971448, 5.624279, 0.348506, 1.391007, 0.350742, -0.234293, -6.134933, -66.699509, -645.567505
1733470076.313814, 19.405304, 5.981614, 1.511938, 0.629048, 1.430057, 0.153439, -6.482590, -66.993057, -644.428894
1733470076.323809, 22.674885, 6.193052, 3.044078, -0.194263, 2.238377, 0.445909, -6.689804, -67.218842, -644.461670
1733470076.333811, 26.745477, 6.382642, 3.603722, -0.734314, 2.596122, 0.759481, -6.742661, -67.666534, -643.900452
1733470076.343811, 32.099361, 6.780978, 4.301632, -0.689800, 1.966754, 1.432320, -6.869095, -67.963470, -643.315674
1733470076.353812, 35.841648, 6.954857, 5.055806, -0.123208, 0.454158, 2.463776, -7.715973, -68.836716, -643.035339
1733470076.363815, 36.468779, 5.844845, 4.192546, 0.568202, -0.953999, 3.520465, -8.863937, -70.250366, -643.347534
1733470076.373811, 34.824860, 3.780145, 1.942595, 1.092617, -1.494093, 4.372153, -10.815659, -71.946106, -643.403870
1733470076.383819, 32.599599, 1.019481, 0.125995, 1.235376, -1.000337, 4.868014, -12.596695, -73.663406, -643.387512
1733470076.393807, 31.659576, -1.257704, 0.912939, 0.909756, -0.226404, 5.289560, -13.968643, -75.508713, -643.112244
1733470076.403807, 30.011168, -2.459144, 3.334225, 0.378144, 0.214626, 5.780266, -15.617859, -77.114517, -642.873962
1733470076.413817, 25.926211, -3.659088, 5.558438, -0.225967, 0.328069, 6.163939, -16.870071, -78.514206, -643.054199
1733470076.422993, 19.161095, -4.679168, 7.492056, -1.000038, 0.267376, 6.294415, -18.691727, -79.723465, -643.293884
1733470076.433800, 10.595091, -6.134094, 8.506299, -1.916055, 0.141996, 6.037115, -19.799774, -80.230362, -643.324829
1733470076.443812, 1.921646, -7.866150, 8.106767, -2.845956, -0.006325, 5.552042, -20.936462, -79.926270, -644.623474
1733470076.453680, -6.106112, -8.753052, 5.865196, -3.806367, 0.062020, 4.818328, -21.992386, -79.601273, -646.513000
1733470076.463808, -9.860819, -10.106973, -0.158915, -4.495668, 0.579708, 4.111713, -22.956924, -78.636948, -647.580200
1733470076.473810, -9.095422, -11.646295, -9.890447, -4.323343, 1.617448, 3.730515, -23.463531, -77.907379, -649.038940
1733470076.482983, -8.360253, -13.411570, -17.249924, -3.198071, 2.603438, 3.589785, -24.016235, -77.471344, -650.183044
1733470076.493367, -9.622446, -15.794698, -19.470695, -1.457002, 2.979777, 3.342679, -24.957474, -77.762070, -649.553833
1733470076.503820, -12.181848, -18.154782, -17.205032, 0.338605, 2.644723, 2.666245, -25.504074, -78.565796, -649.795166
1733470076.513815, -15.026459, -19.288437, -11.441291, 1.791811, 1.628586, 1.530336, -25.466660, -79.499115, -648.871460
1733470076.523806, -16.016910, -18.380735, -5.940613, 2.828910, 0.290095, 0.231843, -25.057098, -80.365021, -647.300232
1733470076.533797, -14.483723, -15.586552, -2.156876, 3.440129, -0.934513, -0.817973, -24.302734, -81.307068, -645.626160
1733470076.543824, -11.560552, -12.037148, 0.197222, 3.603221, -1.817520, -1.356935, -23.717987, -81.978745, -644.197693
1733470076.553808, -9.062951, -9.518448, 1.320552, 3.338449, -2.165272, -1.452171, -23.405655, -82.803436, -642.977173
1733470076.563852, -7.264906, -8.219893, 1.443255, 2.787460, -1.967158, -1.248619, -23.087173, -83.280975, -641.833801
1733470076.573216, -6.228366, -7.105841, 1.634791, 2.058362, -1.498634, -0.851386, -23.311493, -83.647568, -641.221069
1733470076.583800, -7.049428, -6.390573, 1.759289, 1.231786, -0.957986, -0.524598, -23.720825, -83.898514, -641.338989
1733470076.593787, -10.779444, -6.207566, 0.423474, -0.108862, -0.151479, -0.837585, -23.875305, -84.092926, -641.246216
1733470076.603791, -10.595988, -5.326650, -1.084274, -0.387806, 0.185893, -1.237928, -23.354477, -83.965622, -640.905273
1733470076.613787, -9.567379, -4.143465, -2.170493, -0.423119, 0.475873, -1.659202, -23.234222, -83.613434, -641.557373
1733470076.623791, -7.435792, -2.897134, -2.304868, -0.256673, 0.555081, -2.033703, -22.569351, -83.405014, -641.586304
1733470076.633795, -7.435792, -2.897134, -2.304868, 0.030840, 0.366613, -2.268195, -21.784790, -83.086761, -641.780701
1733470076.643897, -1.383849, -0.454449, -0.747739, 0.359988, -0.045892, -2.330480, -20.993027, -82.730484, -641.778076
1733470076.653814, 1.263390, 0.330699, 0.119112, 0.638452, -0.553392, -2.244359, -20.058228, -82.590836, -641.860413
1733470076.663359, 1.263390, 0.330699, 0.119112, 0.638452, -0.553392, -2.244359, -19.472626, -82.306732, -641.688110
1733470076.673805, 4.658668, 0.999430, 0.679654, 0.824968, -1.097667, -1.717308, -19.014084, -82.158264, -641.336365
1733470076.683795, 5.549460, 1.050755, 0.906355, 0.765125, -1.177086, -1.384070, -18.868927, -81.961487, -640.810181
1733470076.693789, 6.133945, 1.039682, 1.267431, 0.640731, -1.137025, -1.039565, -18.803955, -81.733078, -640.838806
1733470076.703800, 6.252458, 0.263063, 1.565359, 0.388611, -0.912084, -0.825707, -18.991287, -81.744385, -640.611267
1733470076.713796, 6.292411, -0.650475, 1.930325, 0.067214, -0.601613, -0.802877, -19.334991, -81.498947, -641.605652
1733470076.723802, 6.379650, -1.321300, 2.423980, -0.206406, -0.394549, -0.917004, -19.655991, -81.540833, -641.607117
1733470076.733796, 7.179463, -2.358438, 2.883367, -0.410542, -0.414996, -1.081768, -19.453018, -81.210648, -642.219910
1733470076.743805, 8.218546, -3.699490, 3.045425, -0.604813, -0.632747, -1.294599, -19.241257, -80.756805, -642.302002
1733470076.753796, 9.302671, -4.806809, 2.471864, -0.741036, -0.829032, -1.493022, -18.961533, -80.064301, -643.097961
1733470076.763796, 10.695647, -6.046706, 1.997213, -0.827514, -0.985310, -1.704168, -19.083664, -79.677368, -644.056946
1733470076.773792, 12.195614, -6.965331, 2.012626, -0.925885, -1.194684, -1.894098, -18.779297, -79.065826, -644.544128
1733470076.783783, 13.902680, -7.832930, 1.642722, -1.028812, -1.426411, -2.125921, -18.845932, -78.312820, -645.342468
1733470076.792863, 13.902680, -7.832930, 1.642722, -1.028812, -1.426411, -2.125921, -19.220123, -77.465759, -646.348389
1733470076.803782, 20.543896, -9.156774, -0.744597, -0.797763, -1.859337, -2.490357, -18.972687, -76.829788, -646.528931
1733470076.813785, 26.037691, -9.669582, -1.522263, -0.657358, -2.146918, -2.309426, -19.406433, -75.997253, -647.788147
1733470076.823785, 31.124322, -9.664794, -2.443432, -0.634398, -2.406734, -1.812011, -19.515533, -75.145630, -648.752991
1733470076.833793, 35.501671, -9.844359, -4.771045, -0.588216, -2.297489, -1.136711, -20.505859, -74.667542, -649.401123
1733470076.843793, 38.582560, -10.185981, -7.673117, -0.410718, -1.702508, -0.429487, -20.905792, -74.335464, -649.929016
1733470076.853791, 40.681676, -7.236175, -8.347534, -0.114801, -1.127530, 0.603879, -20.914383, -74.221466, -650.059082
1733470076.863788, 41.837178, -3.386149, -8.350975, 0.218208, -0.572873, 2.083776, -20.622147, -74.441345, -649.919434
1733470076.873790, 40.071903, -0.761506, -8.305635, 0.381962, 0.298584, 3.793524, -20.970367, -75.079071, -649.806641
1733470076.883790, 33.973572, -0.438289, -6.604256, 0.058068, 1.478486, 5.208647, -22.409683, -75.909149, -649.310181
1733470076.893789, 26.326791, -1.619079, -3.907487, -0.793617, 2.603234, 6.056256, -23.464630, -76.855362, -649.258484
1733470076.903804, 19.129372, -3.689165, -2.868703, -1.709436, 3.539568, 6.335220, -24.400543, -77.778168, -649.334839
1733470076.913790, 12.774413, -7.543830, -3.059042, -2.372327, 4.017902, 6.069978, -25.442383, -78.176651, -650.095947
1733470076.923788, 6.965630, -10.547805, -3.322553, -2.532059, 3.779228, 5.358169, -26.083466, -78.300751, -650.388672
1733470076.933786, 2.353500, -10.712107, -4.121319, -2.008043, 2.930978, 4.521186, -26.235641, -78.160461, -650.329590
1733470076.943798, -1.463456, -9.176077, -4.168604, -0.986335, 1.666257, 3.753032, -26.053833, -78.358063, -650.558594
1733470076.953791, -5.339070, -7.405415, -2.828001, 0.095605, 0.218611, 3.057377, -26.091904, -78.897766, -650.417480
1733470076.963787, -8.856152, -6.009596, -1.176451, 0.890784, -1.160720, 2.472931, -26.119904, -79.198257, -649.762695
1733470076.973801, -11.721114, -5.301810, -0.489165, 1.343526, -2.124172, 2.070590, -26.935928, -79.865662, -648.979858
1733470076.982939, -14.812926, -4.548684, -0.525827, 1.474224, -2.414534, 1.839028, -27.441559, -80.266388, -648.052551
1733470076.993801, -14.812926, -4.548684, -0.525827, 1.474224, -2.414534, 1.839028, -28.517807, -80.743607, -648.014526
1733470077.003793, -20.306272, -2.542343, 0.299275, 0.335923, -1.323987, 1.383658, -29.387039, -80.898300, -646.499268
1733470077.013794, -21.286697, -1.954267, -0.158167, -0.707325, -0.332498, 1.044828, -30.151825, -80.977890, -647.895630
1733470077.023800, -20.991612, -1.859397, -1.758541, -1.575240, 0.629381, 0.576895, -30.713730, -80.678879, -648.433533
1733470077.033781, -19.542671, -1.840393, -4.055179, -1.924109, 1.309878, 0.038637, -30.525024, -80.427338, -649.991516
1733470077.043477, -17.017536, -1.527201, -6.114192, -1.725450, 1.689350, -0.480573, -30.461716, -79.815033, -650.196960
1733470077.053282, -13.997850, -0.682647, -7.085191, -1.113537, 1.670369, -0.864746, -29.928207, -79.429596, -650.995972
1733470077.063783, -11.105055, 0.082750, -7.136666, -0.244849, 1.318004, -1.132517, -29.335678, -79.091797, -650.803101
1733470077.073777, -8.720281, 0.924910, -6.062268, 0.661802, 0.688630, -1.289980, -28.718353, -79.506042, -650.623779
1733470077.083780, -6.723966, 1.519121, -4.477756, 1.400474, -0.033585, -1.410537, -28.451172, -79.718079, -650.485229
1733470077.093837, -5.023634, 1.705719, -3.055151, 1.924827, -0.694353, -1.475253, -27.958588, -80.113083, -649.689514
1733470077.103778, -3.736301, 1.628805, -2.190246, 2.262087, -1.140482, -1.508068, -28.023788, -80.798187, -648.161865
1733470077.113777, -2.570175, 1.181688, -1.688660, 2.450336, -1.335482, -1.531278, -27.988922, -81.185989, -647.924377
1733470077.123776, -1.232864, 0.440982, -1.265635, 2.486027, -1.301958, -1.521438, -28.263687, -81.739197, -647.235596
1733470077.133786, 0.050278, -0.277428, -0.631171, 2.371216, -1.116890, -1.481762, -28.085175, -82.329468, -646.672729
1733470077.143794, 1.207426, -0.890344, 0.058209, 2.125449, -0.861009, -1.407608, -27.761337, -82.781296, -645.588623
1733470077.153777, 2.450016, -1.561019, 0.681899, 1.808209, -0.576596, -1.286104, -27.588943, -83.123062, -644.571106
1733470077.163813, 4.241927, -2.302773, 1.397017, 1.465224, -0.355310, -1.063768, -27.219101, -83.393890, -644.271118
1733470077.173798, 5.861455, -3.503166, 2.105251, 1.069860, -0.204760, -0.769416, -27.490173, -83.639954, -644.578674
1733470077.183793, 7.167791, -5.412093, 2.674922, 0.627734, -0.187756, -0.500579, -27.688477, -83.667862, -644.039124
1733470077.193793, 8.305785, -7.710078, 2.685696, 0.164216, -0.257392, -0.320194, -28.283691, -83.611954, -644.254150
1733470077.203771, 9.016863, -10.295666, 1.720832, -0.209543, -0.229883, -0.364196, -28.865387, -83.613403, -644.120605
1733470077.213774, 10.563367, -12.848184, 0.155623, -0.424707, 0.028334, -0.565336, -28.903717, -83.365097, -645.155273
1733470077.223789, 13.377602, -14.876073, -0.863858, -0.471866, 0.235276, -0.773840, -29.646820, -83.302536, -645.536377
1733470077.233786, 16.717812, -17.375320, -2.096572, -0.288710, 0.462479, -1.058735, -29.457138, -83.127060, -645.757263
1733470077.243793, 21.670069, -19.318065, -2.258780, 0.049801, 0.504402, -1.102094, -29.296249, -83.171692, -646.155640
1733470077.253784, 27.126006, -20.387375, -0.302268, 0.383382, 0.055454, -0.838955, -29.292160, -83.141083, -646.059814
1733470077.263786, 31.592838, -21.481675, 1.589301, 0.602816, -0.529814, -0.285978, -29.579834, -83.266754, -646.110779
1733470077.273791, 34.216434, -23.261764, 2.574964, 0.498635, -0.664894, 0.334006, -30.020233, -83.273468, -645.481445
1733470077.283783, 34.647839, -23.760656, 4.109348, -0.118252, -0.266318, 0.895789, -30.289108, -83.213852, -645.273315
1733470077.293780, 33.791463, -22.151154, 5.123292, -1.229221, 0.595818, 1.386863, -30.355179, -82.994873, -645.972534
1733470077.303778, 32.824804, -19.526361, 4.262128, -2.394263, 1.646490, 1.894050, -30.138718, -82.538147, -646.112000
1733470077.313779, 30.478037, -15.431378, 3.536685, -3.261066, 2.133738, 2.481994, -30.162872, -81.944733, -647.380432
1733470077.323773, 24.410532, -12.160599, 3.287688, -3.783515, 1.797319, 2.745359, -30.407669, -80.968597, -648.924316
1733470077.333775, 15.137789, -10.600477, 1.684022, -3.857041, 0.854507, 2.333025, -30.228745, -80.123703, -649.793945
1733470077.343773, 8.015039, -10.197055, -2.916138, -3.296336, -0.144740, 1.680883, -29.964645, -79.176025, -650.894104
1733470077.353771, 3.827281, -9.816376, -8.709956, -2.178862, -0.717287, 1.185025, -29.456070, -78.460556, -651.488037
1733470077.363790, 1.190966, -8.576779, -12.595895, -0.855693, -0.609843, 1.007429, -29.369736, -78.251389, -651.688354
1733470077.373769, -0.241814, -7.662493, -12.411242, 0.272251, -0.150629, 1.083554, -29.006989, -78.795639, -651.127197
1733470077.383794, -0.409408, -6.999748, -9.220669, 1.087729, 0.259749, 1.420327, -28.832520, -79.346985, -650.603516
1733470077.393773, -0.721253, -6.453421, -5.456086, 1.586390, 0.597177, 1.937391, -29.374512, -79.930649, -649.599365
1733470077.403769, -2.463933, -6.488735, -1.774103, 1.710924, 1.001921, 2.443768, -29.800949, -80.989349, -648.679199
1733470077.413768, -6.120627, -7.258022, 2.116774, 1.388204, 1.374029, 2.630419, -30.751068, -81.505463, -648.589844
1733470077.423766, -10.713304, -7.738958, 5.446510, 0.700550, 1.574501, 2.334496, -31.436752, -81.836105, -647.762207
1733470077.433767, -13.895348, -7.322516, 6.926874, -0.132889, 1.589944, 1.680099, -31.438919, -82.004486, -647.877258
1733470077.443772, -14.668825, -5.967548, 6.547543, -0.857154, 1.495027, 0.951669, -31.039825, -81.744598, -648.245728
1733470077.453772, -13.927670, -4.052486, 5.017947, -1.337103, 1.370410, 0.353079, -30.617020, -81.364319, -648.791016
1733470077.463764, -12.504317, -1.972224, 3.291578, -1.581505, 1.207553, -0.064605, -30.068985, -80.997314, -649.020813
1733470077.473766, -11.099968, -0.218770, 1.611298, -1.677522, 1.061524, -0.364568, -29.754181, -80.192001, -649.648193
1733470077.483763, -9.893290, 1.212813, 0.016161, -1.654560, 0.869362, -0.578623, -29.294678, -79.661072, -650.303040
1733470077.493784, -9.191340, 1.903839, -1.353322, -1.486396, 0.593356, -0.795747, -28.776321, -79.308502, -651.064392
1733470077.503816, -8.856152, 2.277484, -2.492364, -1.160404, 0.162836, -1.030674, -28.431732, -78.902588, -650.958191
1733470077.513799, -8.594585, 2.493711, -3.659537, -0.671504, -0.347466, -1.308763, -27.851471, -78.552063, -651.762207
1733470077.523772, -8.118289, 2.300828, -4.860229, -0.030328, -0.789628, -1.605635, -27.890854, -78.615509, -651.805359
1733470077.533767, -7.252785, 2.347964, -5.451747, 0.662876, -1.093916, -1.873224, -27.604568, -78.577026, -651.624512
1733470077.543768, -6.190807, 2.605041, -5.185093, 1.271622, -1.269785, -2.095251, -27.326920, -78.944763, -651.239380
1733470077.553763, -5.077204, 2.862268, -4.292205, 1.699673, -1.344060, -2.257028, -26.835175, -79.135635, -650.863708
1733470077.563763, -3.785532, 3.092411, -3.200748, 1.958819, -1.363147, -2.323386, -26.626770, -79.686707, -650.220459
1733470077.573774, -2.401534, 3.393930, -2.289755, 2.093127, -1.318072, -2.280379, -26.012497, -79.931488, -649.347351
1733470077.583764, -1.231368, 3.480571, -1.687912, 2.109560, -1.159782, -2.126155, -25.740799, -80.336960, -648.447449
1733470077.593762, -0.314389, 3.246537, -1.074099, 2.013455, -0.900732, -1.917256, -25.420319, -80.542282, -647.670410
1733470077.603760, -0.018854, 2.755726, -0.260369, 1.785903, -0.658350, -1.760706, -25.480057, -80.995483, -647.138428
1733470077.613761, -0.061651, 1.761235, 0.718260, 1.484189, -0.553560, -1.748786, -25.246597, -81.036285, -647.500183
1733470077.623763, 0.596755, 0.688183, 1.616385, 1.155229, -0.670861, -1.811587, -24.612015, -80.932266, -646.960693
1733470077.633771, 1.860295, -0.175824, 1.895160, 0.833916, -0.901571, -1.812920, -24.600922, -80.728149, -646.679688
1733470077.643765, 3.709516, -1.250970, 1.741931, 0.540456, -1.089839, -1.701069, -24.778519, -80.584381, -646.908569
1733470077.653781, 5.891083, -2.695422, 1.498321, 0.240806, -1.217269, -1.533068, -25.475555, -80.437683, -647.351562
1733470077.663762, 7.864204, -4.765209, 0.832284, -0.038715, -1.318647, -1.443525, -25.475555, -80.437683, -647.351562
1733470077.673764, 9.867403, -7.227945, -0.300472, -0.197452, -1.339767, -1.354736, -25.879562, -79.907440, -648.047424
1733470077.683760, 11.936143, -9.137171, -1.363647, -0.209908, -1.324803, -1.277554, -26.092255, -79.483566, -648.786743
1733470077.693760, 14.072668, -11.608137, -2.618508, -0.145402, -1.148544, -1.253975, -26.473267, -79.330383, -649.032104
1733470077.703784, 17.046865, -15.199140, -4.840028, -0.088678, -0.590597, -1.258496, -27.027145, -79.083588, -648.909058
1733470077.713766, 21.108030, -18.756625, -6.373215, -0.030368, 0.131662, -1.238077, -27.128723, -78.933075, -649.617004
1733470077.723763, 26.024074, -21.439777, -5.954230, 0.055760, 0.502132, -1.062422, -27.128723, -78.933075, -649.617004
1733470077.733771, 30.214975, -23.600544, -5.016601, 0.221846, 0.505486, -0.807201, -27.362274, -78.825653, -649.436829
1733470077.743770, 32.634315, -25.131336, -4.071190, 0.400464, 0.272652, -0.505108, -26.896881, -78.849945, -649.337280
1733470077.753773, 33.057790, -24.642919, -2.986318, 0.432117, 0.149298, -0.124161, -26.742828, -78.899780, -649.377686
1733470077.763768, 32.096219, -23.690925, -1.977012, 0.116902, 0.479430, 0.096274, -26.790543, -78.939545, -649.352295
1733470077.774151, 31.016434, -22.597223, -0.770185, -0.494540, 1.056712, 0.234501, -26.049515, -78.836792, -648.621460
1733470077.783791, 28.803443, -19.488053, 0.110881, -1.215468, 1.683948, 0.302554, -25.595261, -78.580261, -648.457275
1733470077.793799, 25.914390, -17.691055, -0.434099, -1.811058, 2.275597, 0.125282, -24.866684, -78.196854, -648.860596
1733470077.803814, 23.442227, -15.914857, -1.710208, -2.062569, 2.706838, -0.115341, -23.711990, -77.567688, -649.439453
1733470077.813794, 21.510705, -12.735357, -2.886958, -1.989452, 3.044792, -0.222655, -22.069092, -77.018524, -648.648193
1733470077.823773, 20.309863, -10.915764, -3.381660, -1.681270, 3.208636, -0.062001, -20.028976, -76.295334, -648.836182
1733470077.833766, 17.998261, -9.620501, -3.051560, -1.261308, 3.279343, 0.288732, -18.167770, -75.857910, -648.457764
1733470077.843766, 14.470854, -8.272116, -1.503858, -0.878223, 3.152281, 0.691549, -16.778046, -75.784409, -647.822327
1733470077.853758, 10.105626, -7.233781, 0.683694, -0.594407, 2.659382, 0.996349, -15.485962, -75.968018, -647.810852
1733470077.863749, 4.548834, -6.620865, 2.819472, -0.416228, 1.759089, 1.036150, -15.028625, -76.017883, -647.281677
1733470077.873817, -0.516250, -5.784391, 4.580407, -0.306903, 0.363799, 0.806511, -14.631088, -76.064621, -646.820679
1733470077.883754, -3.634548, -4.589984, 4.719271, -0.226830, -1.216519, 0.474609, -14.464508, -76.056580, -646.654236
1733470077.893745, -5.276671, -2.669236, 2.772336, -0.080049, -2.705829, 0.414475, -14.244095, -76.166595, -647.208130
1733470077.903755, -5.783793, -1.227178, -1.122881, 0.196922, -3.543171, 0.729764, -14.705276, -76.155701, -647.645447
1733470077.913754, -6.827365, -0.851737, -5.507262, 0.469246, -3.273109, 1.252563, -15.598770, -76.468506, -647.943237
1733470077.923744, -9.129241, -0.417639, -7.994988, 0.483128, -2.059540, 1.755833, -16.517075, -77.049149, -647.968811
1733470077.933748, -12.007071, -0.709582, -8.178892, 0.188950, -0.565955, 2.002921, -18.089478, -77.392044, -648.355225
1733470077.943762, -14.978874, -1.769614, -7.192182, -0.182642, 0.634446, 1.846997, -19.094284, -78.002975, -648.217285
1733470077.953766, -16.947656, -2.499846, -6.209063, -0.394476, 1.332025, 1.311588, -19.422958, -78.165283, -648.448486
1733470077.963759, -17.197999, -2.261473, -5.479879, -0.346067, 1.458430, 0.583285, -19.586914, -78.396210, -648.638672
1733470077.973765, -15.615582, -1.238550, -5.374683, 0.012898, 1.211771, -0.102113, -19.213959, -78.437347, -648.454224
1733470077.983754, -12.912229, -0.030975, -5.358523, 0.638193, 0.747405, -0.562377, -18.684601, -78.759918, -648.111694
1733470077.993762, -10.263045, 1.127819, -4.700716, 1.322434, 0.218693, -0.759607, -18.506500, -78.743820, -647.431519
1733470078.003811, -8.048857, 1.742530, -3.667169, 1.860129, -0.214544, -0.828663, -18.610474, -79.239349, -646.677002
1733470078.012881, -6.413468, 1.868525, -2.329708, 2.157952, -0.520278, -0.859321, -18.576553, -79.802841, -645.940735
1733470078.023759, -5.101146, 1.906982, -1.111059, 2.244782, -0.707277, -0.837543, -18.323181, -80.122726, -645.284790
1733470078.033753, -3.972130, 2.228403, -0.024541, 2.193035, -0.831166, -0.725056, -18.415115, -80.626511, -644.472595
1733470078.043755, -3.177555, 2.257583, 0.851139, 2.024699, -0.916963, -0.600793, -18.672729, -81.113159, -643.890137
1733470078.053756, -2.893542, 1.550395, 1.486500, 1.794975, -1.032724, -0.584465, -18.795517, -81.432343, -643.401367
1733470078.063769, -2.969708, 0.664241, 1.923891, 1.571995, -1.189454, -0.705605, -19.360947, -81.636688, -643.091919
1733470078.073753, -2.356643, -0.024241, 2.052280, 1.406212, -1.346703, -0.890158, -19.483521, -81.951508, -642.732117
1733470078.083751, -0.908600, -0.659603, 2.009334, 1.255772, -1.473345, -1.066446, -19.849167, -81.699402, -642.415344
1733470078.093751, 0.954239, -1.398214, 1.877952, 1.082707, -1.569111, -1.153173, -20.041611, -81.944611, -642.429932
1733470078.103744, 3.541772, -1.330278, 1.814954, 0.902054, -1.657660, -1.065088, -20.241226, -81.736557, -642.160767
1733470078.113746, 5.972935, -1.179294, 1.551143, 0.721056, -1.815318, -0.832389, -20.511810, -81.679001, -642.981323
1733470078.123814, 8.641123, -1.715146, 1.746570, 0.618552, -2.152136, -0.440299, -21.030594, -81.477798, -642.602173
1733470078.133746, 11.014076, -2.397643, 1.111059, 0.525716, -2.507238, 0.225367, -22.185532, -81.681854, -643.016602
1733470078.143763, 12.162096, -3.693954, 0.409708, 0.403788, -2.739695, 0.929837, -23.660416, -81.704620, -643.487549
1733470078.153748, 13.106907, -8.331971, -1.683872, 0.202034, -2.422369, 1.560156, -24.887466, -81.867630, -643.921204
1733470078.163752, 13.117831, -12.730868, -4.745607, -0.071148, -1.262372, 2.022126, -27.458389, -82.041550, -644.646851
1733470078.173750, 12.467955, -16.839468, -6.525696, -0.290277, 0.564863, 1.875018, -29.983398, -82.617554, -645.671143
1733470078.183748, 14.844499, -22.706160, -5.966351, -0.437737, 2.281377, 1.095269, -30.966522, -82.897751, -645.818298
1733470078.193761, 21.260810, -26.903794, -2.737620, -0.291204, 2.995000, 0.336038, -30.844711, -83.297516, -645.918091
1733470078.203751, 28.472594, -25.948208, 4.102315, 0.057054, 1.933415, 0.043775, -30.466919, -83.331741, -644.805664
1733470078.213744, 32.751182, -23.499089, 10.828525, 0.273504, -0.499133, 0.102397, -30.352631, -83.128326, -645.204346
1733470078.223753, 33.802237, -22.636728, 11.143961, 0.221777, -2.627591, 0.388881, -30.619812, -82.930099, -644.831604
1733470078.233791, 31.726614, -22.523153, 6.208315, 0.066435, -3.422647, 0.810696, -30.847534, -82.832458, -645.402710
1733470078.243668, 28.742391, -21.953782, 0.053271, -0.187399, -2.758643, 1.348447, -32.186188, -82.799179, -645.560059
1733470078.253744, 26.385449, -22.005556, -4.279785, -0.389109, -1.290206, 1.790919, -32.962845, -83.148087, -646.036499
1733470078.263760, 25.128493, -22.299445, -5.866991, -0.330249, 0.154706, 2.217068, -33.357697, -83.268311, -646.094971
1733470078.273758, 22.712145, -21.899763, -5.105785, -0.105285, 1.247195, 2.568420, -34.050171, -83.285782, -645.396851
1733470078.283747, 19.328091, -21.914128, -3.829675, 0.134511, 2.054208, 2.761799, -34.058899, -83.753296, -645.331421
1733470078.293753, 16.459987, -21.049671, -2.297236, 0.321421, 2.657880, 2.887786, -34.133514, -84.037933, -644.708069
1733470078.303738, 12.781146, -19.816658, -0.949002, 0.353549, 3.289240, 2.911490, -33.869568, -84.157974, -643.713562
1733470078.313750, 8.164078, -18.432959, 1.823185, 0.115951, 3.810850, 2.734017, -33.826126, -84.745880, -643.886658
1733470078.323737, 2.805107, -17.621623, 6.194548, -0.365865, 3.688925, 2.146146, -33.311600, -84.769241, -643.814148
1733470078.333734, -1.922095, -15.519514, 9.850344, -0.891511, 2.701702, 1.234406, -32.751007, -84.644745, -644.163147
1733470078.343741, -6.251859, -11.764957, 10.693702, -1.298730, 1.139637, 0.174513, -31.660080, -84.206116, -644.484741
1733470078.353751, -9.604490, -6.638672, 8.514679, -1.506576, -0.517787, -0.786786, -30.502396, -83.513504, -644.382141
1733470078.363752, -10.454730, -0.801908, 3.616442, -1.444237, -1.682317, -1.304975, -28.966431, -83.025208, -644.779907
1733470078.373357, -9.510966, 3.340510, -2.864363, -1.116173, -1.813748, -1.181656, -27.943527, -82.442047, -644.611023
1733470078.383757, -8.375067, 5.907842, -8.032696, -0.690053, -0.920472, -0.450532, -27.427429, -82.231720, -644.844727
1733470078.393803, -8.654291, 6.939145, -9.145401, -0.496739, 0.364836, 0.537800, -27.802567, -82.023026, -645.250122
1733470078.403734, -11.951406, 6.362741, -6.457012, -0.781105, 1.157742, 1.184072, -28.433945, -82.203705, -644.896301
1733470078.413731, -17.389386, 4.375703, -3.040187, -1.218948, 0.837799, 1.097245, -28.982315, -82.025391, -646.395264
1733470078.423729, -21.969793, 2.674772, -3.858106, -1.305771, 0.180293, 0.327868, -29.349350, -81.783478, -647.203003
1733470078.433732, -22.947226, 1.817349, -7.714716, -0.785280, -0.115638, -0.650375, -28.944565, -81.641556, -647.532593
1733470078.443745, -20.705954, 1.811662, -10.602124, 0.193314, -0.092497, -1.472364, -28.560760, -81.689041, -647.087524
1733470078.453731, -16.976087, 2.309208, -10.991929, 1.294530, 0.119917, -2.030964, -27.609650, -82.084122, -646.442200
1733470078.463732, -12.819603, 3.320458, -8.568249, 2.213619, 0.159507, -2.272761, -27.049606, -82.696930, -645.659546
1733470078.473729, -9.254637, 3.929483, -4.901829, 2.771562, 0.006701, -2.327935, -26.201294, -83.494370, -644.106384
1733470078.483791, -6.403592, 3.758448, -1.217900, 2.942084, -0.342585, -2.262815, -25.441483, -83.822327, -643.156921
1733470078.492830, -4.045752, 3.453337, 1.479916, 2.786249, -0.725205, -2.081168, -25.327835, -84.238052, -642.093628
1733470078.503743, -2.301875, 2.671929, 2.766350, 2.406402, -1.004285, -1.857118, -25.052200, -84.518204, -640.534424
1733470078.513741, -1.282694, 1.871518, 3.041983, 1.925381, -1.057112, -1.648552, -24.829422, -84.653305, -640.671631
1733470078.523790, -0.828394, 0.897077, 2.495806, 1.436953, -0.863308, -1.506181, -24.774841, -84.608459, -640.541016
1733470078.533734, -0.354491, 0.016310, 1.627459, 1.013191, -0.485646, -1.429836, -24.598602, -84.715225, -640.507690
1733470078.543736, 0.743549, -0.930596, 0.840963, 0.678714, -0.049292, -1.415883, -24.658600, -84.521255, -639.982239
1733470078.553734, 2.709638, -2.165855, 0.856825, 0.399153, 0.243062, -1.388736, -24.109421, -84.344254, -640.044067
1733470078.563728, 5.005827, -3.596540, 1.205630, 0.080692, 0.321030, -1.339294, -23.838089, -84.122696, -640.026855
1733470078.573736, 7.581988, -4.531476, 1.586757, -0.223271, 0.015164, -1.237068, -23.814438, -83.931961, -640.398438
1733470078.583729, 10.036493, -5.615899, 1.209521, -0.365523, -0.565921, -1.142099, -24.012711, -83.414124, -641.309814
1733470078.593726, 11.775731, -7.300669, -0.874632, -0.223896, -0.994222, -1.071103, -24.339508, -83.515182, -641.586914
1733470078.603726, 13.305028, -8.620473, -2.832640, 0.165564, -1.049859, -1.047792, -25.131836, -83.399551, -640.912170
1733470078.613792, 15.582811, -10.835708, -3.531447, 0.589977, -0.589885, -1.187181, -25.077820, -83.402939, -641.728516
1733470078.623736, 20.232650, -13.961188, -2.912696, 0.765611, 0.233945, -1.265684, -25.014603, -83.197037, -641.360474
1733470078.633730, 26.344748, -16.336386, 0.077662, 0.561906, 0.833077, -1.064493, -24.860550, -83.319550, -641.234253
1733470078.643359, 31.164874, -17.397017, 2.886060, 0.186745, 1.337873, -0.727319, -24.578903, -83.390182, -640.778259
1733470078.653732, 35.406651, -18.060511, 5.241207, -0.192634, 1.653835, -0.285593, -24.658035, -83.290649, -640.915894
1733470078.663727, 38.413469, -17.869423, 8.785822, -0.657890, 1.312871, 0.306725, -24.770538, -83.297089, -641.184326
1733470078.673731, 38.255602, -17.156849, 10.227281, -1.097582, 0.729542, 0.794762, -25.437073, -83.179535, -641.788330
1733470078.683728, 36.979941, -17.351977, 9.145102, -1.409720, 0.237477, 1.113731, -25.493469, -82.798019, -642.308716
1733470078.693733, 36.294302, -17.200843, 7.229741, -1.506224, -0.203511, 1.484530, -25.560425, -82.767456, -642.583679
1733470078.703727, 35.038543, -16.371551, 4.575619, -1.393801, -0.409382, 1.993313, -26.278976, -82.615021, -642.351440
1733470078.713722, 31.710453, -15.034539, 2.638261, -1.212945, -0.285127, 2.483595, -26.868668, -82.751541, -643.496338
1733470078.723731, 28.034306, -14.644883, 1.946785, -1.160036, 0.062912, 2.945065, -27.380066, -82.983154, -644.212891
1733470078.733732, 24.155101, -15.786767, 2.466028, -1.307375, 0.385353, 3.287908, -28.191986, -82.853760, -644.615479
1733470078.743728, 18.439393, -15.490634, 2.983923, -1.540076, 0.733268, 3.389532, -28.805801, -82.983948, -645.065186
1733470078.753745, 12.288689, -14.465168, 3.665672, -1.818056, 0.970436, 3.215388, -29.342621, -82.753662, -645.182007
1733470078.763733, 6.586598, -12.971934, 4.288165, -2.098585, 0.899343, 2.748494, -29.786118, -82.419113, -646.118225
1733470078.773735, 1.849970, -10.531794, 4.375852, -2.226909, 0.436276, 2.107782, -29.878876, -82.028107, -646.732544
1733470078.783725, -1.920898, -7.323564, 4.112640, -2.109401, -0.446191, 1.407163, -29.742706, -81.634247, -647.524475
1733470078.793771, -5.103540, -3.730166, 3.226785, -1.732649, -1.575410, 0.715164, -29.632446, -81.251740, -647.884399
1733470078.803722, -7.774272, -0.745495, 1.327734, -1.189223, -2.579880, 0.097016, -29.525330, -80.858322, -647.034058
1733470078.813723, -9.366865, 1.506102, -1.151162, -0.532524, -3.104805, -0.263778, -29.030991, -80.593948, -647.587036
1733470078.823809, -10.363302, 3.539528, -3.749320, 0.048909, -2.792235, -0.190791, -29.258545, -80.683670, -647.419556
1733470078.833722, -11.747300, 5.030218, -4.080318, 0.246004, -1.918662, 0.264063, -29.280502, -80.559662, -647.213623
1733470078.843731, -14.300716, 5.089175, -2.645892, -0.247217, -0.935878, 0.752019, -30.085922, -80.306717, -647.436523
1733470078.853720, -18.086697, 3.341108, -1.852065, -1.080615, -0.134523, 0.944444, -30.106537, -79.886505, -648.519470
1733470078.863777, -22.226421, 1.071705, -3.393182, -1.702338, 0.624556, 0.718815, -29.961044, -79.338867, -649.581604
1733470078.873730, -24.220642, 0.135721, -5.548862, -1.945524, 1.100506, 0.307874, -29.882370, -78.843689, -650.369263
1733470078.883730, -24.406492, -0.527473, -7.697059, -1.762647, 1.267704, -0.205540, -29.189178, -78.383011, -650.648804
1733470078.893726, -23.743298, -0.806247, -10.045322, -1.146510, 1.415048, -0.767458, -28.671463, -78.342957, -650.995850
1733470078.903727, -21.785589, -0.765247, -11.164013, -0.225925, 1.519877, -1.297570, -28.119141, -78.572174, -650.236694
1733470078.913723, -18.326417, -0.610073, -10.198401, 0.786815, 1.362756, -1.720992, -27.146240, -78.846970, -650.352783
1733470078.923720, -14.683489, 0.001047, -7.942764, 1.706975, 0.922085, -1.997722, -26.359390, -79.387146, -649.207153
1733470078.933715, -11.585243, 0.814477, -5.267992, 2.355982, 0.311460, -2.132635, -25.757477, -80.140488, -647.969299
1733470078.943721, -9.008483, 1.268029, -2.909853, 2.685868, -0.291717, -2.140616, -25.024918, -80.685898, -647.026489
1733470078.953720, -6.769904, 1.350180, -1.495927, 2.710500, -0.658281, -2.032913, -25.044495, -80.953491, -645.327759
1733470078.963715, -5.234922, 1.343297, -0.943166, 2.462378, -0.651487, -1.793482, -24.783417, -81.423660, -644.589600
1733470078.973712, -4.531476, 0.645537, -0.714071, 1.999685, -0.329789, -1.612275, -24.543243, -81.477142, -644.272339
1733470078.983755, -3.615394, -0.513706, -0.616507, 1.459144, 0.155184, -1.528955, -24.567749, -81.631332, -644.195374
1733470078.993735, -1.865981, -1.765873, -0.802357, 0.964805, 0.586883, -1.465632, -24.549515, -81.681396, -644.367554
1733470079.003718, 0.857573, -3.116203, -0.920122, 0.670742, 0.660768, -1.412594, -24.668777, -81.784042, -643.933655
1733470079.013643, 4.237138, -5.114913, -1.564312, 0.640747, 0.476077, -1.425099, -25.276001, -81.786270, -644.499878
1733470079.023736, 7.496245, -7.890540, -3.662081, 0.884705, 0.596935, -1.620101, -25.463425, -81.922623, -643.859253
1733470079.033728, 10.986393, -10.642675, -5.038747, 1.822087, 1.312273, -2.768638, -25.362671, -82.273926, -643.187866
1733470079.043721, 15.720328, -13.046903, -2.577957, 2.222123, 1.140107, -3.414546, -24.122147, -82.221100, -641.347229
1733470079.053236, 22.564752, -14.184148, 1.291672, 2.222123, 1.140107, -3.414546, -22.340820, -82.075577, -640.915039
1733470079.063755, 31.850663, -12.882900, 5.855170, 2.508394, 0.506031, -3.354995, -22.207642, -82.036392, -639.711487
1733470079.073785, 45.094040, -12.737602, 14.360122, 2.450116, -0.400913, -2.513666, -21.375824, -82.021439, -638.763306
1733470079.083712, 46.205698, -14.254328, 15.557672, 0.694583, -0.972825, -0.223087, -20.950455, -81.779312, -639.312195
1733470079.093716, 43.444285, -14.613309, 15.497967, -0.738026, -0.438294, 1.044670, -20.880524, -81.888092, -638.818298
1733470079.103499, 43.444285, -14.613309, 15.497967, -0.738026, -0.438294, 1.044670, -20.880524, -81.888092, -638.818298
1733470079.113716, 29.906571, -13.991415, 8.067711, -2.976848, 1.234866, 2.604823, -22.016953, -81.562744, -641.127686
1733470079.123719, 24.735545, -12.995278, 3.475932, -3.117564, 1.623389, 2.764537, -22.729309, -81.816223, -641.618835
1733470079.133730, 22.237644, -13.190106, 0.654814, -2.472076, 1.151384, 2.749056, -23.373154, -81.666229, -643.169434
1733470079.143724, 20.163817, -12.970887, -1.111658, -1.407706, 0.425050, 2.662112, -23.913895, -81.926865, -642.784363
1733470079.153263, 16.543634, -12.959215, -0.468815, -0.404067, -0.251071, 2.435049, -23.913895, -81.926865, -642.784363
1733470079.163717, 13.217938, -13.477859, 1.442656, 0.235382, -0.757938, 2.123186, -24.829391, -82.344101, -643.273621
1733470079.173728, 10.521469, -13.025504, 2.499098, 0.566106, -0.938954, 1.863405, -25.000061, -82.738266, -642.233704
1733470079.183718, 7.411102, -12.216713, 2.982128, 0.620572, -0.748476, 1.680433, -25.198364, -83.003662, -642.460266
1733470079.193715, 3.321207, -10.989086, 3.896114, 0.341378, -0.366793, 1.476097, -25.249283, -83.182159, -641.522339
1733470079.203254, -1.413626, -9.857078, 4.615123, -0.143818, -0.080686, 1.158163, -25.249283, -83.182159, -641.522339
1733470079.213712, -5.033061, -7.685836, 4.300884, -0.616204, -0.101773, 0.875946, -24.807175, -83.372055, -642.145996
1733470079.223716, -7.425766, -5.338322, 2.071733, -0.806544, -0.256149, 0.775915, -24.363968, -83.301376, -642.121460
1733470079.233720, -9.956587, -4.044106, -0.864008, -0.720253, -0.339828, 0.787827, -23.720840, -83.134811, -641.714294
1733470079.243727, -13.497162, -3.631854, -2.581398, -0.535274, -0.439843, 0.724151, -24.137390, -83.085297, -642.564880
1733470079.253268, -17.281497, -3.898209, -3.303998, -0.406736, -0.586204, 0.426412, -24.121628, -83.107513, -642.122009
1733470079.263279, -20.113389, -4.323479, -4.659416, -0.385610, -0.387397, -0.081596, -24.469086, -82.857590, -642.702881
1733470079.273723, -21.221904, -4.444237, -5.801001, -0.418822, 0.134071, -0.720934, -24.298233, -82.876053, -643.070068
1733470079.283710, -20.156634, -3.995474, -6.052991, -0.387679, 0.690795, -1.357302, -24.101654, -82.649048, -642.601807
1733470079.293724, -17.582568, -3.176058, -5.454141, -0.238961, 1.025042, -1.940199, -23.426788, -82.464188, -643.629272
1733470079.303272, -14.395437, -1.906533, -4.282179, 0.055274, 0.975671, -2.371093, -22.471893, -82.435669, -643.176392
1733470079.313717, -11.174787, -0.479738, -3.409044, 0.441817, 0.649703, -2.602747, -21.434067, -82.049164, -643.736084
1733470079.323713, -8.517372, 0.365714, -2.936039, 0.814911, 0.333303, -2.697653, -20.172989, -82.034363, -643.235840
1733470079.333717, -6.472126, 0.927903, -2.232294, 1.099467, 0.102441, -2.719900, -19.430496, -81.702103, -642.782104
1733470079.343720, -4.435259, 1.238251, -1.256357, 1.241614, 0.002708, -2.660506, -18.533447, -81.483200, -641.634888
1733470079.353291, -2.549226, 1.408539, -0.190040, 1.167776, 0.051364, -2.504484, -17.138565, -81.369171, -641.358887
1733470079.363714, -1.077241, 1.531092, 0.795773, 0.899033, 0.248921, -2.320360, -16.465698, -81.016556, -641.691589
1733470079.373715, 0.454749, 1.467197, 1.424700, 0.492671, 0.639576, -2.110770, -15.731903, -80.760422, -641.561462
1733470079.383706, 2.191443, 1.387290, 2.087295, -0.001104, 1.077567, -1.901034, -15.075607, -80.316803, -640.561279
1733470079.393709, 3.777901, 1.293916, 3.358766, -0.488905, 1.140405, -1.723052, -14.488632, -79.971512, -640.958374
1733470079.403299, 5.584775, 0.867449, 4.334253, -0.831193, 0.740528, -1.633185, -14.221100, -79.471970, -640.729614
1733470079.413400, 7.650671, 0.298527, 4.313902, -0.954081, 0.058925, -1.600576, -14.011734, -78.844101, -641.108154
1733470079.423708, 9.480141, 0.059556, 3.044227, -0.914813, -0.427063, -1.601093, -13.941269, -78.075455, -641.830750
1733470079.433707, 11.417798, -0.243909, 1.440262, -0.815089, -0.424360, -1.673757, -13.917358, -77.453262, -642.022095
1733470079.443711, 14.490008, -0.933739, -0.085293, -0.696352, 0.077203, -1.820390, -14.292358, -76.777222, -643.193054
1733470079.453297, 19.668666, -1.608455, -0.305111, -0.512919, 0.569644, -1.886495, -14.467484, -76.093445, -642.834351
1733470079.463712, 26.393829, -1.173608, 1.269226, -0.213323, 0.585156, -1.610317, -14.096970, -75.786469, -642.929504
1733470079.473711, 32.632969, 0.177620, 3.850624, 0.075056, 0.036123, -0.959384, -14.100632, -75.316681, -643.347534
1733470079.483704, 37.149032, 0.789488, 6.297648, 0.158691, -0.913674, 0.067295, -13.961853, -75.006409, -642.837769
1733470079.493722, 37.916373, -0.235829, 6.586898, 0.031188, -1.639046, 1.244991, -14.288681, -75.303772, -643.951660
1733470079.503310, 34.473960, -2.893991, 5.157260, -0.318340, -1.705542, 2.114601, -15.641418, -75.398285, -644.324463
1733470079.513709, 30.672566, -6.428880, 3.361609, -0.862703, -1.178702, 2.551437, -17.063324, -75.847916, -644.913879
1733470079.523705, 28.772767, -9.729138, 1.969979, -1.406616, -0.555712, 2.776460, -18.213806, -76.199463, -646.089417
1733470079.533717, 27.811046, -10.688614, 0.817620, -1.707389, -0.155015, 2.989063, -19.194702, -76.328323, -646.010315
1733470079.543714, 26.699089, -9.359084, -0.157269, -1.703911, -0.004583, 3.349820, -19.536530, -76.660263, -647.510986
1733470079.553330, 22.752847, -7.978677, 0.795922, -1.658296, -0.088151, 3.624345, -20.457428, -76.996094, -647.288513
1733470079.563712, 16.663195, -8.984990, 3.086425, -1.877322, -0.422428, 3.580348, -21.505417, -77.141312, -647.627380
1733470079.573705, 10.273669, -10.044723, 3.543418, -2.262573, -0.689599, 3.270697, -21.988174, -76.858139, -648.753296
1733470079.583700, 4.769399, -10.694151, 1.622072, -2.589264, -0.706916, 2.905825, -22.836853, -76.521362, -649.139282
1733470079.593700, 1.259649, -13.134890, -1.389535, -2.797658, -0.617511, 2.486801, -23.321243, -75.832489, -651.026306
1733470079.603335, -0.917428, -15.675886, -5.886145, -2.664546, -0.272640, 2.131923, -23.724991, -75.189072, -651.646667
1733470079.613399, -2.995296, -17.373524, -10.002975, -2.075479, 0.260903, 1.812755, -23.809372, -74.767792, -653.427063
1733470079.623698, -5.819257, -18.668787, -10.920852, -1.232602, 0.530474, 1.393620, -23.775284, -74.440887, -652.707153
1733470079.633186, -9.338733, -18.226608, -8.901642, -0.473322, 0.297618, 0.820573, -23.875259, -74.480591, -653.577087
1733470079.643704, -12.391191, -17.290326, -6.422895, -0.002238, -0.216286, 0.125619, -23.344009, -74.595566, -652.839294
1733470079.653334, -14.317176, -15.875802, -4.834043, 0.131625, -0.650770, -0.583741, -23.138992, -74.265900, -653.134033
1733470079.663745, -14.711621, -13.766360, -4.752041, 0.033088, -0.673150, -1.170495, -22.685471, -74.084412, -653.223450
1733470079.673709, -13.788656, -11.587936, -5.264401, -0.178043, -0.230525, -1.603038, -22.249496, -73.940308, -652.424194
1733470079.683690, -12.128577, -9.618256, -5.055058, -0.467254, 0.371962, -1.866954, -21.492264, -73.637131, -653.129395
1733470079.693693, -10.496030, -8.080281, -4.265121, -0.779601, 0.796494, -2.001951, -20.756821, -73.104874, -653.361511
1733470079.703761, -9.492411, -6.735488, -3.720589, -1.013786, 0.901918, -2.129138, -19.889435, -72.497131, -653.238037
1733470079.713702, -8.616133, -5.732168, -4.118027, -1.066498, 0.851262, -2.283655, -19.185287, -71.567398, -654.096191
1733470079.723696, -7.474997, -5.037101, -5.075558, -0.902575, 0.788540, -2.461100, -18.217804, -70.873734, -654.312500
1733470079.733692, -6.300491, -4.324826, -5.877167, -0.555111, 0.748174, -2.638004, -17.293427, -70.180420, -654.789978
1733470079.743689, -5.251681, -3.549853, -6.196792, -0.082404, 0.728697, -2.835637, -16.387939, -69.618820, -653.865784
1733470079.753428, -4.027197, -2.600851, -6.042516, 0.430432, 0.744010, -3.055227, -15.382324, -69.059845, -654.284546
1733470079.763693, -2.516904, -1.579874, -5.437082, 0.895701, 0.783480, -3.230158, -14.234772, -68.833633, -653.567566
1733470079.773708, -0.976236, -0.378733, -4.497358, 1.256389, 0.829367, -3.276807, -13.000061, -68.557037, -653.107910
1733470079.783694, 0.483479, 0.751480, -3.593846, 1.513262, 0.869617, -3.228314, -11.841064, -68.197205, -652.022644
1733470079.793702, 1.706318, 1.487697, -2.893991, 1.702303, 0.936423, -3.147407, -10.903885, -67.862289, -651.269470
1733470079.803700, 2.845808, 2.127248, -2.220023, 1.851855, 1.005527, -3.035907, -9.802094, -67.718002, -650.744873
1733470079.813682, 4.325724, 2.858976, -1.285237, 2.005074, 0.968208, -2.871515, -8.729324, -67.570633, -649.930176
1733470079.823706, 5.842600, 3.419070, -0.150236, 2.158775, 0.767578, -2.655887, -8.033859, -67.674011, -649.163391
1733470079.833701, 6.977302, 3.163189, 0.712275, 2.214207, 0.557177, -2.505175, -7.125549, -67.645279, -648.035645
1733470079.843693, 7.601441, 2.792836, 1.527501, 2.143521, 0.335035, -2.467478, -7.008011, -67.399460, -647.637207
1733470079.853686, 8.184728, 3.029413, 2.490718, 2.008869, 0.099336, -2.484454, -6.639053, -67.080872, -646.882690
1733470079.863687, 9.480141, 3.308487, 3.334225, 1.817887, -0.152220, -2.498586, -6.436035, -66.810852, -646.282593
1733470079.873686, 11.154137, 3.819051, 3.989339, 1.578459, -0.327723, -2.587565, -6.560471, -66.408417, -646.301025
1733470079.883694, 14.457237, 4.878784, 4.556914, 1.285455, -0.459657, -2.583214, -6.067932, -66.015320, -646.550171
1733470079.893689, 20.097677, 6.049399, 4.995202, 0.866774, -0.680427, -2.126991, -5.887009, -65.633759, -645.483521
1733470079.903679, 25.572767, 7.398233, 4.532673, 0.452125, -0.848570, -1.199940, -5.944962, -65.262894, -646.244263
1733470079.913686, 29.670144, 7.985710, 3.168127, 0.192126, -0.852523, -0.002758, -6.472092, -65.375931, -646.812500
1733470079.923690, 32.442929, 7.795820, 2.031630, 0.043384, -0.808262, 1.378055, -7.200272, -65.720596, -646.856873
1733470079.933694, 32.686838, 7.418284, 1.078438, -0.018081, -0.679067, 2.694563, -8.441391, -66.643570, -647.054199
1733470079.943694, 31.481208, 6.478410, 0.237924, -0.051691, -0.465359, 3.777484, -9.785034, -68.019943, -646.709717
1733470079.953695, 30.153324, 5.104288, -0.294936, 0.012704, -0.303894, 4.705912, -11.091049, -69.368057, -646.863037
1733470079.963688, 28.713511, 5.109975, -0.299874, 0.133699, -0.295996, 5.573022, -12.968231, -71.112885, -646.951416
1733470079.973696, 27.851598, 4.722563, -0.715268, 0.328417, -0.350411, 6.376852, -14.855286, -73.012161, -647.546143
1733470079.983698, 26.818351, 4.340089, -1.340005, 0.694315, -0.484567, 7.297388, -16.273331, -75.086411, -646.993347
1733470079.993690, 23.614610, 6.025457, -1.044321, 1.082216, -0.542834, 8.504301, -18.048340, -77.063828, -646.465698
1733470080.003703, 13.947422, 6.218041, 0.509067, 1.088879, -0.132413, 9.469536, -21.616364, -79.120926, -646.491760
1733470080.013284, -1.213411, -1.393874, 4.286519, 0.198342, 0.343051, 9.202796, -24.735504, -80.409515, -646.678101
1733470080.023417, -16.877326, -9.630826, 6.858340, -1.347476, 0.894958, 7.642740, -26.819931, -80.589951, -647.413086
1733470080.033701, -26.894067, -14.777162, 4.732140, -2.617591, 1.460957, 5.352862, -28.430161, -80.483047, -647.669189
1733470080.043693, -27.154886, -20.301483, -1.941548, -2.844061, 1.480213, 3.217372, -28.941895, -79.860153, -648.847168
1733470080.053437, -22.364537, -23.604135, -10.744728, -1.623743, 1.301192, 1.731223, -29.309738, -79.716324, -649.959106
1733470080.063699, -18.071883, -25.019707, -15.391275, 0.401956, 0.806598, 0.598417, -29.452240, -79.966110, -649.471802
1733470080.073687, -15.737985, -25.114876, -14.145542, 2.360089, 0.140609, -0.332921, -29.508347, -80.708862, -648.106689
1733470080.083686, -15.329325, -23.752875, -9.539547, 3.711198, -0.401791, -1.274914, -28.743988, -81.804062, -646.846619
1733470080.093687, -15.469535, -22.214301, -2.781613, 4.263481, -1.013166, -2.193041, -27.818085, -82.990372, -644.470398
1733470080.103461, -15.100828, -20.701764, 2.905214, 4.131329, -1.727942, -3.062012, -26.711700, -83.765305, -643.275208
1733470080.113681, -14.390050, -18.452711, 6.000767, 3.526798, -2.318263, -3.840726, -25.467728, -84.123917, -641.903503
1733470080.123680, -12.531251, -16.173131, 6.564751, 2.682311, -2.616571, -4.389495, -23.791840, -84.015015, -641.083679
1733470080.133687, -9.454253, -13.019220, 5.533599, 1.748021, -2.448948, -4.518242, -22.155518, -83.880478, -640.799133
1733470080.143723, -6.384887, -9.753828, 4.111293, 0.751211, -1.821818, -4.317646, -20.815704, -83.432373, -639.627563
1733470080.153680, -4.093935, -8.029255, 3.050961, -0.251794, -0.963580, -4.043199, -19.674789, -82.627518, -640.626404
1733470080.163683, -2.751237, -6.609792, 2.580351, -1.160029, -0.152394, -3.839698, -18.255463, -81.680573, -641.181274
1733470080.173744, -1.830367, -4.836287, 2.409165, -1.913435, 0.394562, -3.757362, -17.051575, -80.407013, -641.884644
1733470080.183674, -1.117643, -3.084181, 2.079215, -2.464749, 0.592994, -3.789135, -15.482117, -79.286713, -643.313232
1733470080.193676, -0.556951, -1.554136, 1.124377, -2.767951, 0.563018, -3.891761, -13.933456, -77.438507, -644.358032
1733470080.203725, 0.028132, -0.129736, -0.134225, -2.805162, 0.461309, -4.019505, -12.360870, -75.596146, -644.497498
1733470080.213677, 0.756268, 1.328632, -1.221342, -2.651428, 0.357471, -4.139905, -10.893692, -73.837875, -645.634644
1733470080.223667, 1.614889, 2.958784, -1.776947, -2.356588, 0.120083, -4.239663, -9.692490, -72.006287, -646.026733
1733470080.233672, 3.131616, 4.661062, -2.141464, -1.921041, -0.241389, -4.267100, -8.769302, -70.247452, -647.302124
1733470080.243722, 5.343559, 6.346879, -2.574365, -1.342730, -0.653492, -4.136619, -8.003403, -68.367523, -647.637939
1733470080.253688, 7.573608, 7.779210, -3.141492, -0.759290, -0.939311, -3.881589, -7.270294, -67.160431, -648.248047
1733470080.263677, 9.581745, 8.748413, -3.297564, -0.261688, -1.154567, -3.537430, -6.903564, -65.890137, -648.304199
1733470080.273680, 11.252748, 9.463681, -3.224092, 0.150615, -1.293110, -3.132212, -7.179840, -65.018433, -648.562744
1733470080.283680, 12.308591, 9.995792, -3.172467, 0.507045, -1.319781, -2.820003, -7.243164, -64.276764, -649.271545
1733470080.293724, 13.440150, 10.261099, -2.410662, 0.807536, -1.387346, -2.551794, -7.153580, -63.765823, -649.745056
1733470080.303687, 15.297153, 10.568006, -1.179593, 0.910516, -1.497568, -2.129378, -7.391037, -63.426392, -649.952637
1733470080.313667, 16.624738, 11.326220, -0.188094, 0.743634, -1.474909, -1.616224, -7.534592, -63.176254, -650.367310
1733470080.323669, 17.659332, 11.749096, 0.185401, 0.304776, -1.215611, -1.049186, -7.809174, -62.925079, -650.528687
1733470080.333675, 19.352631, 11.386374, -0.236577, -0.231561, -0.856494, -0.341071, -8.297302, -62.788635, -650.770264
1733470080.343670, 20.847661, 10.352827, -1.508796, -0.545168, -0.553417, 0.427682, -8.941040, -63.040894, -650.385437
1733470080.353695, 22.355409, 9.309255, -2.772037, -0.582978, -0.392393, 1.222801, -9.546143, -63.155029, -651.522827
1733470080.363679, 24.151360, 8.443152, -3.441216, -0.499812, -0.397879, 2.130183, -10.853897, -63.849792, -652.118896
1733470080.373737, 24.660427, 6.627150, -3.866785, -0.429032, -0.361279, 2.843632, -11.744843, -64.522537, -652.439026
1733470080.383672, 25.007885, 5.818658, -4.192846, -0.374387, -0.263479, 3.509341, -13.142593, -65.513809, -652.299744
1733470080.393675, 26.003125, 5.417629, -4.516661, -0.231718, -0.182976, 4.250042, -14.338654, -66.818314, -652.474365
1733470080.403670, 26.637588, 4.455310, -4.373159, -0.039500, -0.136785, 5.081389, -14.700851, -68.101196, -651.930908
1733470080.413668, 27.541100, 4.531027, -3.409044, 0.050127, -0.127493, 6.302474, -16.571045, -69.804749, -652.152039
1733470080.423668, 25.635316, 4.390667, -0.940772, -0.210181, -0.165902, 7.709170, -17.851196, -71.056503, -652.268188
1733470080.433668, 19.020885, 2.766500, 1.383699, -1.017867, 0.209933, 8.897150, -19.941772, -72.005554, -651.738831
1733470080.443668, 9.272893, 0.359878, 3.103933, -2.561956, 1.032061, 9.660250, -22.131119, -72.379684, -653.858521
1733470080.453669, -1.220145, -4.231303, 3.002030, -4.573217, 2.072375, 9.774557, -23.933945, -71.519165, -655.641479
1733470080.463669, -10.736797, -9.177574, -1.903690, -6.193625, 3.217559, 9.067529, -25.840317, -70.076447, -657.583679
1733470080.473661, -18.976592, -12.638093, -7.084293, -6.748137, 3.179737, 7.546442, -27.448227, -68.537186, -659.860474
1733470080.483674, -24.743176, -17.987338, -13.400347, -5.855218, 1.929409, 5.457100, -28.507309, -67.136963, -661.058899
1733470080.493691, -26.239702, -25.388563, -21.795615, -3.808562, 0.858488, 2.927107, -28.698853, -66.123474, -661.785950
1733470080.503667, -23.699304, -28.948741, -26.488100, -1.278024, -0.075682, 0.618296, -28.544464, -65.831451, -660.870850
1733470080.513444, -18.379388, -28.286146, -27.197832, 1.214364, -0.679881, -1.073873, -27.746170, -66.948837, -660.059570
1733470080.523669, -13.491476, -25.096620, -23.637504, 3.195521, -0.904540, -2.158641, -26.951920, -68.270035, -658.753479
1733470080.533674, -10.084976, -20.687099, -16.671874, 4.343137, -0.888043, -2.775754, -26.132278, -70.093689, -656.871826
1733470080.543675, -8.104822, -16.983269, -9.007585, 4.579544, -0.801698, -3.068638, -25.594238, -71.448441, -655.678955
1733470080.553663, -7.385663, -14.740800, -2.524386, 3.974896, -0.824692, -3.291179, -24.707062, -72.177322, -654.768921
1733470080.563240, -7.364115, -13.242329, 1.087117, 2.858925, -0.943882, -3.572334, -24.242294, -72.458679, -654.187683
1733470080.573615, -7.047482, -11.542895, 0.837971, 1.719915, -0.812227, -3.860934, -22.869019, -72.442902, -654.220642
1733470080.583663, -6.222231, -9.692925, -1.314267, 0.860227, -0.381414, -4.080073, -21.429703, -72.255264, -654.048401
1733470080.593665, -5.154716, -7.824999, -3.426701, 0.365008, 0.170672, -4.178429, -19.964188, -71.582031, -653.382751
1733470080.603665, -4.167856, -5.826888, -4.768950, 0.220103, 0.706108, -4.207323, -18.263718, -70.923019, -653.329468
1733470080.613660, -3.418471, -3.717746, -5.119102, 0.339286, 1.151327, -4.211897, -16.490128, -70.478439, -653.000854
1733470080.623660, -2.657564, -1.734300, -4.716877, 0.577628, 1.476168, -4.212773, -14.622498, -69.832626, -652.443115
1733470080.633679, -1.852514, -0.055964, -3.652205, 0.808221, 1.622606, -4.202477, -12.942078, -69.293457, -651.077637
1733470080.643662, -0.866252, 1.301548, -2.184559, 0.979113, 1.505841, -4.192631, -11.151062, -68.632034, -651.193481
1733470080.653658, 0.276680, 2.484882, -0.707337, 1.114351, 1.059576, -4.172466, -10.239929, -67.817520, -650.697449
1733470080.663654, 1.497274, 3.577985, 0.344765, 1.243021, 0.409054, -4.093202, -8.979462, -67.201248, -650.034485
1733470080.673653, 2.601150, 4.666299, 0.815824, 1.333666, -0.238689, -3.908808, -7.965973, -66.352173, -649.764099
1733470080.683656, 3.792864, 6.042815, 1.024120, 1.350295, -0.845100, -3.527079, -7.965973, -66.352173, -649.764099
1733470080.693664, 4.933851, 7.260267, 0.815525, 1.268673, -1.240852, -2.935176, -7.150024, -66.015121, -649.668091
1733470080.703690, 5.679795, 7.744345, 0.021697, 1.080240, -1.320674, -2.233457, -7.080215, -65.637192, -650.022827
1733470080.713662, 6.251261, 7.237821, -0.827795, 0.838376, -1.106023, -1.540900, -7.354767, -65.384384, -649.951172
1733470080.723657, 7.201459, 6.799832, -1.755698, 0.607525, -0.501844, -0.822799, -7.470032, -65.101639, -649.457153
1733470080.733659, 8.237999, 6.789507, -2.139518, 0.384703, 0.359625, -0.110470, -7.692139, -65.401779, -650.078308
1733470080.743668, 8.775348, 6.523601, -1.246032, 0.162551, 1.106853, 0.368288, -8.485306, -65.865692, -649.134644
1733470080.753665, 9.302072, 6.287922, -0.039055, -0.051597, 1.753820, 0.522384, -8.676941, -66.128372, -649.484863
1733470080.763666, 10.816704, 7.157167, 1.231218, -0.212209, 2.234700, 0.493280, -9.107285, -66.185013, -649.043091
1733470080.773672, 13.511378, 8.025813, 3.038092, -0.331660, 2.294459, 0.382216, -9.036118, -66.483810, -648.625122
1733470080.783668, 17.630302, 8.282890, 4.642357, -0.336890, 1.687414, 0.385827, -8.604858, -66.452011, -648.014526
1733470080.793666, 22.551734, 8.515128, 4.493019, -0.051532, 0.620899, 0.763480, -9.200989, -66.802521, -647.915649
1733470080.803666, 26.787076, 7.858069, 2.849549, 0.481529, -0.449653, 1.432070, -9.858368, -67.263702, -647.883301
1733470080.813671, 29.522452, 5.863998, 0.727538, 1.087208, -1.167063, 2.283547, -10.980240, -68.339981, -648.290039
1733470080.823664, 29.910163, 4.011934, -0.978331, 1.701002, -1.376353, 3.059607, -12.623322, -69.859314, -648.311768
1733470080.833659, 29.380895, 1.833809, -1.584213, 2.174353, -1.149661, 3.630651, -14.289108, -71.385742, -647.704041
1733470080.843662, 28.897565, 0.263961, -0.484975, 2.442503, -0.847581, 4.121802, -15.715210, -73.243561, -647.439331
1733470080.853671, 28.031313, -0.769137, 1.611896, 2.557809, -0.710699, 4.630260, -16.996414, -75.273697, -646.722412
1733470080.863654, 26.414628, -1.734001, 3.531447, 2.588173, -0.576038, 5.256920, -18.129791, -77.254807, -645.593567
1733470080.873650, 22.784270, -2.635567, 6.051943, 2.338022, -0.198026, 5.999489, -19.434067, -78.825928, -644.713379
1733470080.883652, 16.013468, -4.126706, 9.609428, 1.470775, 0.478586, 6.682253, -21.199844, -80.314697, -643.686340
1733470080.893701, 6.260388, -7.488464, 14.228591, -0.297442, 0.864132, 6.856715, -23.229340, -81.371307, -644.075073
1733470080.903651, -4.887912, -12.321011, 17.576283, -2.594084, 0.363139, 6.264188, -24.716080, -81.290680, -644.932190
1733470080.913611, -15.373468, -14.925752, 13.805715, -4.379955, -0.241874, 5.089775, -26.310730, -80.645966, -647.040283
1733470080.923669, -21.650466, -16.556353, 4.291307, -5.265296, -0.280228, 3.537399, -27.920029, -79.212830, -649.001831
1733470080.933655, -22.644210, -19.436728, -5.657648, -5.189669, 0.134734, 1.861922, -28.628036, -77.579483, -651.481262
1733470080.943657, -18.493562, -23.306356, -14.037953, -4.138196, 0.731968, 0.501712, -28.807251, -76.485062, -653.219666
1733470080.953664, -12.382961, -25.353698, -18.961778, -2.471194, 1.198628, -0.508947, -28.397690, -75.537399, -653.934937
1733470080.963655, -7.569568, -22.431425, -19.201048, -0.664021, 1.231850, -1.125936, -27.771912, -75.372147, -653.398987
1733470080.973648, -4.245518, -19.574993, -16.806248, 1.018629, 1.125367, -1.477823, -26.779984, -75.598267, -653.193604
1733470080.983702, -2.909554, -17.167773, -11.924770, 2.240377, 0.754151, -1.712927, -26.072037, -76.380264, -651.753174
1733470080.993660, -2.589179, -15.443798, -6.382044, 2.850394, 0.119188, -1.943118, -24.986465, -76.986023, -650.340088
1733470081.003711, -2.617611, -14.042292, -2.320281, 2.943577, -0.617867, -2.204830, -24.655167, -77.675430, -649.795166
1733470081.013669, -2.596362, -12.860305, -0.391751, 2.726614, -1.183588, -2.547122, -23.959625, -78.331909, -648.933472
1733470081.023658, -2.080561, -11.919683, -0.049979, 2.349747, -1.434185, -2.904920, -23.371429, -78.639664, -648.258545
1733470081.033664, -1.333271, -10.176405, -0.232088, 1.914741, -1.401347, -3.188397, -22.269760, -78.590759, -647.212769
1733470081.043654, -0.591218, -8.075343, -0.423175, 1.477042, -1.214374, -3.357721, -21.364304, -78.709702, -646.905029
1733470081.053656, 0.137367, -6.094440, -0.616657, 1.076868, -0.940022, -3.423565, -20.519058, -78.353058, -646.678894
1733470081.063650, 0.872387, -4.422090, -0.685041, 0.698566, -0.594861, -3.426918, -19.136108, -77.947861, -646.656128
1733470081.073697, 1.342848, -2.891747, -0.399383, 0.321694, -0.319817, -3.387570, -17.948425, -77.431793, -646.348511
1733470081.083644, 1.750161, -1.519420, -0.013916, -0.036083, -0.185179, -3.308877, -16.898697, -76.704803, -646.339966
1733470081.093642, 2.134880, -0.291644, 0.216675, -0.357165, -0.247685, -3.218514, -15.808716, -75.746674, -646.717407
1733470081.103642, 2.652027, 0.532111, -0.141408, -0.596750, -0.389996, -3.130722, -14.919403, -75.122391, -647.387329
1733470081.113661, 3.339612, 1.462109, -0.734721, -0.726637, -0.561763, -3.017383, -13.691910, -74.211823, -647.283020
1733470081.123662, 4.236540, 2.691980, -0.988656, -0.793910, -0.816515, -2.802389, -13.000259, -73.092361, -647.881470
1733470081.133647, 5.227889, 3.907038, -0.965462, -0.809681, -1.311817, -2.415441, -12.643784, -72.392334, -647.945435
1733470081.143710, 5.702240, 4.729745, -1.204134, -0.718799, -2.043457, -1.949008, -12.711166, -71.657120, -649.271851
1733470081.153648, 5.633108, 4.645948, -2.389114, -0.440866, -2.839405, -1.463738, -13.639542, -71.176483, -650.243469
1733470081.163701, 5.582081, 4.003105, -4.385878, 0.049096, -3.276871, -1.014243, -14.568207, -71.047379, -650.905640
1733470081.173641, 5.628469, 3.499575, -6.232107, 0.552653, -3.059532, -0.638377, -15.842453, -70.967316, -651.146423
1733470081.183643, 5.868338, 3.533692, -6.941838, 0.829979, -2.375597, -0.423786, -17.020554, -71.079773, -651.264526
1733470081.193706, 6.972663, 3.451092, -6.751349, 0.853236, -1.532460, -0.407846, -17.679214, -71.451523, -651.614624
1733470081.203639, 9.690082, 3.839851, -6.760328, 0.836752, -0.647786, -0.292693, -18.444717, -71.778229, -650.875793
1733470081.213640, 12.930036, 4.593874, -6.684012, 0.965596, 0.109482, -0.029451, -19.216385, -72.064102, -651.175720
1733470081.223711, 15.566201, 4.014328, -5.792472, 1.172300, 0.632857, 0.119924, -19.320511, -72.691727, -650.817993
1733470081.233640, 18.391060, 3.075502, -3.716100, 1.281275, 0.699759, 0.264559, -19.792557, -73.345322, -649.793945
1733470081.243641, 21.487661, 2.888604, -1.773655, 1.182623, 0.474992, 0.571812, -19.805740, -73.667130, -649.675659
1733470081.253640, 24.655040, 2.823512, -0.821660, 0.874081, 0.160441, 1.125711, -20.191696, -74.316055, -649.256592
1733470081.263655, 27.012880, 2.374749, -1.120935, 0.524541, -0.036476, 1.887778, -21.134933, -74.825806, -649.326965
1733470081.273660, 27.991659, 1.333570, -3.113210, 0.333915, 0.099347, 2.694151, -22.171936, -75.347885, -648.927490
1733470081.283651, 28.838758, 0.259023, -5.169830, 0.375016, 0.392936, 3.631430, -23.086426, -76.382996, -649.027649
1733470081.293650, 28.601881, -0.042048, -6.178237, 0.618119, 0.806840, 4.669037, -24.067841, -77.676834, -648.619446
1733470081.303645, 26.674699, -0.593163, -5.805041, 0.844905, 1.420159, 5.711189, -25.341675, -78.625168, -647.685669
1733470081.313646, 23.022344, -1.649455, -3.066075, 0.762460, 2.095096, 6.727313, -27.367233, -79.895035, -647.272827
1733470081.323651, 17.022325, -3.511396, 1.159841, 0.183893, 2.724997, 7.365368, -28.849411, -80.422470, -647.221130
1733470081.333655, 10.053103, -5.822698, 5.323657, -0.868511, 3.166962, 7.572373, -30.102875, -80.551132, -646.858276
1733470081.343643, 2.435352, -8.155998, 8.381501, -2.228825, 3.295301, 7.444001, -31.688049, -80.216705, -648.571838
1733470081.353635, -5.805640, -10.490344, 9.844059, -3.679931, 2.789291, 6.770747, -33.385925, -78.940338, -650.079956
1733470081.363633, -11.958738, -12.589760, 6.914305, -4.741999, 1.935905, 5.698729, -34.522812, -77.394836, -651.849609
1733470081.373636, -15.160534, -16.080207, -0.951546, -4.954548, 1.297433, 4.434530, -35.269638, -75.840729, -653.407471
1733470081.383653, -15.836896, -20.908264, -10.254815, -4.140751, 1.223601, 3.289569, -35.616318, -74.563034, -655.047241
1733470081.393646, -14.838214, -24.466646, -16.583438, -2.690054, 1.562628, 2.300539, -35.522110, -73.874649, -655.663513
1733470081.403640, -14.422820, -24.734348, -17.062727, -1.258614, 1.591893, 1.425215, -35.165939, -73.816895, -655.233643
1733470081.413636, -14.103045, -23.332992, -14.143447, -0.189939, 1.252601, 0.667270, -34.629013, -73.968597, -655.170410
1733470081.423702, -14.090026, -21.250485, -10.848577, 0.426522, 0.901918, -0.002284, -34.163803, -74.194885, -655.147156
1733470081.433640, -13.956250, -19.945346, -8.426243, 0.654992, 0.638936, -0.666818, -33.275360, -74.480118, -654.089172
1733470081.443633, -12.491448, -18.004845, -6.798635, 0.578526, 0.443738, -1.118002, -32.805603, -74.363266, -654.049377
1733470081.453636, -11.123461, -15.332916, -6.463447, 0.220462, 0.538628, -1.584758, -32.064926, -74.488358, -654.211914
1733470081.463640, -8.402002, -10.475829, -7.914333, 0.189984, 0.781188, -1.589100, -31.114166, -74.623795, -654.029175
1733470081.473639, -7.185298, -8.132804, -7.850438, 0.263260, 0.899974, -1.528284, -30.194305, -74.769958, -653.834839
1733470081.483130, -7.185298, -8.132804, -7.850438, 0.263260, 0.899974, -1.528284, -29.477234, -74.970627, -653.427368
1733470081.493638, -5.287894, -4.626944, -7.269096, 0.621208, 0.665947, -1.329431, -28.734055, -75.122513, -653.522339
1733470081.503632, -4.614375, -3.299060, -7.190985, 0.889745, 0.530237, -1.260369, -28.378479, -75.344345, -653.021790
1733470081.513663, -3.897012, -2.258630, -6.851307, 1.222509, 0.414287, -1.268442, -28.214142, -75.811676, -652.746826
1733470081.523635, -3.294721, -1.446846, -6.325032, 1.598086, 0.328274, -1.389212, -27.908295, -76.345520, -652.416260
1733470081.533636, -2.472163, -0.807145, -5.609315, 2.006478, 0.276576, -1.607612, -27.621262, -77.098694, -651.081665
1733470081.543646, -1.420210, -0.375590, -4.641908, 2.394306, 0.293575, -1.928226, -27.136078, -77.687653, -651.205811
1733470081.553632, -0.363021, 0.093224, -3.548955, 2.662176, 0.394572, -2.301727, -26.367783, -78.262466, -649.890076
1733470081.563631, 0.718560, 0.932990, -2.091634, 2.776961, 0.497802, -2.652580, -25.145355, -79.115219, -649.023315
1733470081.573630, 1.819444, 1.968782, -0.519841, 2.768014, 0.537420, -2.935682, -23.778641, -79.362518, -647.908569
1733470081.583644, 2.896236, 3.093757, 0.890344, 2.658420, 0.447233, -3.112140, -22.375305, -79.839188, -646.763794
1733470081.593625, 4.174590, 4.003255, 1.906533, 2.463479, 0.239145, -3.152953, -20.997620, -79.995544, -645.695374
1733470081.603631, 5.470152, 4.565144, 2.718915, 2.239522, -0.077462, -3.068296, -19.720963, -80.064224, -644.389343
1733470081.613638, 6.619668, 4.940734, 3.459472, 2.017452, -0.477114, -2.892719, -18.702621, -80.007156, -643.808105
1733470081.623630, 7.242610, 4.774038, 3.884742, 1.772446, -0.905981, -2.717597, -18.201508, -79.997101, -643.131653
1733470081.632807, 7.242610, 4.774038, 3.884742, 1.772446, -0.905981, -2.717597, -17.719193, -79.909317, -642.192383
1733470081.643636, 7.035362, 3.241150, 3.821445, 1.133284, -1.582868, -2.702709, -17.218826, -79.586273, -643.153992
1733470081.653627, 7.088782, 2.535011, 3.257311, 0.809250, -1.731495, -2.897864, -16.694244, -79.087616, -643.279663
1733470081.663632, 7.738808, 2.432060, 2.828600, 0.533106, -1.856356, -3.086591, -16.046539, -78.402008, -643.265015
1733470081.673632, 9.032425, 2.845658, 2.437746, 0.308754, -2.087008, -3.202296, -15.761612, -77.957916, -643.584473
1733470081.683625, 11.044303, 3.253870, 1.860744, 0.191637, -2.537952, -3.217549, -15.751862, -77.256210, -644.558105
1733470081.693625, 13.105561, 3.264793, 1.179444, 0.320750, -3.356945, -3.103589, -15.411163, -76.316101, -644.742188
1733470081.703641, 15.765668, 2.635567, -1.106271, 0.744153, -4.139134, -2.822161, -15.672363, -75.910843, -645.502930
1733470081.713634, 19.340660, 2.338836, -4.829853, 1.392949, -4.293095, -2.337648, -16.421021, -75.620621, -646.107605
1733470081.723636, 23.478439, 2.828151, -8.096442, 2.090212, -3.626560, -1.630306, -17.401657, -75.805847, -646.423340
1733470081.733630, 28.659342, 3.887884, -9.465925, 2.589373, -2.443213, -0.570067, -17.962997, -76.160583, -644.746033
1733470081.743633, 33.850869, 4.863072, -8.498219, 2.676262, -1.262178, 0.889580, -18.904938, -77.202408, -644.991455
1733470081.753641, 36.841377, 4.104410, -6.972663, 2.392169, -0.037301, 2.483003, -19.809906, -78.255035, -643.892944
1733470081.763640, 36.778978, 2.931999, -5.539584, 1.846137, 1.432412, 4.051318, -20.847443, -79.698669, -643.137939
1733470081.773643, 33.585861, 1.748366, -2.630330, 1.019203, 2.907470, 5.467314, -22.265137, -81.021515, -642.005493
1733470081.783629, 27.638215, -0.383970, 1.688062, -0.120696, 4.013965, 6.515068, -23.622757, -82.129776, -641.967041
1733470081.793628, 19.676447, -3.125032, 5.581483, -1.326243, 4.520618, 6.969935, -25.217484, -83.113647, -641.751892
1733470081.803619, 11.424831, -6.693739, 8.023718, -2.272497, 4.191133, 6.711090, -27.572968, -83.515381, -642.509277
1733470081.813617, 5.393239, -12.848034, 7.834726, -2.695105, 3.039680, 5.865591, -29.261642, -83.851700, -643.687622
1733470081.823623, 1.712902, -19.751864, 4.366575, -2.398836, 1.647382, 4.796107, -30.298157, -83.530792, -644.582825
1733470081.833623, -1.462708, -22.974310, -0.261267, -1.546628, 0.795539, 3.785147, -30.216019, -83.360413, -643.973877
1733470081.843622, -3.675249, -22.828414, -2.487725, -0.646575, 0.635455, 3.152193, -30.362289, -83.187790, -644.588989
1733470081.853621, -5.501875, -21.953632, -0.717961, -0.241524, 0.763996, 2.865431, -30.752716, -83.221054, -644.003906
1733470081.863623, -8.224382, -21.488409, 2.945317, -0.481316, 0.805411, 2.626431, -31.416946, -83.204666, -644.334900
1733470081.873634, -11.223568, -22.227469, 5.632359, -1.156079, 0.583068, 2.222505, -32.020996, -83.051605, -645.087524
1733470081.883643, -13.963433, -22.767361, 5.771971, -1.864085, 0.180154, 1.653687, -32.580521, -82.467346, -645.659790
1733470081.893632, -16.601993, -22.170158, 3.329886, -2.343135, 0.002021, 0.880673, -32.895660, -81.841293, -646.993164
1733470081.903615, -17.695096, -20.138827, 0.422577, -2.537149, 0.006544, 0.043515, -32.915039, -81.065536, -647.347168
1733470081.913630, -17.159991, -17.448493, -1.766472, -2.505442, 0.023926, -0.722004, -32.255692, -80.485397, -649.032288
1733470081.923627, -16.182559, -14.775067, -3.527707, -2.294135, 0.072975, -1.395411, -31.623108, -79.533112, -649.657715
1733470081.933620, -15.249568, -12.245444, -4.578611, -1.990116, 0.199358, -2.002020, -30.947372, -78.947495, -649.520203
1733470081.943616, -14.201955, -9.765500, -4.742764, -1.658102, 0.315662, -2.568501, -29.954941, -78.355331, -650.706177
1733470081.953616, -12.798654, -7.455544, -4.821174, -1.316090, 0.412762, -3.062199, -28.531799, -77.623169, -651.357239
1733470081.963619, -10.864737, -5.243601, -5.039196, -0.926458, 0.502662, -3.425936, -27.156464, -77.163528, -651.890869
1733470081.973615, -8.518719, -3.677045, -5.228338, -0.513591, 0.568269, -3.706018, -25.694885, -76.594376, -651.931580
1733470081.983616, -6.224625, -2.737620, -5.113566, -0.155809, 0.567390, -3.924532, -24.129379, -76.318130, -651.699402
1733470081.993622, -4.352359, -1.689109, -4.758775, 0.126503, 0.492807, -4.054785, -22.569275, -75.722107, -651.544128
1733470082.003628, -2.838925, -0.572065, -4.413561, 0.368682, 0.401113, -4.123317, -20.971970, -75.299713, -651.504578
1733470082.013617, -1.543362, 0.333991, -4.195389, 0.607801, 0.380761, -4.148833, -19.441360, -74.839615, -651.388916
1733470082.023619, -0.159364, 0.817021, -3.957466, 0.832443, 0.427241, -4.149693, -18.014496, -74.435226, -651.049194
1733470082.033632, 1.234061, 1.145625, -3.366996, 1.018606, 0.407940, -4.118116, -16.522781, -73.923843, -649.446045
1733470082.043615, 2.597410, 1.593790, -2.780716, 1.152429, 0.324767, -4.021948, -15.250519, -73.395676, -649.607605
1733470082.053618, 3.975422, 2.148197, -2.495057, 1.238346, 0.300709, -3.882635, -14.070740, -72.914703, -649.353577
1733470082.063677, 5.479430, 2.850147, -2.226009, 1.292561, 0.315194, -3.693003, -12.899994, -72.483627, -649.102905
1733470082.073614, 7.231387, 3.698293, -1.839345, 1.329690, 0.320709, -3.411628, -12.174240, -72.018066, -648.067566
1733470082.083612, 8.949675, 4.661810, -1.610699, 1.341342, 0.467770, -3.137677, -11.314087, -71.665619, -647.789001
1733470082.093611, 11.269956, 4.983231, -0.912640, 1.259678, 0.598292, -2.851274, -10.841248, -71.123489, -647.317444
1733470082.103611, 13.857490, 5.232228, 0.702549, 1.057152, 0.349346, -2.483936, -10.637589, -70.812637, -647.169678
1733470082.113611, 15.665561, 5.357176, 1.536329, 0.776310, 0.021865, -2.238130, -10.464600, -70.434418, -647.125122
1733470082.123611, 17.943344, 5.219659, 1.688062, 0.481766, -0.286748, -2.030636, -9.804535, -69.959885, -646.845398
1733470082.132721, 21.681591, 5.652560, 1.850868, 0.235242, -0.819669, -1.514358, -9.804535, -69.959885, -646.845398
1733470082.143615, 25.282171, 6.878990, 1.176600, 0.094174, -1.510454, -0.511130, -10.752640, -69.414078, -647.960083
1733470082.153604, 26.980259, 7.048380, -1.183783, 0.020720, -1.843435, 0.489619, -12.340515, -69.776947, -648.401917
1733470082.163624, 27.535564, 5.809381, -3.883545, 0.006275, -1.692430, 1.222392, -13.788803, -70.271957, -649.097107
1733470082.173613, 28.123191, 4.965874, -5.869086, 0.075377, -1.232563, 1.724843, -13.788803, -70.271957, -649.097107
1733470082.183621, 29.765763, 5.364508, -6.499060, 0.291900, -0.976673, 2.474799, -14.173828, -70.704025, -649.280457
1733470082.193623, 30.851533, 6.120627, -5.925649, 0.675686, -1.139595, 3.676332, -14.717468, -71.705826, -648.872314
1733470082.203609, 29.061718, 6.410774, -4.837634, 0.987998, -1.331159, 5.096498, -15.779144, -72.961151, -649.237854
1733470082.213613, 24.247876, 6.067206, -2.953846, 0.892774, -1.309842, 6.426953, -17.573090, -74.617004, -648.987549
1733470082.223621, 17.470340, 4.406528, -0.491260, 0.299486, -1.100570, 7.379015, -19.889175, -76.087418, -648.934692
1733470082.233608, 10.110714, 1.332672, 1.414824, -0.676779, -0.996022, 7.859599, -22.797165, -77.589676, -649.631226
1733470082.243600, 2.417695, -1.677886, 1.482609, -1.614182, -1.066041, 7.808460, -25.815002, -78.331543, -649.219604
1733470082.253661, -4.753238, -5.215469, -1.370980, -2.016964, -1.035526, 7.204190, -29.034256, -78.491943, -651.166504
1733470082.263182, -9.185953, -11.394604, -6.090849, -1.672163, -0.788581, 6.219270, -32.027908, -78.580750, -652.158447
1733470082.273616, -12.033706, -17.252767, -8.924985, -0.870826, -0.442507, 5.004139, -34.502975, -78.338913, -652.810059
1733470082.283606, -13.723265, -20.696826, -9.545682, -0.211063, -0.065776, 3.478207, -36.611252, -78.355637, -653.298584
1733470082.293669, -12.709021, -21.285799, -9.200169, 0.318067, 0.316193, 2.037680, -37.308411, -78.313461, -652.989441
1733470082.303606, -10.395624, -19.038841, -8.003966, 0.910255, 0.683286, 1.053765, -36.991943, -78.693619, -652.778259
1733470082.313605, -9.042900, -15.845425, -4.928015, 1.500336, 0.783803, 0.461853, -36.479340, -79.294693, -652.263916
1733470082.323615, -8.341997, -13.663410, -1.521964, 1.893096, 0.813090, 0.148923, -36.104691, -80.011795, -651.013184
1733470082.333610, -7.820360, -12.870181, 1.066318, 1.966428, 1.014306, 0.026572, -35.511307, -80.423691, -649.845093
1733470082.343602, -8.190564, -12.330288, 3.887136, 1.676040, 1.273244, -0.031330, -35.001785, -81.052963, -648.984375
1733470082.353657, -9.245659, -10.997167, 6.369774, 1.066973, 1.479597, -0.186616, -34.326233, -81.464005, -648.617432
1733470082.363617, -10.036643, -10.251074, 7.555502, 0.285601, 1.527112, -0.534978, -34.291504, -81.807877, -648.382751
1733470082.373609, -10.033650, -9.779566, 7.255778, -0.463134, 1.406840, -1.030807, -33.379105, -81.806747, -648.369385
1733470082.383604, -9.204808, -8.610297, 5.709423, -1.043349, 1.257294, -1.573883, -32.573898, -81.460144, -648.797241
1733470082.393612, -7.808090, -7.115418, 4.005050, -1.423029, 1.007481, -2.070482, -31.448822, -80.977478, -649.384888
1733470082.403610, -6.063465, -6.076484, 2.334047, -1.605481, 0.662311, -2.465228, -30.622467, -80.313324, -649.921753
1733470082.413601, -4.357896, -5.282058, 0.365116, -1.582453, 0.370901, -2.730844, -29.354111, -79.605362, -650.237427
1733470082.423668, -3.067272, -4.136881, -1.357512, -1.387546, 0.247857, -2.910828, -28.088669, -78.837189, -650.949097
1733470082.433606, -2.022502, -2.999785, -2.369960, -1.092174, 0.219259, -3.027498, -26.902664, -78.065445, -651.463440
1733470082.443610, -0.908600, -2.081908, -2.849399, -0.741128, 0.182831, -3.083313, -25.889023, -77.543686, -651.633850
1733470082.453610, 0.178518, -1.436371, -3.096301, -0.345242, 0.126042, -3.122680, -24.870483, -76.935226, -651.831238
1733470082.463593, 1.207575, -0.903811, -3.175310, 0.064722, 0.107516, -3.138035, -23.503601, -76.561279, -652.059082
1733470082.473605, 2.423680, -0.365565, -2.666841, 0.431998, 0.062209, -3.107498, -22.384705, -76.246170, -651.771118
1733470082.483608, 3.719991, 0.065841, -1.685967, 0.684914, -0.105847, -2.982519, -21.391907, -75.801819, -651.523499
1733470082.493669, 5.127332, 0.392799, -0.854580, 0.783102, -0.328807, -2.777071, -20.464737, -75.635849, -651.262207
1733470082.503606, 6.285827, 0.689979, -0.111630, 0.759706, -0.608276, -2.473441, -19.859024, -75.336395, -650.938477
1733470082.513626, 7.069629, 0.569820, 0.050727, 0.662167, -0.798716, -2.121992, -19.699493, -75.046387, -650.516174
1733470082.523619, 7.590517, -0.324414, -0.432004, 0.509014, -0.758919, -1.841078, -19.644470, -74.784607, -650.640564
1733470082.533613, 8.301595, -1.942446, -1.034445, 0.339912, -0.543185, -1.712959, -20.046753, -74.686462, -650.658569
1733470082.543608, 9.612720, -3.665672, -1.310975, 0.185175, -0.313967, -1.697487, -20.062714, -74.208725, -651.061279
1733470082.553612, 11.263821, -4.722263, -1.459116, 0.041605, -0.154700, -1.696378, -19.879105, -73.967728, -651.294128
1733470082.563591, 13.124265, -5.693112, -1.735796, -0.095590, -0.033584, -1.789469, -20.036301, -73.639847, -651.287048
1733470082.573600, 15.810410, -6.777835, -1.892018, -0.147126, -0.121143, -1.899636, -19.868744, -73.356430, -651.474243
1733470082.583614, 19.139098, -7.468114, -2.272846, 0.041698, -0.615523, -1.845104, -19.559097, -72.854095, -651.925049
1733470082.593626, 22.660819, -7.811083, -3.814263, 0.611145, -1.163033, -1.506145, -19.640503, -72.771393, -651.949463
1733470082.603616, 25.970504, -7.934983, -4.769998, 1.418071, -1.650481, -0.898192, -20.002167, -72.945847, -651.577942
1733470082.613591, 28.035952, -7.410054, -3.347692, 1.975035, -2.185508, -0.182750, -20.402618, -73.627411, -651.560547
1733470082.623142, 29.088054, -6.902034, -1.125275, 1.894957, -2.752490, 0.619199, -21.420135, -74.138016, -650.939575
1733470082.633650, 29.109602, -6.791752, -0.171335, 1.216418, -3.136011, 1.424553, -23.321854, -74.654953, -650.728149
1733470082.643660, 27.063158, -6.373664, -2.080711, 0.314120, -2.870596, 1.997897, -24.492004, -75.167938, -651.797852
1733470082.653643, 24.835503, -4.215142, -5.366753, -0.407228, -2.069588, 2.646802, -24.999390, -75.133636, -652.182312
1733470082.663594, 21.503223, -1.107767, -7.646482, -0.827107, -0.883041, 3.494665, -25.648865, -75.313217, -651.893005
1733470082.673605, 16.790836, 0.562338, -7.691223, -1.243033, 0.364826, 4.303735, -26.239777, -75.290329, -651.894043
1733470082.683614, 11.994501, 1.079935, -6.579117, -1.838005, 1.516737, 5.078219, -26.795059, -75.209564, -652.583008
1733470082.693604, 5.957073, 0.822558, -4.997896, -2.621906, 2.548701, 5.599878, -27.782974, -74.807693, -653.510193
1733470082.703613, -0.244209, -0.698359, -3.624223, -3.521384, 3.151987, 5.623462, -28.400864, -74.037735, -654.500977
