SamplingTime, AccelerationX, AccelerationY, AccelerationZ, GyroX, GyroY, GyroZ, MagneticFieldX, MagneticFieldY, MagneticFieldZ
1733470115.487349, 3.266439, -9.540445, -0.520739, 0.448332, -0.576263, 0.107879, , , 
1733470115.496340, 3.047220, -10.382904, -0.373495, 0.567022, -0.594769, 0.209336, -6.914841, -76.960541, -633.617615
1733470115.507346, 2.855983, -10.974123, -0.399233, 0.610522, -0.433069, 0.337424, -6.885666, -77.239975, -633.627930
1733470115.517375, 2.733580, -11.265317, -0.254833, 0.595393, -0.188544, 0.451608, -7.422821, -77.241302, -633.645630
1733470115.527354, 2.218826, -11.837083, -0.257377, 0.616960, -0.060738, 0.456230, -7.448166, -77.548950, -633.476746
1733470115.537357, 1.024718, -12.183344, -0.205602, 0.581074, -0.068387, 0.318365, -7.691055, -77.889236, -632.844360
1733470115.547367, -0.117316, -12.639589, 0.243311, 0.601787, -0.257310, 0.070713, -8.075851, -78.044662, -633.628784
1733470115.556367, -0.772729, -13.566893, 0.627580, 0.653479, -0.647547, -0.340464, -8.090286, -78.204727, -633.048706
1733470115.566641, -1.667561, -14.148684, 1.156399, 0.641621, -1.130675, -0.782794, -7.491028, -78.065735, -632.707520
1733470115.577255, -1.520168, -13.475764, 1.192312, 0.604819, -1.657910, -1.127023, -7.218155, -77.887375, -633.578979
1733470115.587340, -1.231368, -12.916119, 0.269348, 0.655959, -2.179936, -1.366594, -7.260422, -77.483627, -633.162598
1733470115.597381, -1.262193, -12.607866, -1.424550, 0.875513, -2.570292, -1.549528, -7.072433, -77.131058, -634.138916
1733470115.606341, -1.151910, -12.366201, -3.066523, 1.250793, -2.862923, -1.710420, -6.950851, -76.967255, -634.889893
1733470115.617319, -0.850690, -12.201749, -4.314052, 1.704486, -2.993024, -1.867842, -6.814545, -76.650269, -634.472168
1733470115.627318, -0.518494, -11.829451, -4.807557, 2.145463, -3.059081, -2.009226, -6.486847, -76.491684, -635.412720
1733470115.637318, -0.256928, -11.372458, -4.062362, 2.466189, -3.114965, -2.161455, -6.382980, -76.324203, -634.547119
1733470115.647339, 0.039504, -11.145308, -3.124882, 2.621361, -3.059579, -2.305458, -6.138062, -76.120499, -635.441406
1733470115.657327, 0.573860, -10.658537, -2.116474, 2.624655, -2.975571, -2.412929, -5.926620, -75.806046, -635.058289
1733470115.667314, 1.208174, -10.070162, -0.666037, 2.540801, -3.059592, -2.503084, -5.668335, -75.799774, -634.658813
1733470115.677162, 1.465700, -9.808745, 0.730232, 2.446527, -3.426813, -2.638642, -5.824463, -75.389038, -635.621765
1733470115.687336, 1.490391, -9.466524, 1.094599, 2.414522, -3.961308, -2.826140, -5.375671, -74.976410, -635.364258
1733470115.697315, 1.614440, -8.915558, 0.112827, 2.550003, -4.438705, -2.985236, -5.081879, -74.343994, -636.145447
1733470115.707136, 1.490391, -8.425495, -1.186028, 2.812719, -4.730207, -3.155914, -4.981613, -73.892273, -636.428894
1733470115.717328, 1.151312, -8.025813, -2.743157, 3.049220, -4.658930, -3.357698, -4.837723, -73.416611, -637.764587
1733470115.726640, 1.416320, -7.866000, -3.608660, 3.223419, -4.445075, -3.590084, -4.369400, -72.963104, -638.179504
1733470115.737326, 2.035969, -6.900388, -2.988712, 3.421493, -4.390781, -3.769064, -4.494705, -72.581528, -638.288574
1733470115.747320, 2.435801, -6.565500, -2.372953, 3.519606, -4.327190, -4.020681, -4.200439, -71.989136, -638.496216
1733470115.756383, 3.413084, -6.002114, -1.228225, 3.368304, -4.347206, -4.193752, -3.725601, -71.134567, -639.708557
1733470115.767333, 4.434061, -4.694281, -0.002394, 2.966234, -4.237336, -4.273598, -2.886063, -70.215195, -638.954224
1733470115.776649, 4.994005, -3.755904, -0.071227, 2.514219, -3.858299, -4.233129, -2.503082, -69.268936, -640.068176
1733470115.787342, 5.128081, -3.172766, -0.353145, 2.188602, -3.472948, -4.128119, -2.291489, -68.439087, -640.169678
1733470115.797330, 5.288941, -3.040935, -0.426467, 1.893632, -3.108176, -4.020964, -1.853989, -67.444000, -640.951172
1733470115.807316, 5.609465, -2.831293, -0.523133, 1.570166, -2.717839, -3.906526, -1.431595, -66.236679, -642.022583
1733470115.817330, 5.887492, -2.143708, -0.444573, 1.206729, -2.271340, -3.720249, -0.828659, -65.058899, -641.986389
1733470115.827335, 5.785139, -1.246332, -1.080533, 0.833671, -1.681651, -3.437253, -0.622299, -64.107895, -643.233521
1733470115.837326, 6.205771, -0.470311, -1.030405, 0.610225, -1.264256, -3.205398, -0.636383, -63.048813, -642.626709
1733470115.847331, 6.684611, 0.359579, -1.390582, 0.446766, -0.776281, -3.007425, 0.022034, -62.051422, -642.747681
1733470115.856390, 7.105392, 1.042376, -1.634043, 0.299908, -0.303146, -2.831681, 0.242767, -61.026123, -643.719788
1733470115.867329, 7.915979, 1.757344, -1.494431, 0.185006, 0.031418, -2.616876, 0.754288, -60.079514, -642.653259
1733470115.876865, 8.893112, 2.440889, -1.172261, 0.164869, 0.106126, -2.344368, 1.121201, -59.118835, -643.298096
1733470115.887328, 9.734076, 2.992154, -1.093552, 0.197066, 0.054966, -2.024056, 1.587372, -58.515167, -642.596497
1733470115.897331, 10.458322, 3.386000, -0.750433, 0.271628, -0.189338, -1.675548, 1.693909, -57.850571, -642.850037
1733470115.906374, 10.553192, 3.353828, -0.456993, 0.324654, -0.479878, -1.360315, 1.675049, -57.599854, -643.950195
1733470115.917333, 10.110414, 2.924966, -0.469114, 0.316482, -0.711119, -1.165398, 1.686905, -57.085907, -643.595764
1733470115.927328, 9.603292, 2.481590, -0.847098, 0.298210, -0.754297, -1.023742, 1.690842, -56.485199, -644.278687
1733470115.937328, 9.473407, 2.634969, -1.336713, 0.297881, -0.644116, -0.859582, 1.445709, -56.322495, -644.076416
1733470115.947334, 9.266009, 2.500444, -1.382651, 0.282248, -0.464878, -0.725886, 1.084595, -56.250290, -643.668213
1733470115.957326, 9.726744, 2.111686, -1.155651, 0.229481, -0.317213, -0.606052, 1.004303, -56.203522, -644.636169
1733470115.967330, 11.076924, 1.828272, -0.820313, 0.180580, -0.289540, -0.475750, 0.475800, -56.092270, -644.532349
1733470115.977329, 12.203545, 1.163732, -0.419285, 0.196438, -0.463919, -0.412891, -0.061234, -56.113800, -645.666870
1733470115.987333, 13.045257, -0.035015, -0.190189, 0.262965, -0.707245, -0.492589, -0.959656, -55.796036, -645.489258
1733470115.997339, 14.357878, -1.323245, 0.016610, 0.274229, -1.026327, -0.693705, -1.073593, -55.570572, -645.666016
1733470116.006421, 16.505626, -2.002151, -0.210690, 0.213735, -1.227644, -0.836779, -1.838470, -55.294678, -646.696289
1733470116.017323, 19.583223, -1.846079, -1.608455, 0.147391, -1.030590, -0.879874, -2.296219, -55.101364, -646.466125
1733470116.027326, 23.275231, -1.342698, -3.589507, 0.180965, -0.609586, -0.735637, -2.263321, -55.016815, -647.306641
1733470116.037325, 26.645669, -0.904110, -4.834941, 0.454987, -0.225514, -0.386415, -2.517227, -55.041870, -647.240906
1733470116.047322, 27.970111, -0.726341, -4.606893, 0.820049, -0.004149, -0.012973, -2.280472, -55.381149, -647.158752
1733470116.057314, 28.210579, -0.217872, -2.600103, 0.950232, 0.058882, 0.401781, -2.118118, -55.878128, -646.428772
1733470116.067325, 27.344476, 0.693121, -0.470610, 0.789013, 0.237646, 0.790527, -2.365936, -56.488800, -646.572632
1733470116.076728, 25.435550, 0.537199, 0.763152, 0.380370, 0.764351, 0.897684, -2.247223, -57.110153, -645.650879
1733470116.087335, 24.438215, 0.390105, 1.934814, -0.206817, 1.308488, 0.817855, -2.578415, -57.228653, -645.781433
1733470116.097339, 25.157074, 0.357035, 2.969858, -0.710406, 1.560270, 0.661823, -2.730606, -57.512054, -645.008057
1733470116.107319, 26.251972, 1.091756, 3.250877, -0.830388, 1.457251, 0.387700, -2.294312, -57.508957, -644.278687
1733470116.117318, 28.554895, 3.261800, 3.922301, -0.624248, 0.740236, 0.229401, -2.480911, -57.661819, -645.222229
1733470116.127320, 31.211411, 5.300164, 4.472219, -0.215169, -0.331643, 0.169513, -2.582977, -57.728638, -645.195435
1733470116.137324, 33.108667, 7.680898, 3.389142, 0.475426, -1.390452, 0.295550, -1.904388, -58.184555, -645.050964
1733470116.147333, 35.765333, 10.592397, 2.416198, 1.352939, -2.584660, 1.010257, -1.388107, -59.066040, -645.902405
1733470116.157325, 37.749228, 13.694684, 2.156128, 2.202574, -3.631210, 2.410717, -1.611786, -60.783829, -646.317139
1733470116.167324, 36.826862, 16.529119, 1.464354, 2.759178, -3.919346, 4.375393, -2.229874, -63.690048, -646.969604
1733470116.177321, 32.115073, 18.133085, 1.283292, 2.836127, -3.400808, 6.552396, -3.616730, -67.186783, -647.093933
1733470116.187318, 23.715615, 19.410092, 2.766201, 2.387519, -2.301248, 8.651852, -5.703659, -70.674591, -646.938232
1733470116.197326, 11.375301, 20.264672, 5.177012, 1.340779, -0.813901, 10.222531, -8.471863, -73.936508, -646.796448
1733470116.207329, -2.215085, 19.429246, 9.071480, -0.398981, 0.322478, 10.961935, -11.721008, -76.100601, -647.164673
1733470116.217314, -14.427609, 18.400637, 12.048820, -2.416295, 0.995198, 10.897167, -15.223633, -77.447678, -647.472046
1733470116.227358, -23.787142, 17.067665, 10.563966, -4.101765, 1.622674, 10.172001, -17.992065, -77.636475, -649.538574
1733470116.237318, -30.270041, 14.832977, 6.464344, -5.100157, 1.732936, 8.937546, -20.239212, -77.121048, -651.599609
1733470116.247315, -33.554736, 12.548759, 2.774730, -5.222491, 1.080905, 7.570138, -22.687637, -76.160950, -653.419189
1733470116.257321, -36.141222, 10.598831, -1.034894, -4.477858, -0.331031, 6.063056, -25.005661, -75.429489, -655.102905
1733470116.267319, -40.445997, 6.970120, -4.706252, -2.960549, -2.109626, 4.231102, -27.177979, -74.761490, -654.911987
1733470116.277324, -42.815957, 1.924639, -10.504261, -1.003582, -3.144864, 2.338823, -28.267761, -74.746582, -655.867920
1733470116.287327, -40.350528, -2.212093, -15.494076, 0.853604, -3.188860, 0.802817, -29.615524, -75.468658, -654.915710
1733470116.297331, -36.065655, -3.811419, -16.307805, 2.189164, -2.414986, -0.316789, -29.852310, -76.312027, -653.961853
1733470116.307319, -32.427067, -3.561525, -13.547889, 2.813404, -1.191926, -1.189493, -30.010254, -77.624863, -653.240234
1733470116.317322, -28.839805, -2.757671, -8.933515, 2.869127, 0.090428, -1.900799, -29.248398, -78.396240, -651.859558
1733470116.327325, -24.530092, -1.898602, -4.474913, 2.572109, 1.102755, -2.463690, -28.221420, -79.344223, -650.911011
1733470116.337310, -19.837307, -0.348656, -0.305710, 2.141501, 1.528968, -2.738765, -27.204926, -79.451523, -650.505920
1733470116.347315, -15.817293, 0.458490, 2.781913, 1.706080, 1.398697, -2.852509, -26.217636, -79.685745, -649.900452
1733470116.357317, -12.733262, 0.098611, 4.263175, 1.359097, 0.984694, -2.912990, -25.099426, -79.729141, -649.333252
1733470116.367309, -9.705046, -0.325761, 4.461146, 1.133262, 0.489684, -2.903960, -24.186188, -79.583847, -648.748047
1733470116.377314, -6.885125, -0.595109, 4.276792, 0.955534, 0.039911, -2.763815, -24.015671, -79.475021, -648.905029
1733470116.387321, -4.850054, -1.305588, 3.279757, 0.739826, -0.128938, -2.643302, -23.467987, -79.178452, -648.681702
1733470116.397322, -3.470246, -3.377321, 1.343746, 0.515211, 0.100036, -2.743602, -22.907120, -78.809097, -648.900940
1733470116.407309, -1.282095, -5.806687, -0.705541, 0.425098, 0.422005, -2.860271, -22.021240, -78.309387, -648.408081
1733470116.417310, 1.863587, -7.065738, -1.954417, 0.512605, 0.631703, -2.818960, -21.437317, -78.053024, -648.517639
1733470116.427308, 5.008071, -8.485649, -2.842366, 0.722115, 0.635889, -2.769655, -21.578415, -77.876160, -648.474426
1733470116.437310, 7.946505, -10.484957, -3.324948, 0.957661, 0.638829, -2.872920, -22.079269, -77.743805, -647.991516
1733470116.447307, 11.098322, -12.437578, -3.951181, 1.127834, 1.101330, -3.339680, -21.703171, -77.192062, -647.705017
1733470116.457307, 17.320104, -14.848091, -3.354875, 1.138734, 1.483706, -3.922474, -20.976242, -76.666519, -647.070007
1733470116.467307, 27.966819, -16.185551, -0.010624, 0.980693, 1.136212, -4.088188, -20.535553, -76.191864, -646.084229
1733470116.477308, 39.086838, -16.886604, 2.799121, 0.740769, 0.387676, -3.877446, -19.945831, -75.436295, -646.921021
1733470116.487309, 47.264085, -16.701203, 4.920084, 0.249879, -0.469477, -3.499972, -19.896835, -74.436630, -647.320312
1733470116.496325, 52.725857, -14.255975, 6.448633, -0.532343, -1.044853, -2.973587, -19.896835, -74.436630, -647.320312
1733470116.507331, 56.411132, -11.731289, 5.589713, -1.396124, -1.183060, -2.355286, -18.912781, -72.200180, -648.322815
1733470116.517307, 58.352680, -9.468319, 3.079841, -2.025305, -1.080273, -1.659127, -18.231888, -71.244171, -648.867065
1733470116.527315, 58.665423, -6.267122, 0.304213, -2.218193, -1.020969, -0.800538, -17.650726, -70.495132, -649.746643
1733470116.537309, 58.883295, -4.337246, -1.889025, -2.019367, -1.289617, 0.406782, -17.437439, -70.420929, -650.800781
1733470116.547307, 56.527550, -4.156035, -3.451691, -1.537048, -1.687203, 1.853731, -17.247543, -70.646118, -651.469543
1733470116.557305, 49.912072, -3.850475, -5.446210, -0.924895, -1.644466, 3.291865, -17.594101, -71.733749, -650.752808
1733470116.567308, 41.526530, -3.151368, -6.818686, -0.380205, -1.076483, 4.596016, -18.122070, -72.721176, -651.094116
1733470116.577303, 32.790986, -1.922394, -5.970540, -0.050795, -0.323070, 5.738996, -18.864883, -74.370575, -650.706909
1733470116.587303, 24.183532, 0.264559, -3.877410, 0.087952, 0.447469, 6.766369, -19.823288, -75.816559, -650.768005
1733470116.597310, 14.765790, 2.923320, -1.466149, 0.061307, 1.415694, 7.608888, -21.765579, -77.231064, -649.866394
1733470116.607313, 4.314052, 4.285771, 1.768118, -0.337876, 2.416858, 7.945566, -23.252655, -78.004654, -650.282288
1733470116.617299, -5.989694, 4.388871, 6.627001, -1.329894, 2.916394, 7.447205, -24.250854, -77.840149, -650.650879
1733470116.627032, -14.940417, 4.533870, 11.607389, -2.766567, 2.488111, 6.159389, -24.250854, -77.840149, -650.650879
1733470116.637305, -21.810728, 5.601833, 13.666851, -4.056766, 1.561173, 4.443681, -25.113663, -77.034119, -651.908569
1733470116.647326, -25.850195, 6.990021, 10.853964, -4.669187, 0.368791, 2.647224, -25.437088, -75.791473, -653.968323
1733470116.657310, -26.655994, 7.716662, 5.467758, -4.428689, -0.973986, 1.022841, -25.464417, -74.116989, -655.433289
1733470116.667304, -24.932618, 8.307580, -1.573140, -3.309082, -1.921042, -0.044293, -25.684555, -73.105103, -655.902771
1733470116.677303, -22.164621, 8.488792, -8.159739, -1.616144, -2.179554, -0.499872, -25.756760, -72.263443, -657.085327
1733470116.687318, -18.720113, 7.486818, -11.449671, -0.005544, -2.046026, -0.454624, -26.349350, -72.221130, -657.109192
1733470116.697305, -16.202012, 6.352565, -11.019313, 1.090876, -1.747427, -0.164576, -27.080368, -72.536407, -657.210205
1733470116.707298, -15.732449, 5.354183, -9.365668, 1.650670, -1.117077, 0.050461, -27.853683, -73.379074, -656.445190
1733470116.717297, -16.808792, 4.932953, -7.380276, 1.820023, -0.229810, 0.012976, -28.437241, -74.291031, -655.864014
1733470116.727309, -17.641376, 3.997419, -5.708525, 1.777379, 0.727609, -0.336339, -28.258636, -74.955322, -655.559937
1733470116.737328, -17.450887, 2.878579, -4.169652, 1.712815, 1.484670, -0.887750, -27.717804, -75.648514, -654.793396
1733470116.747319, -16.221016, 2.709937, -2.427122, 1.720369, 1.872128, -1.422117, -26.234070, -76.176010, -654.525208
1733470116.757303, -13.921684, 3.400215, -0.985663, 1.760654, 1.910493, -1.757891, -24.951416, -76.542892, -653.172363
1733470116.767295, -11.115829, 4.299537, 0.004040, 1.854590, 1.426248, -1.809038, -23.971756, -76.911316, -652.514587
1733470116.777298, -8.500164, 4.807856, 0.477943, 1.854590, 1.426248, -1.809038, -23.141174, -77.312302, -651.712830
1733470116.787308, -4.973206, 4.319439, 0.639401, 1.968580, 0.879737, -1.494339, -22.640442, -77.560196, -651.112122
1733470116.797300, -3.704429, 3.317316, 0.323367, 1.942826, 0.801213, -1.358572, -22.140854, -77.883926, -650.450500
1733470116.807308, -2.059911, 1.803432, -0.285359, 1.878429, 0.732570, -1.240805, -21.902588, -78.302231, -649.348267
1733470116.817295, -0.054019, 0.026037, -0.051326, 1.870469, 0.493921, -1.126505, -21.577011, -78.821167, -648.760132
1733470116.827313, 2.255787, -2.336292, 0.268749, 1.909424, 0.067537, -1.015442, -21.643234, -78.969238, -648.170471
1733470116.837297, 4.905570, -4.636372, 0.574459, 1.969254, -0.517907, -0.863974, -22.066757, -79.424408, -647.986938
1733470116.847296, 8.006659, -7.011569, 1.092055, 2.011147, -1.155700, -0.661215, -22.301682, -79.881866, -647.718994
1733470116.857295, 11.055376, -10.077793, 1.557428, 1.830158, -1.415915, -0.439300, -22.760635, -80.238235, -646.887573
1733470116.867295, 13.711593, -13.902530, 0.723647, 1.235478, -0.939763, -0.376328, -24.083496, -80.485321, -646.832703
1733470116.877292, 17.959505, -17.536480, -1.085920, 0.485566, 0.304624, -0.296309, -24.929291, -80.701370, -646.893250
1733470116.887313, 23.959225, -21.026029, -3.039589, -0.021780, 1.822815, -0.088930, -25.923874, -80.763885, -647.115417
1733470116.897295, 30.025234, -25.159019, -2.560000, -0.259944, 2.787383, 0.170571, -26.095428, -80.871384, -647.090149
1733470116.906611, 30.025234, -25.159019, -2.560000, -0.259944, 2.787383, 0.170571, -26.270966, -80.981567, -646.939758
1733470116.917317, 38.927624, -31.662419, 2.248155, -0.272776, 2.516892, 0.911966, -25.810913, -81.185760, -646.799561
1733470116.927299, 39.059604, -32.282517, 4.206163, -0.371008, 1.987335, 1.271532, -25.393448, -81.227615, -646.230896
1733470116.937293, 35.575742, -30.730476, 5.874024, -0.767599, 1.651835, 1.369537, -25.264450, -81.248566, -646.083740
1733470116.947309, 32.041152, -29.399450, 6.184971, -1.274976, 1.491035, 1.291247, -25.263275, -81.140045, -645.980774
1733470116.957301, 30.730326, -28.820651, 5.303456, -1.667216, 1.277931, 1.289016, -25.036591, -81.096649, -645.976074
1733470116.967309, 29.103616, -26.967988, 3.673454, -1.792970, 1.029940, 1.330142, -24.585114, -80.766464, -646.381348
1733470116.977293, 26.336817, -24.706665, 1.579275, -1.660198, 0.912206, 1.355794, -24.375153, -80.467850, -646.817566
1733470116.987290, 23.638103, -22.965033, -0.321721, -1.385600, 0.908268, 1.380837, -24.015472, -80.313187, -647.103271
1733470116.996798, 21.097106, -21.182250, -1.433528, -1.023774, 0.907679, 1.446065, -23.506165, -80.159241, -647.108948
1733470117.007292, 17.866730, -18.136227, -2.376096, -0.584632, 1.019878, 1.569032, -22.907562, -80.174011, -646.968018
1733470117.017291, 13.977649, -14.080899, -3.253421, -0.084515, 1.350907, 1.773530, -22.342911, -80.378387, -646.498474
1733470117.027304, 9.922918, -9.783606, -2.940529, 0.323680, 1.823346, 2.040879, -21.609085, -80.995712, -645.860352
1733470117.037297, 4.933552, -6.325780, -0.337433, 0.456148, 2.164039, 2.155199, -21.804581, -81.494965, -645.157471
1733470117.047296, -0.105644, -4.740370, 3.267487, 0.237858, 2.183931, 1.894327, -21.780426, -82.015778, -644.031738
1733470117.057295, -4.007145, -2.319532, 6.090400, -0.238472, 1.755680, 1.446443, -21.701035, -82.470734, -642.888550
1733470117.067295, -6.905177, 1.273416, 8.260744, -0.838695, 0.866953, 0.906556, -21.188660, -82.615585, -643.291687
1733470117.077289, -9.288455, 5.413440, 9.375394, -1.454407, -0.293817, 0.357852, -20.917618, -82.376099, -643.511047
1733470117.086824, -10.291625, 9.537452, 8.849867, -1.995368, -1.460397, 0.024399, -20.767212, -81.913589, -643.725098
1733470117.097288, -9.151237, 11.849054, 6.352565, -2.336897, -2.390222, 0.139881, -20.581757, -81.368134, -645.290222
1733470117.107286, -7.176320, 12.141146, 2.952799, -2.432873, -3.060114, 0.709330, -21.536240, -80.852402, -646.412415
1733470117.117284, -6.130802, 11.323526, -0.107290, -2.256697, -3.527434, 1.499070, -22.707687, -80.333176, -648.062012
1733470117.127285, -6.967276, 10.306140, -2.608932, -1.820966, -3.786819, 2.250479, -24.709641, -80.040390, -649.326904
1733470117.137286, -9.229797, 9.233089, -4.469825, -1.228863, -3.783252, 2.708457, -27.305298, -79.567825, -650.375610
1733470117.147295, -11.991359, 8.175899, -5.059846, -0.649894, -3.574023, 2.789270, -29.889282, -79.644791, -651.202881
1733470117.157288, -14.804845, 6.623559, -4.554819, -0.180710, -3.355936, 2.412430, -32.703079, -79.756622, -650.981445
1733470117.167285, -16.087090, 4.960187, -3.368492, 0.141676, -3.203783, 1.775832, -35.044220, -79.664276, -651.827820
1733470117.177284, -16.002395, 3.739593, -2.447622, 0.327079, -3.013139, 1.060583, -36.578796, -79.668167, -651.866394
1733470117.187299, -14.881460, 2.705598, -2.384326, 0.453142, -2.695641, 0.406693, -37.973129, -79.950211, -651.722046
1733470117.197292, -13.592781, 1.918953, -2.869900, 0.593910, -2.203723, -0.142874, -38.956375, -79.914215, -651.389099
1733470117.207282, -12.801647, 1.288679, -3.805584, 0.773016, -1.450871, -0.628004, -39.330948, -80.238510, -651.651489
1733470117.217281, -12.005874, 1.234211, -4.446481, 0.972616, -0.495458, -1.027109, -39.228638, -80.327347, -650.988770
1733470117.227283, -10.958111, 1.900697, -4.111592, 1.128150, 0.382489, -1.309834, -38.651337, -80.676514, -650.218018
1733470117.237294, -10.021829, 2.844312, -2.785205, 1.206125, 0.889566, -1.514707, -38.047745, -80.978928, -649.636841
1733470117.246932, -9.297733, 3.101838, -1.451036, 1.234438, 0.983825, -1.718562, -37.059448, -81.253464, -649.007080
1733470117.257278, -8.444798, 2.358139, -0.890643, 1.274352, 0.821542, -1.927625, -36.119598, -81.694931, -648.547302
1733470117.267275, -7.093421, 1.060033, -0.810886, 1.396063, 0.519773, -2.103107, -35.435562, -82.018021, -648.513306
1733470117.277275, -5.128530, -0.433500, -0.922965, 1.600972, 0.174291, -2.219578, -34.599243, -82.322922, -647.925720
1733470117.287281, -2.647538, -2.212991, -1.086519, 1.865523, -0.234334, -2.245842, -34.120590, -82.800400, -647.277954
1733470117.297288, 0.219518, -4.934599, -1.271022, 2.112040, -0.716978, -2.129433, -33.630173, -83.192764, -646.878906
1733470117.307285, 3.916914, -8.702474, -0.905906, 2.201794, -1.446526, -1.790753, -33.546112, -83.572464, -646.081726
1733470117.317056, 7.540388, -13.150003, 0.195127, 1.877596, -2.390438, -1.386122, -33.954712, -83.790710, -645.860718
1733470117.327278, 9.947459, -16.792033, 0.473753, 1.335490, -2.999963, -0.975173, -34.725357, -84.188217, -645.527771
1733470117.337286, 11.331308, -20.364930, -1.678335, 0.989648, -2.700118, -0.779276, -36.042908, -84.355774, -645.024292
1733470117.347273, 11.963078, -25.933843, -5.011812, 0.761642, -1.586277, -0.972037, -37.058899, -84.569214, -645.205200
1733470117.357279, 14.137162, -31.209915, -7.212084, 0.376571, -0.006860, -1.232483, -37.047394, -84.672836, -644.765930
1733470117.367277, 18.104205, -34.953100, -8.086865, -0.000319, 1.721488, -1.402183, -36.639847, -84.483063, -645.359802
1733470117.377275, 21.659145, -36.568737, -8.092102, -0.208506, 3.181202, -1.399386, -35.383621, -84.423935, -645.213501
1733470117.387338, 25.232641, -35.823242, -5.346252, -0.448327, 3.960240, -1.277360, -34.698807, -84.386017, -645.542419
1733470117.397295, 27.614872, -34.461690, -1.601721, -0.615363, 4.059039, -1.269869, -33.689896, -84.413193, -645.655396
1733470117.407286, 29.146712, -33.634643, 0.815824, -0.598478, 3.618455, -1.349489, -32.250244, -84.148346, -645.554688
1733470117.417282, 30.651767, -32.788143, 2.042254, -0.347502, 2.815360, -1.405309, -30.902847, -83.980194, -644.666382
1733470117.427281, 31.354016, -30.096911, 3.763236, 0.094552, 1.660393, -1.310368, -28.979202, -83.782135, -644.711304
1733470117.437285, 29.678225, -27.265917, 4.333355, 0.651935, 0.669531, -1.141334, -27.435059, -83.874878, -643.894531
1733470117.447277, 25.510518, -24.420707, 2.916587, 1.120894, 0.378805, -1.003405, -25.827469, -83.860474, -643.019226
1733470117.456955, 20.302381, -20.375704, 1.918803, 1.335370, 0.708674, -0.873282, -24.671036, -83.939102, -641.171875
1733470117.467277, 15.993716, -16.245855, 1.898752, 1.295658, 1.401152, -0.737324, -22.862717, -84.208359, -640.326782
1733470117.477324, 12.118850, -12.250531, 1.944541, 1.134048, 2.289253, -0.600508, -21.114609, -84.397766, -638.992188
1733470117.487271, 8.482806, -8.271368, 2.331354, 0.921925, 3.135187, -0.408293, -19.549591, -84.525589, -637.720825
1733470117.497274, 5.342511, -4.526986, 3.891625, 0.636784, 3.645437, -0.161605, -18.225937, -84.797241, -636.313293
1733470117.507280, 2.788048, -1.191115, 5.799654, 0.267086, 3.702156, 0.080197, -16.960617, -85.212769, -635.407166
1733470117.517287, 0.975637, 1.496226, 7.400477, -0.125301, 3.274164, 0.308481, -16.083466, -85.250076, -634.782104
1733470117.527288, -0.073921, 4.008043, 8.771307, -0.495315, 2.403369, 0.596920, -16.038452, -85.430786, -634.189392
1733470117.537274, -0.625934, 6.332364, 9.663148, -0.910925, 1.278103, 0.920015, -15.733231, -85.533356, -633.911987
1733470117.547270, -1.259500, 7.934534, 9.785102, -1.436012, 0.030252, 1.347445, -15.888199, -85.539993, -634.947144
1733470117.557273, -1.710507, 8.828619, 9.147945, -2.025810, -1.137717, 1.884165, -16.848785, -85.604675, -634.856201
1733470117.567272, -2.887407, 8.933515, 7.685088, -2.567444, -2.087702, 2.460444, -17.864365, -85.452332, -637.272034
1733470117.577270, -5.295525, 9.213636, 5.562179, -2.974273, -2.740784, 2.988383, -19.723145, -85.247665, -639.190002
1733470117.587269, -8.878747, 9.383624, 3.466355, -3.286934, -3.111597, 3.288339, -22.046783, -84.788574, -640.930725
1733470117.597277, -13.247118, 9.082404, 1.837250, -3.567822, -3.310259, 3.187029, -24.471573, -84.291931, -643.283875
1733470117.607282, -17.895909, 8.162731, 0.507870, -3.720789, -3.508634, 2.643769, -26.678406, -83.527390, -645.273926
1733470117.617267, -21.614254, 6.614880, -1.689259, -3.629911, -3.441368, 1.780789, -28.329041, -82.508774, -647.715393
1733470117.627285, -23.805996, 4.516063, -4.989516, -3.269203, -2.790150, 0.672494, -29.733978, -81.497131, -649.117554
1733470117.637270, -24.101530, 2.347365, -7.835623, -2.706231, -1.668716, -0.527156, -29.881683, -80.514481, -650.473328
1733470117.647280, -22.372318, 1.273566, -9.026290, -2.059373, -0.527883, -1.576655, -29.195145, -79.685287, -650.805359
1733470117.657274, -19.330036, 1.677438, -8.537573, -1.384184, 0.232097, -2.339352, -28.417572, -78.884903, -650.756470
1733470117.667329, -16.480038, 2.448520, -7.384017, -0.672812, 0.504062, -2.897976, -27.339966, -78.286865, -651.662598
1733470117.677263, -14.353688, 2.624793, -6.402245, 0.109354, 0.450978, -3.359477, -25.931915, -78.311737, -651.532471
1733470117.687264, -12.602629, 2.703503, -5.513846, 0.916489, 0.160550, -3.732555, -24.453293, -78.101669, -651.176514
1733470117.697274, -11.377845, 3.287389, -4.053832, 1.634480, -0.310668, -4.016970, -23.316605, -78.225800, -650.503784
1733470117.707264, -10.585065, 3.404854, -2.628385, 2.148838, -0.753857, -4.345416, -22.361099, -78.109741, -650.830322
1733470117.717265, -9.170989, 2.547431, -1.985242, 2.462486, -1.109130, -4.701916, -21.359924, -78.358276, -649.576416
1733470117.727277, -6.824821, 1.794155, -1.435773, 2.637055, -1.448282, -4.935830, -20.320282, -78.273346, -649.178589
1733470117.737277, -3.925892, 0.780510, -1.379509, 2.714842, -1.702187, -5.093132, -19.606354, -78.160645, -648.513489
1733470117.747274, -0.652869, -1.436671, -1.579575, 2.673547, -1.966831, -5.233561, -19.067245, -77.708481, -648.003662
1733470117.757324, 3.145831, -3.919907, -1.244237, 2.470131, -2.434694, -5.297267, -18.256393, -77.404999, -647.568909
1733470117.767262, 7.375338, -6.130653, -1.228076, 2.102457, -2.874785, -5.222683, -17.943176, -76.909729, -647.882629
1733470117.777271, 12.094459, -7.965808, -2.278681, 1.710000, -3.084420, -5.016452, -17.939575, -76.104034, -648.038879
1733470117.787271, 16.753875, -9.254787, -3.961207, 1.361720, -2.780083, -4.734528, -18.222977, -75.395370, -648.457458
1733470117.797270, 22.772449, -9.889998, -5.620987, 0.914542, -1.969977, -4.290857, -18.775269, -74.686569, -648.876587
1733470117.807259, 29.382541, -10.056096, -6.864326, 0.377367, -0.727473, -3.822584, -18.490509, -73.682587, -649.152100
1733470117.817274, 36.433913, -10.183587, -7.050475, -0.278556, 0.507524, -3.212228, -17.927917, -73.034470, -648.811157
1733470117.827268, 43.360488, -9.742007, -5.029619, -0.940205, 1.038747, -2.355511, -17.628723, -72.124405, -648.639282
1733470117.837261, 46.554952, -7.597550, -3.016544, -1.507069, 1.191417, -1.569051, -17.012039, -71.205338, -648.817993
1733470117.847271, 47.215303, -5.080646, -2.175132, -1.948139, 1.122807, -0.932016, -16.681870, -70.385529, -649.538147
1733470117.857272, 47.024066, -3.675100, -1.664120, -2.265274, 0.744374, -0.383654, -16.822205, -69.839600, -649.734192
1733470117.867264, 45.786264, -3.926640, -2.209998, -2.460736, 0.225110, -0.103865, -16.852585, -68.850586, -650.383850
1733470117.877265, 43.634475, -5.083339, -3.893271, -2.394784, -0.308856, -0.202122, -16.211411, -68.062332, -650.971252
1733470117.887262, 41.385422, -4.219481, -5.419874, -1.895933, -0.916916, -0.241753, -15.788406, -67.237976, -651.932251
1733470117.896438, 39.967755, -1.139490, -5.904700, -1.279583, -1.576181, 0.081517, -15.872787, -66.907745, -652.337280
1733470117.907267, 38.267872, -0.989703, -5.203947, -0.873522, -2.261636, 0.536964, -15.606323, -66.536011, -653.164612
1733470117.917259, 34.611627, -1.822885, -5.417480, -0.544234, -2.565157, 1.116685, -15.903564, -66.631348, -653.643616
1733470117.927265, 29.674484, -1.168819, -6.499060, -0.282193, -2.285805, 1.696546, -16.257339, -67.080048, -654.197144
1733470117.937257, 24.977509, -0.689829, -6.726809, -0.192435, -1.640884, 2.175602, -16.656876, -67.649811, -654.709595
1733470117.947258, 21.042040, 0.016610, -6.176292, -0.246897, -0.852530, 2.611718, -17.051987, -68.095566, -654.400940
1733470117.957323, 17.947983, 1.475427, -5.789479, -0.301046, -0.059140, 3.126675, -17.052277, -68.954575, -654.065002
1733470117.967267, 15.323788, 3.411737, -5.529109, -0.249856, 0.656191, 3.739296, -17.082031, -69.894867, -654.138550
1733470117.977255, 12.907291, 5.303755, -4.902128, -0.108266, 1.198164, 4.464262, -17.089325, -70.918747, -654.423950
1733470117.987254, 10.089764, 7.145046, -3.612252, 0.072750, 1.529026, 5.289719, -17.362244, -72.147552, -653.200806
1733470117.997269, 6.884527, 9.156175, -1.780388, 0.210389, 1.698779, 6.192517, -18.620850, -73.544678, -652.992493
1733470118.007273, 2.830096, 10.876409, 0.213234, 0.234454, 1.776850, 7.014207, -20.340820, -74.954895, -652.499146
1733470118.017272, -2.559102, 11.237335, 3.034501, 0.042784, 1.572808, 7.444788, -22.340210, -76.144455, -652.509460
1733470118.027259, -8.267777, 10.184784, 5.959766, -0.481467, 1.059374, 7.363549, -24.123611, -76.584320, -652.538086
1733470118.037282, -13.230807, 9.087192, 7.504775, -1.330864, 0.545883, 6.956554, -25.771744, -76.584915, -653.109070
1733470118.047278, -16.764799, 9.361927, 6.924181, -2.211285, 0.236991, 6.515298, -27.636368, -76.052246, -653.801208
1733470118.057268, -20.340239, 9.855881, 4.595670, -2.752940, -0.190851, 6.018528, -30.207733, -75.610992, -654.738098
1733470118.067257, -25.780165, 7.989451, 1.837250, -2.734691, -0.854748, 5.026592, -32.016968, -74.592484, -656.253174
1733470118.077247, -30.374189, 4.190900, -2.550274, -2.095962, -1.325024, 3.648891, -33.157318, -73.996811, -656.384644
1733470118.087247, -32.081853, 1.327435, -7.522282, -0.997912, -1.315329, 2.347690, -33.853729, -73.894562, -656.858826
1733470118.097265, -31.656134, -0.829441, -10.747721, 0.162276, -0.857951, 1.215212, -33.853729, -73.894562, -656.858826
1733470118.107257, -29.913156, -2.466177, -11.094431, 0.986392, -0.268020, 0.239744, -34.486816, -74.025620, -656.567993
1733470118.117254, -27.547235, -2.744653, -9.567529, 1.426875, 0.313542, -0.639075, -34.357681, -75.416122, -655.730469
1733470118.127255, -25.029433, -2.311602, -7.607875, 1.666519, 0.760992, -1.454293, -34.357681, -75.416122, -655.730469
1733470118.137258, -21.828984, -1.493234, -6.161029, 1.873935, 1.134977, -2.108477, -33.651016, -75.903397, -654.960388
1733470118.147250, -17.893964, -0.345813, -5.058649, 2.103350, 1.338797, -2.494071, -32.381058, -76.707214, -654.373047
1733470118.157252, -14.064738, 0.926855, -3.503764, 2.328390, 1.288118, -2.606119, -30.934479, -77.315781, -653.271973
1733470118.167254, -11.013178, 1.467197, -2.094478, 2.475239, 1.078047, -2.548847, -29.955658, -78.187820, -651.642944
1733470118.177246, -8.878747, 1.009605, -0.825700, 2.485085, 0.797284, -2.505005, -29.342560, -78.824310, -651.509277
1733470118.187246, -7.155371, -0.183605, 0.286706, 2.355175, 0.478740, -2.534064, -28.470703, -79.287811, -650.772095
1733470118.197248, -4.779874, -1.605462, 0.881515, 2.162786, 0.110720, -2.549165, -27.794571, -79.826248, -649.506348
1733470118.207250, -1.600374, -2.826954, 1.291223, 1.994349, -0.321691, -2.364124, -27.207352, -80.077484, -648.957214
1733470118.217258, 1.389684, -4.395605, 1.004218, 1.798525, -0.637225, -2.114662, -27.057953, -80.437286, -648.306763
1733470118.227247, 3.971083, -6.811204, 0.251840, 1.582761, -0.871207, -1.906712, -27.106583, -80.669220, -648.302246
1733470118.237245, 6.386683, -9.269601, -0.730232, 1.445171, -1.012290, -1.670573, -27.186356, -80.830261, -647.697388
1733470118.247242, 8.711752, -10.916063, -1.413327, 1.362917, -1.010443, -1.471737, -27.601013, -81.169647, -648.078735
1733470118.257248, 11.083657, -12.938266, -3.081338, 1.311735, -0.508273, -1.335666, -27.901474, -81.297546, -647.424438
1733470118.267246, 14.802301, -15.709105, -5.215170, 1.258043, 0.522750, -1.198695, -28.511078, -81.467728, -646.946777
1733470118.277251, 19.112313, -19.205089, -6.043264, 1.188905, 1.715529, -1.203417, -28.493515, -81.784042, -647.499817
1733470118.287256, 24.306085, -22.688652, -4.883124, 1.138038, 2.569570, -1.162648, -28.644104, -82.140518, -646.312134
1733470118.297252, 30.671968, -24.464252, -1.335665, 1.057132, 2.782554, -1.045942, -28.332062, -82.469635, -645.909668
1733470118.307249, 35.936069, -25.199122, 2.746598, 0.806866, 2.701794, -0.879243, -27.516754, -82.741684, -644.973694
1733470118.317247, 40.364893, -24.116943, 6.378153, 0.340637, 2.328307, -0.528223, -27.204300, -82.818695, -644.634460
1733470118.327246, 43.817332, -22.944083, 9.365967, -0.145455, 1.583997, -0.153025, -27.542450, -82.884521, -644.413818
1733470118.337248, 46.500634, -24.390181, 9.571719, -0.376112, 0.683562, 0.182988, -27.490738, -82.764664, -644.440186
1733470118.347255, 47.420606, -24.916307, 8.424597, -0.358948, -0.274909, 0.587207, -27.048813, -82.901779, -644.551819
1733470118.357255, 45.790453, -23.101203, 7.993192, -0.246191, -1.119436, 1.138239, -26.253845, -82.922531, -643.952637
1733470118.367245, 42.100540, -19.489550, 7.316231, -0.274226, -1.482878, 1.925803, -25.385696, -82.784775, -644.274963
1733470118.377249, 36.075831, -14.517691, 6.405687, -0.569068, -1.246202, 2.895592, -25.795258, -82.797470, -644.298218
1733470118.387245, 28.294526, -10.921450, 4.810550, -0.958791, -0.485675, 3.680300, -26.897171, -83.020752, -644.429016
1733470118.397246, 20.914100, -8.906430, 2.684948, -1.230703, 0.444715, 4.196428, -27.954376, -83.359726, -644.901611
1733470118.407244, 14.614955, -6.406734, 1.347786, -1.334688, 1.222696, 4.470516, -28.632187, -83.450241, -644.812195
1733470118.417255, 8.481010, -4.084807, 1.243040, -1.414018, 1.836531, 4.517937, -29.530151, -83.770462, -644.972107
1733470118.427245, 2.228403, -2.299182, 2.754230, -1.627150, 2.192591, 4.267341, -30.553513, -83.676620, -645.492554
1733470118.437241, -3.166930, -0.673369, 4.621408, -1.952518, 2.243284, 3.723291, -31.139740, -83.382385, -645.930664
1733470118.447240, -7.298125, 1.477671, 6.006753, -2.255693, 1.951180, 2.968612, -31.390884, -83.129913, -646.604065
1733470118.457239, -10.821941, 3.812168, 6.949769, -2.454686, 1.344941, 2.133991, -30.780746, -82.578232, -647.086731
1733470118.467239, -13.114838, 7.166743, 7.003489, -2.579546, 0.461279, 1.496485, -30.552246, -81.839630, -647.802856
1733470118.477242, -13.946973, 11.104158, 5.782745, -2.607294, -0.618041, 1.215678, -30.575684, -81.142181, -648.580078
1733470118.487245, -13.831153, 13.121721, 2.886509, -2.381183, -1.633573, 1.369951, -30.943939, -80.240067, -649.467407
1733470118.496259, -14.241460, 13.246370, -0.805499, -1.891781, -2.359113, 1.808770, -32.610596, -79.595474, -650.049011
1733470118.507259, -16.606033, 12.040291, -3.774908, -1.346284, -2.732323, 2.108248, -34.488297, -79.198822, -650.777466
1733470118.517255, -19.766529, 8.864532, -6.019622, -0.901552, -2.572912, 2.021484, -36.173737, -78.799622, -651.291382
1733470118.527259, -22.338201, 5.461473, -7.444770, -0.667803, -1.828731, 1.515330, -37.959366, -78.552689, -651.728516
1733470118.537250, -23.716513, 3.152266, -8.212710, -0.575310, -0.723413, 0.775613, -38.630798, -78.387894, -652.022095
1733470118.547252, -23.386412, 1.816002, -8.251466, -0.463829, 0.469034, -0.066131, -38.508957, -78.239075, -652.503906
1733470118.557237, -21.515344, 0.704045, -7.856423, -0.208256, 1.440404, -0.909429, -38.326675, -78.294373, -652.147217
1733470118.567285, -18.440440, 0.683993, -6.639271, 0.187847, 1.997108, -1.624751, -37.238449, -78.346085, -653.057129
1733470118.577236, -15.357906, 1.851616, -4.805462, 0.646731, 2.085691, -2.141090, -35.297699, -78.566849, -652.567383
1733470118.587243, -12.962956, 3.277064, -2.954894, 1.073528, 1.859743, -2.502279, -33.784531, -78.970337, -651.995667
1733470118.597309, -11.125257, 4.090793, -1.510891, 1.407735, 1.462801, -2.764009, -32.349030, -79.297134, -651.491943
1733470118.607237, -9.577256, 4.659865, -0.561889, 1.648845, 0.986424, -2.919727, -30.939713, -79.704987, -650.803955
1733470118.617235, -8.145523, 5.085434, -0.342371, 1.865035, 0.551368, -3.010643, -29.816940, -80.156799, -649.740845
1733470118.627232, -6.736984, 4.715380, -0.963965, 2.105851, 0.298020, -3.106365, -28.980270, -80.459839, -649.281982
1733470118.637277, -5.088876, 3.920206, -1.645864, 2.394548, 0.177233, -3.206469, -27.879059, -80.894775, -648.041504
1733470118.647233, -2.882918, 3.175460, -1.471536, 2.676884, -0.012911, -3.260977, -26.600540, -81.293442, -646.662659
1733470118.657249, -0.674117, 2.491915, -0.731878, 2.885857, -0.310729, -3.169672, -25.554123, -81.888229, -645.473145
1733470118.667251, 1.687463, 1.550844, -0.132130, 2.951306, -0.533605, -2.913891, -24.891632, -82.165619, -645.028931
1733470118.677292, 4.627693, -0.240468, 0.857423, 2.769856, -0.748365, -2.548856, -24.441406, -82.397781, -644.449646
1733470118.687231, 7.204602, -3.162142, 2.181866, 2.293678, -1.093883, -2.136309, -24.172195, -82.649963, -643.650757
1733470118.697233, 8.688857, -5.687576, 3.084480, 1.695158, -1.423063, -1.688556, -24.852249, -82.694168, -643.755737
1733470118.707229, 9.855282, -8.040477, 3.001581, 1.085716, -1.369385, -1.443252, -25.838623, -82.948776, -644.136230
1733470118.717267, 11.250952, -11.933749, 1.501613, 0.570147, -0.817867, -1.667100, -26.551117, -82.598404, -644.567017
1733470118.727231, 14.418930, -17.172561, -0.814777, 0.278739, 0.288681, -2.069625, -26.667694, -82.448654, -644.437500
1733470118.737228, 21.015404, -21.260810, -1.224634, 0.090289, 1.307678, -2.338458, -26.311066, -82.151535, -644.511597
1733470118.747238, 29.877392, -24.612543, 1.367388, -0.066549, 1.726883, -2.263374, -25.123703, -81.882568, -644.791138
1733470118.757294, 39.210439, -27.496359, 5.622034, -0.255124, 1.334407, -1.613447, -24.905716, -81.563034, -643.860718
1733470118.767234, 44.399422, -27.496359, 9.529820, -0.579483, 0.568092, -0.706841, -24.862488, -81.306213, -644.734741
1733470118.777244, 45.676879, -27.484986, 9.976489, -0.938479, 0.099136, 0.097930, -24.964783, -81.016846, -645.081238
1733470118.787255, 44.522125, -28.159253, 8.154950, -1.306074, 0.018664, 0.703646, -25.361435, -80.682571, -645.936279
1733470118.797244, 42.412534, -29.207764, 6.526743, -1.716675, 0.134670, 1.089392, -25.382690, -80.414810, -646.586243
1733470118.807236, 40.130112, -29.563602, 5.030367, -2.063890, 0.270272, 1.332345, -25.154541, -79.997238, -646.831970
1733470118.817234, 36.817135, -27.338491, 3.767576, -2.238933, 0.239328, 1.512753, -24.942841, -79.546371, -647.260498
1733470118.827232, 32.937332, -23.153277, 3.235913, -2.365280, -0.058743, 1.774352, -24.856598, -79.009720, -648.306396
1733470118.837228, 29.510331, -20.596419, 2.476652, -2.481265, -0.614473, 2.111110, -25.027634, -78.720154, -648.901917
1733470118.847228, 24.207324, -18.226159, 0.165350, -2.421735, -1.010495, 2.370099, -25.244339, -78.442032, -649.470764
1733470118.857288, 18.186505, -15.102026, -2.937087, -2.201879, -1.011206, 2.504059, -25.699371, -78.073441, -649.464478
1733470118.867238, 13.233351, -12.455086, -5.142147, -1.891588, -0.704678, 2.518622, -26.253174, -77.805588, -650.777710
1733470118.877225, 9.662998, -9.536853, -6.228516, -1.551265, -0.215920, 2.549815, -26.699371, -77.831741, -651.423828
1733470118.887229, 7.014263, -6.367828, -6.468235, -1.183794, 0.355885, 2.630564, -26.703735, -77.818130, -651.278198
1733470118.897289, 4.683657, -3.496432, -6.265626, -0.776284, 0.965888, 2.774666, -27.084625, -78.120010, -651.130249
1733470118.907226, 2.239925, -0.678158, -5.225195, -0.389340, 1.497092, 2.945649, -27.174072, -78.501541, -651.140625
1733470118.917235, -0.700005, 1.673547, -2.768894, -0.106471, 1.911957, 3.060726, -27.792389, -79.087173, -651.048035
1733470118.927228, -4.194342, 2.502240, 0.160711, -0.013880, 2.212511, 2.872590, -28.252472, -79.454361, -650.694946
1733470118.937222, -7.826047, 2.773832, 3.110218, -0.171479, 2.081336, 2.258035, -28.186920, -79.710373, -650.686768
1733470118.947221, -10.412832, 3.827730, 6.271013, -0.615477, 1.287869, 1.336897, -27.730194, -79.443405, -650.789185
1733470118.957230, -11.335647, 5.723938, 8.054394, -1.162509, 0.014251, 0.509265, -27.631866, -79.139175, -650.715088
1733470118.967225, -10.447249, 7.459435, 6.687903, -1.399104, -1.276413, 0.099651, -27.925705, -78.671356, -651.692078
1733470118.977231, -8.557775, 8.384943, 3.055750, -1.159516, -2.321301, 0.144355, -28.497375, -78.558060, -652.152222
1733470118.987018, -6.773196, 9.047389, -0.386215, -0.532913, -2.983112, 0.620254, -29.710587, -78.487549, -652.313477
1733470118.997232, -6.058378, 9.388563, -3.032855, 0.250547, -3.104864, 1.319769, -32.038208, -79.015686, -651.971436
1733470119.007226, -7.672369, 8.565107, -3.869778, 0.884254, -2.950002, 1.805924, -33.826462, -79.363159, -651.817139
1733470119.016551, -10.268132, 6.877494, -2.464831, 1.142636, -2.947325, 1.912342, -35.940842, -79.727356, -651.186157
1733470119.026326, -12.178406, 5.345354, -0.637007, 1.049695, -3.145237, 1.806049, -37.643478, -80.195663, -651.164856
1733470119.037233, -13.560309, 4.346523, 0.423026, 0.822949, -3.428536, 1.566952, -39.708435, -80.230942, -650.524780
1733470119.047226, -14.654160, 3.495235, 0.518943, 0.639205, -3.607701, 1.193263, -41.258408, -80.568527, -650.264832
1733470119.057236, -15.386187, 2.373103, -0.634613, 0.582794, -3.483690, 0.712124, -42.791611, -80.521667, -649.303833
1733470119.067228, -15.434221, 1.507748, -2.203414, 0.628388, -3.035017, 0.180013, -43.597763, -80.671478, -649.699280
1733470119.077221, -14.639047, 1.188871, -3.457227, 0.726126, -2.322320, -0.323176, -44.081192, -80.908173, -649.342041
1733470119.087242, -13.216442, 1.571943, -3.879355, 0.812894, -1.554414, -0.706864, -43.955536, -81.256409, -648.098145
1733470119.097221, -11.710639, 2.185158, -3.769222, 0.873248, -0.775026, -0.962116, -43.553482, -81.472488, -648.318176
1733470119.107228, -10.581025, 2.547879, -3.729418, 0.893218, 0.098028, -1.095656, -43.069473, -81.724091, -647.812256
1733470119.117277, -9.610475, 2.752434, -3.352331, 0.875853, 0.976452, -1.177037, -42.352112, -81.978363, -647.753357
1733470119.127222, -8.455422, 2.335843, -2.265513, 0.784500, 1.659885, -1.252489, -41.323807, -82.321808, -647.908203
1733470119.137221, -6.947524, 1.179593, -0.751181, 0.626269, 1.902680, -1.316438, -40.817719, -82.457809, -647.553589
1733470119.147211, -4.526538, -0.572513, 0.901118, 0.479602, 1.526357, -1.308734, -40.428421, -82.442917, -647.711365
1733470119.157292, -1.080982, -3.024625, 2.053776, 0.359021, 0.694935, -1.075287, -40.324936, -82.269928, -646.906860
1733470119.167233, 2.363825, -5.639392, 2.564340, 0.187994, -0.282876, -0.599701, -40.588654, -82.117844, -647.595459
1733470119.176352, 4.695478, -8.496872, 1.903690, -0.079093, -1.057131, -0.075063, -40.790405, -81.881454, -647.845642
1733470119.187212, 5.170727, -11.527931, -0.969652, -0.258893, -1.104582, 0.461775, -42.089951, -81.580704, -648.205444
1733470119.197237, 4.491971, -14.410999, -4.827010, -0.322798, -0.397655, 0.818523, -43.550003, -81.451462, -649.209045
1733470119.207224, 3.046771, -28.623579, -13.736582, 0.256863, 2.827785, -0.101526, -43.269730, -81.616074, -649.743164
1733470119.217379, 3.046771, -28.623579, -13.736582, 0.256863, 2.827785, -0.101526, -42.430725, -81.993591, -649.977905
1733470119.227272, 6.418256, -36.812945, -12.623279, 0.632074, 3.716569, -0.706646, -41.302185, -82.454330, -650.017151
1733470119.237309, 11.100866, -39.016808, -7.584831, 0.962063, 3.814294, -1.128552, -40.027328, -82.804703, -649.344604
1733470119.247269, 21.771822, -39.486670, 4.295647, 0.911737, 2.202523, -1.098917, -39.199188, -83.214935, -649.242493
1733470119.257249, 21.771822, -39.486670, 4.295647, 0.911737, 2.202523, -1.098917, -38.646896, -83.468002, -648.798950
1733470119.267243, 25.387366, -40.620325, 6.616077, 0.679802, 1.354722, -0.913841, -37.768402, -83.498459, -648.377930
1733470119.277218, 26.421212, -41.407119, 5.900510, 0.493605, 0.906212, -0.697442, -36.467957, -83.504898, -647.959290
1733470119.287237, 25.758767, -35.529504, 6.247520, -0.046053, 0.649799, 0.229490, -35.930756, -83.605469, -647.811646
1733470119.297215, 22.568343, -30.840011, 6.399851, -0.439357, 0.707382, 0.713098, -35.132736, -83.419693, -647.213257
1733470119.307221, 17.594988, -25.288905, 5.989544, -0.876374, 0.833576, 1.064641, -34.772308, -83.187881, -647.636780
1733470119.316929, 17.594988, -25.288905, 5.989544, -0.876374, 0.833576, 1.064641, -34.765076, -82.881912, -647.333740
1733470119.327220, 8.347683, -16.705542, 1.679084, -1.321135, 1.335066, 1.150463, -34.465042, -82.860931, -647.392944
1733470119.337212, 5.232528, -12.969989, 0.426318, -1.321618, 1.500611, 0.989135, -34.126938, -82.562057, -647.784973
1733470119.347210, 2.717569, -9.254787, 0.624587, -1.316734, 1.486226, 0.769584, -33.661819, -82.204529, -648.315674
1733470119.357215, 0.862511, -5.909788, 1.301099, -1.297405, 1.342199, 0.587849, -32.738113, -82.037109, -647.891541
1733470119.367209, -0.600795, -2.395548, 1.566406, -1.218947, 1.166123, 0.510808, -32.177261, -81.774902, -648.856934
1733470119.377211, -2.295142, 0.460734, 2.088342, -1.091173, 0.938561, 0.455214, -31.995438, -81.664505, -649.004822
1733470119.387211, -4.019416, 2.601749, 3.090465, -0.944385, 0.677601, 0.305227, -31.980560, -81.523300, -649.353638
1733470119.397207, -5.411794, 4.600309, 3.969437, -0.861046, 0.376012, 0.036915, -31.562057, -81.314407, -649.430847
1733470119.407209, -6.548291, 6.706159, 4.915745, -0.935058, -0.162251, -0.270205, -31.241455, -81.124329, -649.056335
1733470119.417211, -6.981342, 8.707711, 5.517737, -1.177824, -0.910835, -0.476977, -31.027023, -80.577301, -649.599670
1733470119.427224, -6.625205, 10.197653, 5.215768, -1.513991, -1.670546, -0.450995, -31.138458, -79.980835, -649.960388
1733470119.437207, -5.699397, 11.235988, 4.013430, -1.808868, -2.280802, -0.127177, -31.293060, -79.183502, -650.880981
1733470119.447217, -5.086930, 12.095956, 2.323573, -1.952562, -2.744384, 0.436829, -32.457870, -78.623138, -652.043762
1733470119.457210, -5.191377, 12.845939, 0.534506, -1.935405, -3.075420, 1.096364, -34.043488, -77.959839, -652.397766
1733470119.467205, -6.017676, 12.626571, -1.502511, -1.801613, -3.169432, 1.693817, -36.180420, -77.290909, -653.664551
1733470119.477205, -7.157316, 10.952275, -3.673902, -1.598882, -2.908609, 2.118813, -38.334839, -76.512955, -654.479675
1733470119.487211, -8.685864, 8.737190, -5.495441, -1.386583, -2.335016, 2.281580, -40.237640, -75.773987, -654.791504
1733470119.496220, -10.513987, 6.958597, -6.853851, -1.177462, -1.491598, 2.103511, -40.237640, -75.773987, -654.791504
1733470119.507204, -12.001385, 5.505616, -7.425916, -0.938309, -0.586239, 1.592352, -42.740250, -74.822464, -655.751221
1733470119.517206, -12.222848, 4.362684, -7.382072, -0.640720, 0.264747, 0.986593, -43.093582, -74.271530, -656.010376
1733470119.527207, -11.681160, 3.912275, -7.271939, -0.275127, 1.052809, 0.378046, -42.791214, -74.146149, -656.245422
1733470119.537212, -11.045051, 3.273771, -7.633613, 0.140099, 1.894829, -0.259189, -41.890640, -74.247040, -656.302490
1733470119.546500, -10.155605, 2.900276, -7.604433, 0.621064, 2.668885, -0.820819, -41.890640, -74.247040, -656.302490
1733470119.557209, -8.747216, 3.427300, -6.560412, 1.126292, 3.244542, -1.210612, -38.640167, -75.015274, -655.388062
1733470119.567202, -6.600964, 4.619762, -3.923049, 1.591782, 3.307787, -1.374461, -37.327835, -75.502319, -655.270752
1733470119.577203, -4.068198, 5.263353, -0.515352, 1.933444, 2.774368, -1.330003, -35.869583, -76.259735, -654.460815
1733470119.587213, -1.309179, 5.243900, 3.360112, 2.083005, 1.636263, -1.078501, -35.365921, -77.056320, -653.984192
1733470119.597211, 1.228076, 3.970484, 7.063045, 1.870034, 0.113337, -0.794893, -35.626358, -77.203903, -653.282654
1733470119.607212, 2.762310, -0.352845, 8.253711, 1.176421, -1.296368, -0.628844, -35.626358, -77.203903, -653.282654
1733470119.617234, 3.761590, -6.087557, 5.609315, 0.406243, -2.000235, -0.427419, -35.823257, -77.221344, -652.769836
1733470119.627210, 3.745429, -10.474034, -0.139612, -0.097218, -1.717681, -0.202163, -36.436920, -77.001633, -652.860229
1733470119.637200, 2.678962, -14.889540, -7.685238, -0.181621, -0.465410, -0.247736, -37.370239, -76.790604, -653.094482
1733470119.647201, 2.709039, -22.734292, -14.271986, 0.292824, 1.336722, -0.718195, -38.382645, -76.821747, -654.285461
1733470119.657206, 5.933281, -31.800834, -17.053599, 1.124333, 2.816074, -1.129751, -37.505722, -77.308899, -654.822144
1733470119.667200, 11.515212, -36.482246, -11.943026, 1.697877, 2.952255, -1.263534, -37.020447, -77.930115, -653.608887
1733470119.677251, 16.784850, -39.146694, -3.076250, 1.714021, 2.230789, -1.151568, -35.855133, -78.286194, -653.496277
1733470119.687208, 19.337967, -39.523331, 3.633201, 1.057625, 1.408421, -0.966653, -34.779770, -78.736725, -652.987915
1733470119.697196, 20.239833, -39.155672, 6.781726, 0.017750, 0.775947, -0.838115, -34.438660, -78.749847, -652.654907
1733470119.707197, 20.910209, -41.559001, 4.417601, -0.674300, 0.469036, -0.843711, -34.249283, -78.728790, -653.178589
1733470119.717243, 21.251383, -43.675476, -0.085742, -0.865072, 0.310234, -0.909395, -33.755997, -78.493088, -653.543579
1733470119.727196, 21.657499, -43.430968, -2.744803, -0.716916, 0.154355, -0.904844, -33.266708, -78.249893, -653.734619
1733470119.737201, 21.341614, -40.199095, -3.148824, -0.500657, 0.026438, -0.774010, -32.350204, -77.753906, -653.708801
1733470119.747193, 19.824888, -34.313399, -1.407342, -0.384511, -0.170908, -0.529584, -31.482864, -77.632767, -653.108948
1733470119.757243, 17.200992, -28.085781, -0.134075, -0.383627, -0.328705, -0.183061, -30.673828, -77.253448, -652.823853
1733470119.767205, 13.854646, -24.005014, -0.392799, -0.496179, -0.326512, 0.102774, -30.205139, -77.238083, -652.527466
1733470119.777212, 10.147375, -21.112370, -1.770662, -0.511627, -0.115177, 0.220747, -30.103165, -77.182053, -652.683960
1733470119.787197, 6.804171, -17.378911, -3.467253, -0.328781, 0.271970, 0.239571, -29.780548, -77.135483, -652.772888
1733470119.797211, 4.290709, -13.220632, -3.696198, -0.094289, 0.659618, 0.187289, -29.344955, -77.263962, -652.710999
1733470119.807209, 2.373701, -9.240421, -2.541445, 0.111247, 0.910628, 0.111505, -28.783875, -77.439087, -651.957153
1733470119.817198, 0.741155, -5.448904, -0.869544, 0.289608, 1.002583, 0.086246, -28.064072, -77.761581, -651.506592
1733470119.827203, -0.920571, -2.441487, 0.625186, 0.444326, 1.045138, 0.039404, -27.770706, -78.084946, -651.533081
1733470119.837210, -3.176507, -0.330400, 2.704550, 0.483007, 1.096801, -0.115736, -26.966492, -78.447479, -651.151855
1733470119.847191, -5.666477, 2.142362, 5.391593, 0.316291, 0.865595, -0.447719, -26.239059, -78.844727, -651.039917
1733470119.857195, -7.571214, 5.006874, 7.660099, -0.080982, 0.224534, -0.896824, -25.696869, -78.952286, -650.777100
1733470119.867247, -8.318953, 7.602638, 8.569596, -0.601836, -0.741478, -1.174919, -24.686600, -78.488449, -650.419312
1733470119.877201, -7.583484, 10.039785, 7.684789, -1.041167, -1.668516, -1.115541, -24.343872, -78.074921, -650.666992
1733470119.886289, -6.300042, 11.500548, 5.159056, -1.287489, -2.350479, -0.738214, -24.399750, -77.727386, -651.162231
1733470119.897190, -5.288791, 12.419023, 2.518401, -1.334620, -2.762098, -0.105482, -24.986511, -76.980255, -651.697205
1733470119.907243, -5.111621, 12.944251, 0.124947, -1.229907, -2.860386, 0.626332, -25.898560, -76.799835, -652.468994
1733470119.917188, -5.819556, 12.456283, -1.835604, -1.053684, -2.612777, 1.250475, -27.273682, -76.444443, -653.339600
1733470119.927189, -7.200412, 10.948684, -3.084630, -0.903071, -2.120731, 1.636935, -29.017532, -76.137497, -654.042725
1733470119.937207, -8.875306, 9.584887, -3.472640, -0.841731, -1.512959, 1.759641, -30.617020, -75.818665, -654.437012
1733470119.947266, -10.471939, 8.680477, -3.646668, -0.865462, -0.800847, 1.634938, -31.858261, -75.557831, -654.527466
1733470119.957187, -11.424831, 7.952191, -3.642628, -0.871775, -0.205860, 1.344840, -32.725327, -75.301376, -655.162842
1733470119.967188, -11.490971, 7.658752, -3.715352, -0.734619, 0.194114, 1.013636, -33.077621, -74.824509, -655.802795
1733470119.977186, -11.185561, 7.349451, -4.384382, -0.379607, 0.471435, 0.692938, -33.432388, -74.537735, -655.802063
1733470119.987199, -11.104008, 7.073519, -4.952705, 0.160479, 0.675124, 0.384642, -33.382797, -74.331879, -655.748108
1733470119.997244, -11.506234, 6.502951, -5.799654, 0.772388, 1.030767, 0.005556, -33.095642, -74.488007, -655.706848
1733470120.007186, -11.968764, 5.461922, -6.077531, 1.335729, 1.399144, -0.483186, -33.011703, -74.902054, -655.027466
1733470120.017187, -11.798626, 4.119074, -5.328146, 1.818527, 1.598994, -1.118457, -32.689468, -75.133530, -654.089722
1733470120.027200, -10.438270, 2.608632, -4.393959, 2.266293, 1.470711, -1.748684, -31.378220, -76.045639, -653.971191
1733470120.037194, -7.688829, 1.889624, -2.952500, 2.764164, 0.853698, -2.189780, -30.786255, -76.831833, -652.869141
1733470120.047195, -4.204966, 1.022474, -1.327884, 3.298412, -0.177499, -2.422961, -29.891144, -77.682724, -651.815552
1733470120.057184, -0.271443, -0.893636, 0.343418, 3.768301, -1.481061, -2.420453, -29.820755, -78.900757, -650.388672
1733470120.067184, 3.823839, -4.310012, 1.190666, 3.917923, -2.626214, -2.204517, -29.574478, -79.496078, -649.733643
1733470120.077186, 7.482329, -8.415320, 1.922843, 3.529555, -3.627015, -1.698576, -29.843109, -80.286484, -648.615356
1733470120.087196, 9.563339, -12.037896, 2.603694, 2.709279, -4.049698, -1.097991, -31.095245, -80.797577, -647.752136
1733470120.097236, 9.398139, -15.488091, 0.477344, 1.861827, -3.164454, -0.774272, -32.646561, -81.507065, -647.636719
1733470120.107183, 10.225037, -20.252253, -3.196409, 1.075984, -1.179523, -0.815290, -34.294373, -81.783188, -648.233337
1733470120.117193, 14.043639, -27.069293, -6.036531, 0.517720, 1.171015, -1.060375, -34.545303, -81.942734, -648.030396
1733470120.127200, 20.809054, -33.243640, -5.816264, 0.231685, 2.625240, -0.969040, -33.795990, -82.204742, -648.197632
1733470120.137191, 27.516260, -36.013731, -1.962198, 0.138433, 2.820865, -0.471198, -32.915085, -82.238892, -647.887573
1733470120.147186, 30.175770, -36.532824, 1.682076, 0.040125, 2.373124, 0.099440, -32.729279, -82.366531, -647.649170
1733470120.157190, 29.902232, -37.674559, 3.898359, -0.190194, 1.798926, 0.306347, -32.838684, -82.548141, -647.487427
1733470120.167188, 29.079674, -39.911042, 3.503764, -0.293362, 1.404169, 0.269366, -32.556091, -82.193512, -648.018921
1733470120.177192, 28.894123, -40.292319, 3.143138, -0.374862, 0.939135, 0.243230, -32.327164, -82.253967, -648.179626
1733470120.186935, 28.429798, -39.081003, 3.381810, -0.414290, 0.521840, 0.226263, -31.923569, -81.991028, -647.826782
1733470120.197183, 26.683677, -36.943130, 2.490269, -0.328415, 0.345397, 0.217546, -31.171432, -81.926056, -647.455933
1733470120.207190, 24.396616, -33.119740, 2.181267, -0.256836, 0.263669, 0.331388, -30.305359, -81.862762, -647.414734
1733470120.217250, 21.232977, -27.836934, 3.086874, -0.331145, 0.217134, 0.528353, -29.718201, -81.821075, -646.713989
1733470120.227180, 16.992846, -23.161058, 3.148824, -0.519229, 0.390249, 0.641300, -29.329056, -81.740494, -646.877686
1733470120.237181, 12.966398, -19.545215, 2.235287, -0.690309, 0.728145, 0.602803, -29.261917, -81.625778, -646.903320
1733470120.247190, 10.040833, -16.038757, 1.050905, -0.718129, 1.079656, 0.483379, -28.612381, -81.649185, -646.318115
1733470120.257184, 7.927800, -12.163442, -0.097713, -0.581376, 1.361690, 0.361947, -27.969833, -81.856064, -645.393555
1733470120.267188, 6.140379, -8.213309, -0.475548, -0.350051, 1.533248, 0.290234, -26.923691, -81.727936, -645.648254
1733470120.277195, 4.175488, -4.389469, -0.124947, -0.101435, 1.598042, 0.332388, -26.102676, -81.756836, -645.430542
1733470120.287188, 1.979107, -0.307655, 0.802357, 0.110057, 1.621424, 0.435009, -25.723129, -82.108521, -645.028870
1733470120.297253, -0.416890, 2.867954, 2.387767, 0.175551, 1.524362, 0.405967, -24.957260, -82.334213, -644.574707
1733470120.307172, -2.456451, 5.010615, 4.113837, 0.026632, 1.209193, 0.241694, -24.646255, -82.480377, -644.174377
1733470120.317194, -3.686322, 7.075165, 5.942109, -0.300728, 0.600342, 0.119715, -24.115082, -82.508743, -644.265564
1733470120.327182, -4.096778, 8.503007, 7.408857, -0.770610, -0.278860, 0.165479, -23.641541, -82.437973, -644.634338
1733470120.337173, -4.206313, 9.107992, 7.727884, -1.318176, -1.307862, 0.476527, -23.664200, -81.964752, -645.003784
1733470120.347174, -4.236689, 9.385719, 6.393566, -1.837266, -2.162407, 1.068574, -24.415588, -81.505539, -646.134277
1733470120.357243, -5.574749, 9.857078, 4.050540, -2.213427, -2.738474, 1.799538, -25.617157, -80.938797, -646.386780
1733470120.367173, -9.013271, 10.255413, 1.271022, -2.419932, -3.002421, 2.392992, -27.826752, -80.194138, -648.334839
1733470120.377173, -13.992612, 9.242067, -1.500267, -2.430379, -2.974526, 2.544333, -29.902603, -79.740463, -649.468262
1733470120.387182, -19.175161, 6.918046, -4.363881, -2.244616, -2.660944, 2.178961, -31.827438, -78.915253, -650.674866
1733470120.397245, -23.769933, 4.859182, -7.000496, -1.895231, -1.978688, 1.349324, -33.181305, -78.316559, -651.933411
1733470120.407204, -26.194063, 2.980931, -9.431808, -1.422228, -0.926739, 0.218562, -33.582230, -77.947830, -652.475464
1733470120.417249, -25.269003, 1.776049, -10.369587, -0.871442, 0.025650, -0.842322, -33.305634, -77.618042, -652.572571
1733470120.427223, -22.619220, 1.430386, -9.652374, -0.265508, 0.512451, -1.719488, -32.630737, -77.564087, -652.918457
1733470120.437177, -19.609409, 1.996315, -8.495525, 0.431214, 0.643988, -2.398417, -31.395599, -77.462433, -652.079590
1733470120.447170, -16.596307, 3.072359, -7.240814, 1.155539, 0.578928, -2.829421, -30.284225, -77.844009, -651.648926
1733470120.457174, -13.503297, 4.315848, -5.444115, 1.742852, 0.335707, -3.022619, -29.023834, -78.243195, -650.578979
1733470120.467184, -10.487202, 5.147534, -3.464859, 2.131846, -0.025261, -3.038323, -28.288498, -78.705307, -650.185547
1733470120.477184, -7.483377, 5.040543, -1.734749, 2.342185, -0.466820, -2.941511, -27.798096, -79.041626, -649.695068
1733470120.487178, -4.564396, 4.382287, -0.235081, 2.419137, -0.958759, -2.725041, -27.632614, -79.511124, -648.773071
1733470120.496197, -1.514482, 3.082235, 0.557849, 2.377133, -1.416712, -2.436129, -27.225159, -79.994171, -648.061035
1733470120.507178, 1.463905, 1.032051, 0.933589, 2.232453, -1.816504, -2.022107, -27.527069, -80.373047, -648.012146
1733470120.517174, 3.687819, -1.637634, 1.211616, 1.905771, -1.925946, -1.593564, -28.097519, -80.511047, -647.409485
1733470120.527178, 5.501427, -5.105934, 1.364246, 1.351344, -1.837254, -1.217614, -28.861725, -80.799515, -647.360107
1733470120.537169, 7.496994, -8.602965, 1.345092, 0.695359, -1.558497, -0.953292, -29.764145, -80.674911, -647.720825
1733470120.547175, 9.071630, -12.034305, -0.080954, 0.172827, -0.971337, -0.909752, -30.684158, -80.612747, -648.141357
1733470120.557172, 10.739940, -15.767314, -2.545485, -0.127379, -0.018717, -1.181207, -31.108978, -80.754807, -648.209778
1733470120.567180, 14.147637, -20.130896, -4.300435, -0.293071, 1.049285, -1.676432, -30.725784, -80.369812, -649.386719
1733470120.577168, 21.170130, -23.815124, -4.428525, -0.244765, 1.505548, -1.870113, -30.334656, -80.160904, -649.177063
1733470120.587171, 29.232753, -25.211991, -2.836680, 0.032342, 1.204976, -1.668976, -30.167252, -80.107101, -648.846802
1733470120.597178, 35.501521, -25.613319, -0.158017, 0.205774, 0.470182, -1.224671, -29.762100, -79.922607, -648.856445
1733470120.607184, 39.852384, -25.215133, 2.568380, 0.048652, -0.324429, -0.583130, -29.823303, -79.699295, -649.009094
1733470120.617170, 41.141213, -24.327932, 2.825757, -0.352368, -0.634547, 0.106514, -30.220062, -79.461685, -649.525757
1733470120.627170, 40.621671, -24.092851, 1.269825, -0.837588, -0.521510, 0.717131, -30.418030, -79.463669, -649.549072
1733470120.637174, 39.773525, -25.105000, -0.567875, -1.185975, -0.210028, 1.233678, -30.745407, -79.229095, -649.769287
1733470120.647167, 37.648671, -24.753801, -2.621651, -1.274329, 0.162617, 1.706080, -30.925659, -79.075348, -650.682739
1733470120.657185, 34.769045, -23.438037, -3.208829, -1.253816, 0.384240, 2.137909, -31.215714, -78.925797, -650.390076
1733470120.667170, 31.559319, -23.665037, -3.128324, -1.220544, 0.619103, 2.428903, -31.010223, -78.776917, -651.652710
1733470120.677193, 27.376499, -23.733571, -3.667318, -1.187322, 1.074419, 2.551628, -30.812180, -78.619568, -651.051514
1733470120.687165, 22.774095, -22.137387, -3.615394, -1.166313, 1.626947, 2.567166, -30.309555, -78.636276, -650.958862
1733470120.697167, 17.714100, -18.644696, -1.997063, -1.293357, 2.161618, 2.546829, -29.695023, -78.217743, -650.950928
1733470120.707201, 12.665028, -14.872332, 1.204583, -1.668505, 2.484622, 2.467707, -28.928635, -78.126724, -651.582581
1733470120.717167, 7.704691, -10.410737, 3.914520, -2.127765, 2.477593, 2.342969, -28.070374, -77.564529, -651.501343
1733470120.727171, 3.259406, -5.533449, 5.166837, -2.451618, 2.106863, 2.220258, -27.476105, -76.971680, -652.085388
1733470120.737182, -1.115698, -1.043273, 5.946449, -2.629973, 1.419727, 2.061662, -26.670456, -76.354126, -652.544861
1733470120.747161, -5.280711, 3.786430, 6.516418, -2.750022, 0.434201, 2.018363, -26.746979, -75.258575, -652.796143
1733470120.757206, -8.978855, 9.708937, 6.611738, -2.886697, -0.770282, 2.216201, -27.548492, -74.627594, -652.969849
1733470120.767162, -12.554445, 14.377929, 5.220108, -2.950066, -2.070303, 2.491693, -28.509689, -73.476593, -654.770264
1733470120.777168, -16.050279, 15.454721, 1.738340, -2.724871, -3.342796, 2.852124, -31.182785, -72.532486, -655.750305
1733470120.787174, -20.447230, 13.913005, -3.255516, -2.146351, -4.102590, 3.030973, -34.093689, -71.734558, -656.666260
1733470120.797172, -25.385122, 10.488549, -9.163657, -1.363462, -3.855601, 2.752434, -36.365738, -71.369812, -656.744141
1733470120.807163, -28.518683, 6.245275, -14.025233, -0.577531, -2.725692, 2.041081, -38.079224, -71.481766, -657.021057
1733470120.817163, -29.844322, 3.296965, -16.548423, 0.140515, -1.144251, 1.068254, -38.820190, -71.812775, -657.149170
1733470120.827164, -29.435961, 1.926584, -17.105374, 0.885182, 0.493932, -0.042990, -38.418503, -72.552109, -656.511414
1733470120.837163, -26.477027, 1.507449, -15.437214, 1.738047, 1.616499, -1.059012, -37.301788, -73.938293, -656.059570
1733470120.847162, -22.023812, 2.375048, -11.913099, 2.633967, 2.012752, -1.835267, -36.134125, -75.122635, -655.110901
1733470120.857163, -17.734301, 4.524592, -7.241263, 3.423891, 1.716137, -2.295552, -34.872391, -76.596313, -653.213257
1733470120.866247, -14.020894, 6.419453, -2.959832, 3.957757, 1.051747, -2.522576, -33.982574, -77.953583, -651.971313
1733470120.877167, -10.783484, 7.087435, 0.251990, 4.173635, 0.205747, -2.587027, -33.352844, -79.486954, -650.066040
1733470120.887162, -8.133552, 7.028179, 2.624943, 4.089456, -0.607771, -2.526196, -32.634628, -80.607986, -648.760315
1733470120.897160, -6.029797, 6.455217, 3.618387, 3.804572, -1.157614, -2.379740, -32.521133, -81.536423, -647.319763
1733470120.907172, -4.483143, 5.480627, 3.607763, 3.403944, -1.286112, -2.203896, -32.179581, -82.231873, -646.006897
1733470120.917159, -3.487454, 4.324078, 2.945616, 2.916031, -1.014196, -2.066973, -31.468002, -82.889725, -644.993652
1733470120.927160, -2.453009, 3.232322, 2.453757, 2.389151, -0.528426, -1.950416, -31.089798, -83.262817, -644.462158
1733470120.937158, -1.217302, 2.115427, 1.976413, 1.879423, 0.015498, -1.822530, -30.520523, -83.453613, -643.907837
1733470120.947164, 0.532710, 0.879121, 1.940500, 1.433323, 0.381030, -1.652433, -30.183090, -83.858917, -643.910767
1733470120.957155, 2.794782, -0.345064, 2.102708, 1.115665, 0.455430, -1.404329, -30.187302, -83.977890, -643.414001
1733470120.967212, 5.083489, -2.539949, 2.041356, 0.920437, 0.235399, -1.178967, -30.482040, -84.038132, -643.854614
1733470120.977154, 7.085191, -5.842600, 2.254440, 0.820433, -0.193848, -1.059534, -30.599319, -83.921173, -643.933350
1733470120.987156, 8.056489, -9.398139, 1.788618, 0.762917, -0.520316, -1.189165, -30.657715, -83.945969, -643.799744
1733470120.997155, 8.651148, -12.325799, 0.653767, 0.717670, -0.391487, -1.483890, -30.070404, -83.778625, -643.731567
1733470121.007208, 10.521768, -14.393940, -0.192135, 0.591761, 0.017287, -1.758459, -29.660461, -83.629272, -643.341736
1733470121.017151, 13.623606, -16.783204, -0.398036, 0.494501, 0.437909, -1.900963, -28.872971, -83.665833, -643.408386
1733470121.027156, 17.463457, -18.887109, -0.820164, 0.591718, 0.793566, -1.772355, -29.000549, -83.823074, -643.542114
1733470121.037168, 21.901109, -21.405809, -0.171036, 0.814696, 0.844941, -1.510019, -28.705765, -83.826889, -642.905151
1733470121.047157, 25.878477, -25.706394, 1.077690, 1.090383, 0.914698, -1.287688, -28.368439, -84.068527, -642.218140
1733470121.057154, 28.960413, -28.745384, 3.866785, 1.055931, 0.875342, -1.021172, -27.788071, -84.202072, -641.235962
1733470121.067160, 31.346684, -28.932730, 7.642142, 0.708286, 0.793859, -0.645469, -27.777710, -84.189331, -641.819580
1733470121.077171, 33.434577, -29.653834, 9.707291, 0.147001, 0.834123, -0.155090, -27.851547, -84.061020, -641.702942
1733470121.087161, 33.933170, -29.312660, 10.865186, -0.511098, 0.897844, 0.261876, -27.851547, -84.061020, -641.702942
1733470121.097179, 33.810168, -28.176910, 9.947908, -0.879896, 0.809208, 0.718973, -27.591370, -83.865829, -642.535767
1733470121.107159, 33.536181, -27.148152, 7.940968, -0.952352, 0.417366, 1.158589, -28.010834, -83.931900, -642.726929
1733470121.117165, 31.571888, -26.222194, 5.531354, -0.768327, 0.024641, 1.473101, -27.931015, -84.020508, -642.600464
1733470121.127155, 29.003658, -25.009531, 2.874239, -0.428400, -0.102898, 1.742480, -28.160828, -84.136887, -642.631409
1733470121.137155, 26.551397, -23.549517, 1.208024, -0.100143, 0.065175, 2.037727, -28.600403, -84.296387, -642.482056
1733470121.147151, 23.467815, -21.029021, -0.316334, 0.223160, 0.648520, 2.356759, -28.499664, -84.754181, -642.283936
1733470121.157146, 19.837607, -17.716793, -2.152986, 0.536882, 1.636045, 2.726267, -28.192612, -85.141373, -641.015625
1733470121.167151, 15.135395, -13.865570, -1.736544, 0.551296, 2.846090, 3.029399, -28.465118, -85.724533, -639.550842
1733470121.177166, 9.394847, -11.075128, 1.582867, 0.093988, 3.780400, 3.058167, -28.708023, -86.052750, -639.499573
1733470121.187152, 3.779098, -8.732851, 5.871780, -0.760716, 4.199048, 2.718950, -28.611603, -86.357208, -639.308838
1733470121.197151, -1.023222, -6.186767, 9.613318, -1.807803, 3.872723, 2.032600, -28.556442, -86.376221, -639.557251
1733470121.207145, -4.412663, -2.420987, 11.797728, -2.746131, 2.886022, 1.184144, -28.128922, -85.771561, -640.243591
1733470121.217149, -6.617424, 1.970578, 11.556363, -3.351100, 1.403786, 0.303851, -27.292389, -85.343094, -640.969971
1733470121.227145, -7.899968, 6.701221, 9.169643, -3.479729, -0.269215, -0.348539, -26.269379, -84.335007, -642.043152
1733470121.237146, -7.754670, 11.789648, 4.645350, -3.160916, -1.675346, -0.388755, -25.326721, -83.377884, -643.362000
1733470121.247195, -6.508188, 16.608278, -0.325611, -2.595565, -2.371021, 0.341908, -25.551147, -82.641998, -644.610352
1733470121.257145, -5.698948, 18.699912, -4.128651, -2.088969, -2.322283, 1.497832, -26.574066, -81.889343, -645.076660
1733470121.267144, -7.077110, 17.521516, -5.721394, -1.923085, -1.912529, 2.635357, -28.036072, -81.791977, -645.750854
1733470121.277160, -11.226860, 15.472379, -5.232677, -2.204118, -1.488394, 3.258522, -30.702606, -81.303375, -647.842590
1733470121.287150, -16.672323, 12.345701, -4.696675, -2.659456, -1.090016, 3.145228, -32.768021, -80.406342, -648.985901
1733470121.297143, -20.842872, 8.965088, -5.915025, -2.837835, -0.717834, 2.477933, -34.128906, -79.642975, -650.895325
1733470121.307156, -23.399580, 6.760178, -8.723872, -2.471114, -0.278300, 1.514753, -34.937546, -78.917999, -651.558960
1733470121.317154, -23.129335, 5.070470, -11.246463, -1.650611, 0.241993, 0.519100, -35.422394, -78.387512, -652.543762
1733470121.327157, -20.536414, 4.021960, -11.542895, -0.606356, 0.540028, -0.313258, -34.863495, -78.277069, -652.622375
1733470121.337147, -17.118093, 3.548057, -10.293870, 0.456292, 0.558844, -0.929200, -34.682922, -78.262344, -652.742859
1733470121.347146, -14.492701, 3.318364, -8.625710, 1.360339, 0.483275, -1.402283, -33.930878, -78.774948, -651.971680
1733470121.357146, -13.059323, 3.841646, -5.873874, 1.963016, 0.250491, -1.840475, -33.509048, -79.426926, -651.184326
1733470121.367143, -11.749545, 4.277391, -2.607735, 2.263925, -0.211793, -2.254113, -32.700485, -80.099792, -650.466492
1733470121.377144, -10.064925, 4.254347, -0.028730, 2.340126, -0.898242, -2.597499, -32.238724, -80.707352, -649.376099
1733470121.387147, -7.908347, 4.241927, 1.480664, 2.304270, -1.610484, -2.810411, -31.647629, -80.955627, -648.689148
1733470121.397140, -5.403264, 3.916615, 1.591097, 2.206853, -2.031632, -2.843817, -31.098267, -81.311386, -647.300232
1733470121.407143, -3.447052, 3.467552, 1.088314, 2.039427, -2.175365, -2.732874, -31.014786, -81.765808, -646.876770
1733470121.417145, -1.579275, 2.667440, 0.601244, 1.825879, -2.011773, -2.523599, -30.616592, -82.000992, -646.065857
1733470121.427144, 0.392499, 1.264737, 0.059406, 1.575852, -1.651853, -2.209549, -30.416824, -82.231277, -646.043579
1733470121.437213, 2.510620, -0.180613, 0.475698, 1.232173, -1.280110, -1.811454, -30.698669, -82.181244, -646.007446
1733470121.447143, 4.748001, -2.830395, 1.731457, 0.692155, -1.092367, -1.409792, -30.842056, -82.264420, -646.089478
1733470121.457136, 7.217919, -6.583755, 2.702156, 0.090208, -1.178707, -1.049351, -31.748154, -82.117142, -646.847717
1733470121.467192, 8.762329, -10.894964, 2.271798, -0.320613, -1.256916, -0.897638, -32.445145, -81.841522, -647.524414
1733470121.477150, 9.335591, -15.098285, -0.259172, -0.461359, -0.977832, -1.052534, -32.883804, -81.606674, -648.091492
1733470121.487139, 10.962900, -19.036148, -3.162740, -0.434794, -0.347037, -1.354046, -32.517426, -81.443115, -648.590088
1733470121.496172, 14.609568, -23.143700, -5.459378, -0.214249, 0.422039, -1.508615, -32.476471, -81.105560, -648.697754
1733470121.507161, 19.874867, -26.318711, -6.136189, 0.077280, 0.863117, -1.317548, -32.374084, -80.982849, -648.942993
1733470121.517141, 24.831911, -30.126988, -4.021660, 0.237293, 0.800829, -1.040269, -32.401459, -81.141724, -648.766968
1733470121.526307, 28.613553, -34.537556, -1.646911, 0.217323, 0.458082, -0.785691, -31.958176, -81.014587, -648.961731
1733470121.537157, 30.523378, -36.347124, -0.167594, 0.100143, 0.107090, -0.494209, -32.252731, -80.936172, -648.600769
1733470121.547154, 30.023738, -36.258837, -0.014515, -0.097526, 0.131368, -0.331489, -31.633224, -80.788437, -648.472229
1733470121.557141, 29.521255, -35.946095, -0.041899, -0.358557, 0.345648, -0.168228, -31.418533, -80.721634, -648.663818
1733470121.567163, 29.986628, -34.987965, 0.302268, -0.611837, 0.430217, 0.127846, -30.805359, -80.575928, -649.171875
1733470121.577142, 29.251608, -33.345543, 0.037559, -0.755063, 0.490339, 0.426730, -30.595901, -80.449097, -648.731812
1733470121.587198, 27.072884, -31.014937, -1.338808, -0.774751, 0.703619, 0.686785, -30.583008, -80.250946, -649.066895
1733470121.597183, 25.076419, -29.034484, -1.912668, -0.813607, 0.869270, 0.930900, -30.295715, -80.176376, -649.120789
1733470121.607154, 22.890214, -27.692384, -2.343923, -0.767815, 1.014339, 1.079670, -29.920624, -80.114487, -649.070557
1733470121.617178, 19.765781, -24.687661, -3.870826, -0.509757, 1.288833, 1.190557, -29.069656, -80.199936, -648.544739
1733470121.627140, 16.665439, -20.723611, -4.907365, 0.061356, 2.145684, 1.375657, -28.606796, -80.285522, -648.038025
1733470121.637156, 9.510068, -13.384485, -2.728941, 0.072393, 2.627143, 1.350260, -27.892883, -80.796310, -647.244019
1733470121.647132, 5.846790, -9.969306, 0.124648, -0.169083, 2.911685, 1.207618, -27.150101, -81.143463, -646.851501
1733470121.657128, 3.070713, -6.130204, 2.488174, -0.520135, 2.896980, 1.037523, -26.219406, -81.500183, -645.819702
1733470121.667143, 0.952892, -2.208202, 3.811569, -0.830664, 2.580026, 0.882930, -25.045151, -81.361282, -646.016296
1733470121.677137, -1.050755, 1.725322, 4.518457, -1.045887, 1.999828, 0.734717, -24.375610, -81.365295, -646.110413
1733470121.687134, -2.831293, 5.271882, 4.549282, -1.142223, 1.300364, 0.534971, -23.924118, -81.184372, -646.172791
1733470121.697133, -4.248062, 8.416816, 4.143914, -1.155371, 0.592252, 0.343779, -23.423309, -81.134323, -646.479248
1733470121.707156, -4.676175, 11.115979, 3.224990, -1.143044, 0.024445, 0.373295, -22.951080, -80.803604, -646.558533
1733470121.717138, -4.133589, 12.746580, 2.202217, -1.205424, -0.406835, 0.726812, -22.519348, -80.682327, -646.445618
1733470121.727130, -3.805284, 13.174693, 1.677886, -1.402249, -0.769691, 1.256404, -22.990204, -80.363663, -647.581299
1733470121.737138, -4.540603, 12.354081, 1.252167, -1.667535, -1.094419, 1.724561, -24.015045, -80.112747, -648.017944
1733470121.747129, -6.164620, 10.717344, 0.736367, -1.912530, -1.361364, 1.984461, -25.087753, -80.029892, -649.243896
1733470121.757131, -7.930643, 9.126248, 0.095469, -2.082969, -1.555654, 2.037585, -26.619263, -79.661484, -649.702637
1733470121.767128, -9.227852, 8.109909, -0.732626, -2.127093, -1.724003, 1.975128, -28.186554, -78.977905, -651.246948
1733470121.777139, -9.961824, 7.527520, -1.584961, -2.031296, -1.828706, 1.876831, -29.616257, -78.398361, -652.737000
1733470121.787146, -10.379014, 7.091326, -2.509423, -1.830823, -1.804760, 1.767049, -30.925446, -77.795471, -652.932739
1733470121.797144, -10.656292, 6.453421, -3.585766, -1.557693, -1.548625, 1.621049, -32.229065, -77.124786, -653.709595
1733470121.807136, -10.579079, 5.457433, -4.814291, -1.233009, -1.026114, 1.452922, -33.339417, -76.514160, -654.571228
1733470121.817127, -10.007613, 4.558859, -5.814618, -0.882200, -0.315908, 1.303000, -34.196381, -76.099014, -654.949280
1733470121.827139, -8.925733, 3.761440, -6.177190, -0.524630, 0.405530, 1.183038, -34.834595, -76.074417, -655.425659
1733470121.837139, -7.759458, 2.945018, -6.071246, -0.163136, 1.020409, 1.080942, -35.006119, -75.747406, -655.328613
1733470121.847132, -6.783222, 2.006191, -5.548113, 0.205177, 1.429581, 0.983620, -35.372574, -75.710388, -655.274292
1733470121.857126, -6.301239, 1.258003, -4.603451, 0.583254, 1.566512, 0.869926, -34.809189, -75.991486, -654.242065
1733470121.867129, -6.714838, 1.009455, -3.293524, 0.955829, 1.516487, 0.678967, -34.893234, -76.058014, -654.867920
1733470121.877126, -7.406014, 0.827496, -2.261922, 1.284138, 1.396072, 0.372508, -34.410202, -76.309036, -654.148438
1733470121.887135, -8.179491, 0.519691, -1.569848, 1.510940, 1.297715, -0.041295, -34.060181, -76.800095, -653.335938
1733470121.897126, -8.574833, 0.132579, -1.164330, 1.619588, 1.290859, -0.518325, -33.342117, -77.104645, -652.476685
1733470121.907126, -8.100332, -0.260519, -0.740407, 1.637483, 1.289235, -0.954721, -32.681732, -77.590408, -652.409058
1733470121.917148, -6.862231, -0.860416, -0.243610, 1.580548, 1.139226, -1.296324, -31.928116, -77.736786, -651.506836
1733470121.927133, -5.205593, -1.863138, 0.123152, 1.473191, 0.881089, -1.574144, -31.015045, -78.343948, -651.643250
1733470121.937125, -3.445555, -3.336470, 0.487819, 1.302162, 0.449850, -1.817876, -30.668243, -78.586975, -650.816833
1733470121.947131, -1.429937, -5.585972, 1.115249, 1.072329, -0.249713, -2.048258, -30.399338, -78.675751, -650.484131
1733470121.957131, 1.264587, -8.623316, 1.570746, 0.943381, -1.233221, -2.104888, -29.727402, -78.775208, -650.163025
1733470121.967128, 4.143316, -11.718420, 1.822736, 0.927280, -2.405585, -1.900784, -29.962601, -78.498749, -650.436768
1733470121.977141, 5.851279, -14.369549, 1.270573, 0.982370, -3.509265, -1.658398, -30.626328, -78.835602, -650.854126
1733470121.987125, 6.466589, -17.692552, -1.393725, 1.260413, -3.985056, -1.675980, -32.057541, -79.129333, -651.155334
1733470121.997137, 7.227796, -23.178266, -6.111200, 1.814409, -3.450586, -2.006124, -33.687729, -79.388519, -650.953003
1733470122.007135, 10.190321, -29.595176, -8.386739, 2.209017, -2.553577, -2.392588, -33.821945, -80.069168, -650.584229
1733470122.017129, 15.546599, -33.206380, -5.700295, 2.151010, -1.858828, -2.487240, -33.778992, -80.466324, -650.146362
1733470122.026228, 20.948666, -33.421110, -1.503559, 1.678574, -1.244062, -2.154705, -33.518997, -80.711304, -649.437500
1733470122.037130, 26.390237, -34.122312, 2.398541, 0.887437, -0.932873, -1.559057, -33.746094, -80.892960, -649.040771
1733470122.047129, 29.708601, -35.490748, 3.902998, 0.201200, -0.719672, -0.894597, -33.866409, -81.068222, -648.912598
1733470122.057122, 30.604930, -35.578136, 3.400963, -0.357735, -0.544145, -0.229283, -33.607895, -80.947266, -648.639832
1733470122.066498, 30.266600, -35.209429, 2.954594, -0.821850, -0.355335, 0.418425, -33.706528, -80.548264, -649.171753
1733470122.077130, 28.528260, -34.044949, 1.405546, -1.125765, -0.018499, 1.016376, -33.583771, -80.418869, -649.761536
1733470122.087132, 25.781961, -32.244659, 0.313790, -1.333471, 0.251148, 1.529262, -33.690613, -80.182709, -649.786438
1733470122.097121, 22.079328, -29.449578, -0.305560, -1.417083, 0.454646, 1.956914, -33.474640, -79.844330, -650.147339
1733470122.107122, 17.475428, -25.604640, -1.218649, -1.394768, 0.675153, 2.310400, -33.704071, -79.326172, -650.152771
1733470122.117126, 12.695554, -21.857266, -1.642422, -1.392631, 0.970196, 2.500767, -33.931061, -79.189377, -650.834656
1733470122.127115, 8.621221, -18.669386, -2.140566, -1.388327, 1.327832, 2.491985, -34.072128, -78.951385, -651.083740
1733470122.137116, 5.615301, -15.879692, -2.869600, -1.299370, 1.674612, 2.320428, -34.219879, -78.688278, -651.436584
1733470122.147154, 3.410840, -13.025804, -2.899528, -1.151650, 1.868867, 2.089581, -33.869278, -78.546036, -651.833923
1733470122.157116, 1.802684, -10.035895, -2.096124, -0.981932, 1.891301, 1.904233, -33.794083, -78.652771, -651.243042
1733470122.167114, 0.418087, -7.334038, -1.161038, -0.831313, 1.772177, 1.690369, -33.801102, -78.181488, -651.784058
1733470122.177116, -1.183633, -5.038148, 0.126144, -0.723192, 1.540726, 1.424750, -33.643234, -78.418488, -651.790833
1733470122.187131, -2.780865, -3.282750, 1.950377, -0.697397, 1.174638, 1.053522, -33.695618, -78.196838, -652.154541
1733470122.197131, -3.865887, -1.702277, 3.390040, -0.761066, 0.640718, 0.565539, -33.636276, -78.389374, -652.174011
1733470122.207131, -4.462493, 0.005986, 4.328717, -0.860496, -0.048708, 0.043935, -33.685394, -78.101227, -653.011902
1733470122.217116, -4.885817, 1.828721, 4.769549, -0.931501, -0.880492, -0.416362, -33.412506, -77.776108, -652.742920
1733470122.227113, -4.866963, 3.593098, 4.423288, -0.923600, -1.742653, -0.732270, -33.711029, -77.564545, -653.231934
1733470122.237111, -4.276044, 5.163246, 3.144634, -0.779552, -2.434119, -0.799771, -33.767807, -77.363953, -653.705078
1733470122.246947, -3.194613, 6.628347, 1.638831, -0.475413, -2.945430, -0.486496, -34.109238, -77.161560, -653.355225
1733470122.256528, -2.101810, 8.773552, 0.481085, -0.049617, -3.220354, 0.277056, -34.971237, -77.203735, -652.671387
1733470122.267114, -1.433828, 10.770167, -0.678756, 0.372661, -3.247933, 1.349746, -36.436569, -77.314590, -653.050903
1733470122.277126, -1.907879, 11.821520, -1.155801, 0.631733, -3.063024, 2.491437, -39.008713, -77.262146, -652.617859
1733470122.287121, -4.152144, 11.355399, -0.941221, 0.546068, -2.725396, 3.289731, -41.517044, -77.327774, -652.220032
1733470122.297119, -8.085369, 8.976161, -0.088137, -0.135170, -2.575369, 3.444141, -44.322830, -76.872696, -652.499390
1733470122.307117, -12.729821, 5.670068, 0.872088, -1.183780, -2.358910, 2.968930, -46.259583, -76.265747, -653.200195
1733470122.317123, -16.158317, 2.921225, -2.173337, -1.843700, -1.256142, 2.067746, -47.289352, -75.141113, -653.729980
1733470122.327112, -18.414852, 0.967856, -6.578518, -2.115844, 0.209410, 0.932343, -47.216141, -74.187363, -654.596985
1733470122.337111, -18.761263, 0.650475, -8.882039, -2.081403, 1.374999, -0.158746, -46.529312, -73.437714, -655.803833
1733470122.347109, -16.797868, 1.409287, -10.355072, -1.691538, 2.229589, -1.011665, -44.981171, -72.863556, -656.105164
1733470122.357108, -14.015806, 1.897255, -11.308413, -0.914263, 2.851969, -1.542821, -43.023239, -72.694641, -655.469788
1733470122.367117, -11.296442, 2.714426, -11.266814, 0.066829, 3.185077, -1.723872, -41.471542, -73.087631, -656.666931
1733470122.377112, -8.871265, 3.895665, -9.710732, 1.044015, 3.087837, -1.720761, -40.081024, -73.406754, -656.158508
1733470122.387110, -7.568221, 3.756353, -6.625205, 1.812776, 2.576910, -1.757497, -38.844040, -74.348312, -656.088623
1733470122.397107, -6.705411, 2.508226, -3.520374, 2.242921, 1.775281, -1.910328, -37.752762, -75.008011, -655.604004
1733470122.407108, -5.496339, 0.447865, -1.243788, 2.314370, 0.781863, -2.143926, -36.969421, -75.969284, -654.785278
1733470122.417107, -3.959411, -1.995417, 0.664990, 2.122818, -0.236658, -2.329437, -35.811340, -76.651917, -653.684998
1733470122.427109, -1.827225, -3.654450, 1.915361, 1.794904, -1.129794, -2.335690, -35.704926, -76.907608, -653.261597
1733470122.437113, -0.114622, -5.153818, 1.499967, 1.351802, -1.624937, -2.215430, -36.044052, -77.040848, -652.945679
1733470122.447105, 1.353622, -6.910863, -0.403273, 0.930642, -1.718616, -2.055878, -36.378265, -77.276657, -652.884033
1733470122.457108, 2.045546, -9.728090, -3.359065, 0.789098, -1.345997, -2.050600, -36.216888, -77.789001, -652.489624
1733470122.467121, 2.840122, -13.778481, -7.074267, 1.020919, -0.370049, -2.208849, -36.102402, -78.123520, -652.482300
1733470122.477109, 5.254824, -18.583793, -8.326136, 1.282128, 0.880821, -2.455963, -35.578537, -78.566895, -652.560120
1733470122.487101, 8.793753, -22.687904, -5.883451, 1.396895, 1.841359, -2.793913, -34.550735, -78.951309, -652.076721
1733470122.496131, 12.485013, -24.937107, -0.968155, 1.309322, 2.254142, -3.092097, -34.550735, -78.951309, -652.076721
1733470122.507123, 17.505654, -24.769513, 4.759374, 1.022910, 1.803241, -3.166009, -32.609024, -79.408249, -651.597656
1733470122.517114, 23.538743, -26.467151, 8.284536, 0.934587, 0.883049, -3.134506, -31.780853, -79.641846, -651.503296
1733470122.527113, 29.130102, -27.925070, 9.538350, 1.005776, -0.121909, -2.931701, -30.949463, -79.454102, -650.906128
1733470122.537115, 32.953792, -26.130018, 12.399271, 0.756537, -1.226713, -2.540148, -30.949463, -79.454102, -650.906128
1733470122.547100, 35.089719, -23.097761, 15.204677, 0.040137, -2.253929, -1.989721, -30.977997, -78.894196, -651.352051
1733470122.557112, 35.416976, -22.417658, 14.860660, -0.864209, -2.995955, -1.575031, -31.086472, -78.302277, -651.693237
1733470122.567104, 32.815227, -22.101624, 11.133038, -1.524665, -3.424557, -1.372657, -31.086472, -78.302277, -651.693237
1733470122.576978, 28.144140, -19.478626, 6.459406, -1.875126, -3.577111, -1.221344, -30.522964, -77.517380, -652.618591
1733470122.587112, 23.709031, -16.100707, 1.929577, -1.964430, -3.437536, -0.971170, -30.585632, -76.379654, -653.111145
1733470122.597108, 19.761292, -12.319963, -1.686865, -1.873014, -2.951002, -0.522243, -30.250519, -75.347717, -654.048340
1733470122.607104, 16.447567, -9.039308, -4.636072, -1.737721, -1.919969, 0.088133, -30.074692, -74.683899, -654.668213
1733470122.617096, 13.570634, -6.545298, -5.746084, -1.607285, -0.695541, 0.680862, -30.423325, -74.111267, -654.921265
1733470122.627157, 11.256040, -3.894768, -5.238513, -1.448678, 0.352779, 1.404083, -30.212769, -73.747375, -655.053406
1733470122.637099, 9.626037, -0.761655, -4.620660, -1.258939, 1.174593, 2.318601, -29.558731, -73.382477, -655.367981
1733470122.647099, 6.719626, 2.419790, -2.314445, -1.249670, 1.731596, 3.394944, -29.123154, -72.932236, -655.541687
1733470122.657159, 2.328960, 5.150826, 1.414824, -1.790739, 1.769088, 4.401464, -28.985992, -72.540909, -655.671021
1733470122.667096, -4.260332, 6.957700, 6.765864, -2.920105, 0.465723, 5.037911, -29.770172, -71.878891, -655.513611
1733470122.676927, -13.730148, 7.991696, 9.841516, -4.026189, -1.750185, 5.027615, -31.324875, -70.434479, -657.288269
1733470122.687095, -23.613263, 7.132177, 3.658490, -4.478931, -3.348913, 4.474829, -33.361511, -68.653564, -658.759766
1733470122.697149, -31.643116, 5.047725, -8.387786, -4.111745, -3.270427, 3.453313, -35.702515, -66.494904, -659.510986
1733470122.707106, -36.434512, 2.317737, -20.944177, -3.023526, -1.093233, 2.093005, -37.222473, -64.758804, -660.532410
1733470122.717112, -36.950762, -1.029956, -29.037925, -1.477609, 1.776792, 0.662160, -37.193130, -64.065353, -661.585205
1733470122.727101, -33.974919, -2.443283, -29.091196, 0.184595, 3.453569, -0.588021, -36.300873, -64.170151, -661.446777
1733470122.737105, -29.557617, -1.195604, -23.644238, 1.754823, 3.651556, -1.662080, -35.149277, -64.767151, -661.481079
1733470122.747102, -25.055470, 0.430807, -18.184710, 3.228780, 3.132248, -2.648006, -33.783249, -66.322311, -661.459412
1733470122.757107, -19.938313, 1.799542, -13.583204, 4.504556, 2.293322, -3.445006, -31.940735, -68.156982, -659.912476
1733470122.767098, -14.507515, 3.229030, -9.110536, 5.383827, 1.381788, -3.876657, -30.097260, -70.435455, -657.867126
1733470122.777102, -9.487473, 4.104709, -5.769727, 5.716404, 0.804190, -3.935068, -28.483139, -72.245224, -656.248230
1733470122.787105, -5.476287, 3.808726, -3.487903, 5.543121, 0.618649, -3.710639, -27.022064, -74.089325, -654.428833
1733470122.797098, -2.543241, 2.739416, -1.298555, 5.001656, 0.638373, -3.324848, -25.662918, -75.601273, -652.131714
1733470122.807099, -0.697760, 1.696741, 0.710779, 4.270009, 0.673442, -2.894497, -24.604324, -76.819885, -650.573608
1733470122.817172, -0.516998, 0.771980, 2.036717, 3.574044, 0.717139, -2.636612, -23.685562, -78.054459, -649.608032
1733470122.827092, -1.021277, -0.538097, 2.259677, 3.011049, 0.862526, -2.610505, -22.925995, -78.733170, -648.670959
1733470122.837094, -1.009306, -1.812261, 2.366070, 2.520168, 0.952357, -2.761810, -21.996277, -79.173294, -647.151489
1733470122.847166, 0.143054, -3.067571, 3.621380, 2.089660, 0.670330, -3.007259, -21.274078, -79.290314, -646.516235
1733470122.857094, 2.241721, -4.172046, 5.331289, 1.723651, 0.082517, -3.226799, -20.521881, -79.380371, -645.791870
1733470122.867101, 4.780173, -5.131223, 6.190508, 1.383496, -0.453365, -3.562197, -20.371506, -79.057373, -645.684082
1733470122.877108, 7.302465, -6.764966, 5.285948, 1.187283, -0.664825, -4.200063, -19.704956, -78.669769, -645.789795
1733470122.886784, 11.260978, -7.689876, 4.091691, 1.245138, -0.658781, -4.768675, -19.246704, -78.101974, -645.724854
1733470122.897091, 17.329830, -7.498939, 3.394230, 1.379495, -0.461580, -5.360758, -18.422943, -77.192551, -645.091003
1733470122.907100, 26.631753, -5.961263, 3.204639, 1.592166, -0.168788, -5.240978, -16.205734, -76.242706, -644.587585
1733470122.917110, 39.413647, -1.764227, 5.073463, 1.657589, -0.418295, -3.821774, -15.325775, -75.575623, -643.677490
1733470122.927086, 49.150865, 1.483058, 8.445995, 1.441293, -1.201809, -1.861861, -15.577576, -75.446426, -643.615051
1733470122.937087, 52.383486, 1.611447, 9.752631, 1.023830, -1.689517, 0.010988, -15.819504, -75.649078, -643.764648
1733470122.947094, 50.653825, -0.476147, 8.097190, 0.474573, -1.433659, 1.609239, -16.369461, -76.038925, -644.060791
1733470122.957088, 45.712043, -1.677438, 6.070349, -0.303541, -0.560481, 2.915136, -17.182465, -76.611267, -644.396240
1733470122.967086, 39.636457, -2.179023, 5.313332, -1.227798, 0.419574, 3.782061, -18.737732, -77.365799, -645.035828
1733470122.977099, 33.834858, -4.377947, 4.365527, -1.915752, 1.227361, 4.006732, -20.027298, -77.891678, -645.699158
1733470122.987086, 30.958673, -6.946028, 2.759317, -1.956098, 1.351709, 3.978719, -20.905716, -78.438080, -646.203247
1733470122.997087, 30.708030, -8.048558, 1.752855, -1.243914, 0.610865, 4.156282, -21.782028, -79.087555, -646.339294
1733470123.007091, 29.917794, -8.726416, 1.049857, -0.059612, -0.489505, 4.560061, -22.524048, -79.983826, -646.578552
1733470123.017096, 27.217135, -8.195951, 0.890344, 1.064051, -1.302464, 5.190362, -23.407928, -80.858353, -645.283081
1733470123.027112, 22.490831, -5.985205, 1.811812, 1.652135, -1.484528, 6.068083, -24.856232, -82.135452, -644.847229
1733470123.037096, 14.213477, -4.174291, 4.666149, 1.535471, -1.215454, 6.833745, -27.060333, -83.271713, -644.265198
1733470123.047092, 3.114557, -4.845715, 7.955184, 0.732896, -0.781998, 6.983619, -30.034332, -84.084869, -643.980347
1733470123.057085, -8.971672, -7.208043, 11.506683, -0.669871, -0.691315, 6.153461, -32.617798, -84.148193, -644.295288
1733470123.067094, -19.644125, -9.326463, 13.277494, -2.078396, -0.996120, 4.544811, -34.391586, -83.922516, -645.432129
1733470123.076348, -26.277261, -9.245958, 10.345046, -2.873234, -1.454324, 2.813505, -34.498611, -83.059616, -646.110962
1733470123.087094, -27.587039, -6.990470, 4.650288, -3.017549, -1.848317, 1.719121, -34.790375, -82.018936, -646.913574
1733470123.097086, -26.971430, -4.482544, -1.503559, -2.773480, -1.771764, 1.172586, -35.375015, -81.175125, -647.997437
1733470123.107082, -26.916812, -4.161571, -7.158663, -2.396945, -1.074690, 0.784057, -36.085480, -80.376678, -648.884888
1733470123.117093, -27.347170, -5.770176, -11.168352, -2.071865, 0.202687, 0.254570, -36.573563, -79.634293, -649.851318
1733470123.127099, -27.086202, -6.856096, -12.418125, -1.943540, 1.687019, -0.486465, -36.036499, -79.237671, -650.948730
1733470123.137085, -25.838075, -6.246771, -11.306617, -1.872345, 2.813226, -1.340307, -35.122406, -78.723923, -651.493835
1733470123.147090, -23.403770, -4.969166, -10.124630, -1.594096, 3.471622, -2.248283, -33.200455, -78.521240, -652.388672
1733470123.157090, -19.847184, -2.975993, -9.327810, -0.992472, 3.622490, -3.026395, -30.701187, -78.350540, -651.879028
1733470123.167089, -16.048483, -0.499490, -8.120533, -0.143282, 3.321507, -3.540713, -28.443771, -78.170547, -652.289551
1733470123.177083, -12.373683, 1.337461, -6.613084, 0.782172, 2.666923, -3.808816, -26.485367, -78.134567, -651.835815
1733470123.187080, -9.120262, 2.491316, -4.654627, 1.618379, 1.805109, -3.894049, -24.551849, -78.303787, -651.076660
1733470123.197098, -6.754043, 2.979135, -2.882320, 2.244696, 0.978635, -3.905669, -22.756882, -78.648666, -650.225769
1733470123.207088, -5.264550, 2.850297, -1.410185, 2.611550, 0.286106, -3.923647, -21.414963, -78.799896, -649.245117
1733470123.217080, -4.058770, 2.677017, -0.108936, 2.736366, -0.306195, -3.921050, -20.076813, -79.025589, -648.188538
1733470123.227079, -2.729390, 2.763058, 0.960973, 2.681537, -0.808368, -3.840169, -19.013046, -79.119980, -647.408264
1733470123.237079, -1.420061, 2.597559, 1.476624, 2.481903, -1.152000, -3.768144, -18.522964, -79.157166, -646.945435
1733470123.247079, -0.183156, 1.829918, 1.484555, 2.177781, -1.256628, -3.788038, -18.104782, -79.000610, -646.486450
1733470123.257079, 1.373673, 0.865654, 1.041927, 1.816598, -1.129148, -3.929469, -17.175308, -78.788071, -645.414062
1733470123.267081, 3.786280, 0.439935, 0.961122, 1.436300, -0.915822, -4.027127, -16.004150, -77.992706, -645.414490
1733470123.277090, 6.959944, 1.147122, 1.742979, 1.049637, -0.867531, -3.910857, -15.223984, -77.612442, -645.544189
1733470123.287083, 9.864859, 2.212542, 2.319832, 0.677573, -0.986845, -3.684545, -15.318375, -76.842270, -645.814758
1733470123.297080, 12.281506, 2.456152, 1.937807, 0.402368, -1.100650, -3.554849, -15.110657, -76.098297, -646.144409
1733470123.307086, 15.073744, 2.011578, 0.765396, 0.301984, -1.011467, -3.626350, -15.004395, -75.319504, -646.365356
1733470123.317079, 19.558383, 1.875707, -0.111330, 0.291933, -0.775064, -3.637482, -13.894196, -74.242142, -646.202454
1733470123.327076, 25.622297, 3.556437, 0.622941, 0.221267, -0.879384, -3.145044, -12.880859, -73.392502, -646.646606
1733470123.337076, 31.488091, 6.409876, 2.092832, 0.066607, -1.508125, -1.984924, -13.198471, -72.861099, -646.758728
1733470123.347074, 35.147629, 7.660697, 1.346290, -0.030536, -2.047598, -0.461690, -14.274902, -72.887115, -647.548096
1733470123.357094, 36.026899, 6.204723, -2.250998, -0.048925, -1.814545, 0.941484, -15.744431, -73.228729, -647.577271
1733470123.367089, 35.596841, 3.578284, -5.675006, -0.078013, -1.006171, 2.066717, -16.985504, -73.721527, -648.226807
1733470123.377087, 35.187582, 1.736095, -7.166594, -0.093205, -0.139233, 3.010525, -17.912262, -74.750763, -648.699951
1733470123.387077, 34.735826, 1.368137, -6.478111, -0.066938, 0.366794, 3.903693, -18.832993, -75.499496, -648.134521
1733470123.396777, 33.885884, 0.901267, -3.725228, -0.083246, 0.191617, 4.883646, -19.645004, -76.482513, -647.800903
1733470123.407075, 30.296377, 1.332972, -0.657957, -0.311794, -0.262348, 5.917659, -21.279434, -77.525726, -648.452332
1733470123.417128, 22.692992, 2.243517, 0.758812, -0.855484, -0.304606, 6.649556, -23.374817, -78.124405, -648.767822
1733470123.427082, 14.538790, 0.385915, 0.305859, -1.653435, 0.229454, 6.989242, -25.084946, -78.324570, -649.164429
1733470123.437074, 8.803779, -3.543718, -1.435922, -2.558276, 1.045961, 7.075906, -26.895096, -78.177383, -650.195496
1733470123.447074, 3.567660, -6.377405, -3.860800, -3.264688, 2.039609, 6.913626, -28.848480, -77.720383, -652.149597
1733470123.457119, -1.743278, -9.605836, -7.373991, -3.534837, 3.066660, 6.387093, -29.908615, -77.213882, -652.171936
1733470123.467071, -6.662165, -16.717663, -9.469217, -3.352666, 3.659500, 5.336066, -30.690186, -76.611282, -654.430298
1733470123.477084, -10.225037, -22.662765, -9.938780, -2.675953, 3.693796, 3.983037, -30.632187, -76.274933, -654.520508
1733470123.486143, -11.858032, -25.455601, -8.028955, -1.601970, 2.665453, 2.567433, -30.345352, -76.194519, -654.703369
1733470123.496093, -12.057648, -26.335021, -4.475212, -0.272837, 0.675887, 1.295823, -30.390656, -76.226898, -654.209106
1733470123.507086, -12.343307, -25.882667, -3.415927, 0.925569, -0.990378, 0.212058, -29.866989, -76.504898, -653.485535
1733470123.517071, -13.084312, -24.109162, -3.658639, 1.590816, -1.697750, -0.662234, -29.643036, -76.793671, -652.821045
1733470123.527082, -13.420099, -21.075559, -2.656217, 1.673733, -1.638412, -1.284835, -28.988480, -77.182327, -651.762634
1733470123.537078, -12.217162, -17.475128, -1.048810, 1.267489, -1.145235, -1.566940, -28.615677, -77.562317, -651.124023
1733470123.547069, -10.234015, -13.788656, 0.690578, 0.544255, -0.554515, -1.502220, -28.113510, -77.521393, -650.818604
1733470123.557070, -8.790162, -10.503961, 1.595885, -0.299187, -0.028079, -1.261291, -27.445007, -77.333939, -651.222900
1733470123.567073, -8.748114, -8.313865, 1.116745, -1.016788, 0.418428, -1.090915, -27.252304, -76.861130, -652.062500
1733470123.577071, -9.267655, -6.920440, -0.593163, -1.439284, 0.748138, -1.074343, -26.624863, -76.311646, -652.701660
1733470123.587122, -9.790340, -5.751471, -2.319084, -1.549365, 0.898828, -1.234493, -26.255325, -75.866531, -653.348633
1733470123.597073, -10.450990, -4.910508, -3.582624, -1.408631, 0.932887, -1.623494, -25.553070, -75.128769, -653.281738
1733470123.607065, -10.499771, -4.242226, -4.549282, -1.084917, 0.894194, -2.130736, -24.268845, -74.791138, -654.100281
1733470123.617072, -9.689933, -2.971504, -5.007922, -0.649856, 0.775458, -2.613036, -23.018066, -74.214218, -654.031250
1733470123.627116, -8.423400, -1.638831, -5.129128, -0.174914, 0.676925, -3.053324, -21.598236, -73.834000, -653.795288
1733470123.637067, -6.956203, -0.452953, -4.912453, 0.294627, 0.561525, -3.415572, -20.541489, -73.379318, -653.305115
1733470123.647078, -5.261408, 0.913089, -4.355053, 0.719960, 0.411936, -3.659895, -19.242752, -73.312653, -652.932495
1733470123.657064, -3.365799, 2.094328, -3.678541, 1.087821, 0.200859, -3.784058, -17.817139, -72.993576, -651.794922
1733470123.667130, -1.414075, 2.955792, -3.053804, 1.403506, -0.041602, -3.803819, -16.563934, -72.740891, -652.037354
1733470123.677067, 0.590470, 3.595492, -2.397943, 1.662601, -0.412816, -3.668958, -15.868881, -72.598404, -651.957886
1733470123.687064, 2.516605, 4.081515, -1.662474, 1.838005, -0.807886, -3.387954, -15.531006, -72.512405, -651.341614
1733470123.697062, 3.985149, 4.201375, -1.406743, 1.877986, -1.012737, -3.025410, -15.230621, -72.462997, -650.844177
1733470123.707140, 5.311536, 3.889081, -1.356166, 1.769757, -1.037243, -2.669839, -15.043823, -72.280670, -650.783875
1733470123.717063, 6.529886, 3.580379, -1.096095, 1.579538, -1.043134, -2.270314, -15.093704, -72.241592, -650.383911
1733470123.727063, 7.772776, 3.530699, -1.260547, 1.393784, -0.920284, -1.812917, -15.658188, -72.390503, -650.448181
1733470123.736606, 8.794950, 3.170821, -1.911471, 1.233358, -0.607097, -1.484142, -15.653854, -72.665100, -650.125366
1733470123.747105, 10.264840, 2.112584, -2.641104, 1.120237, -0.101290, -1.328019, -15.715088, -72.689545, -649.896973
1733470123.757062, 13.652336, 1.264587, -2.742408, 1.017869, 0.361516, -1.038136, -15.805328, -72.820190, -649.126526
1733470123.766832, 17.848923, 0.827197, -1.425448, 0.843636, 0.395494, -0.547597, -16.274414, -73.025269, -649.698486
1733470123.777064, 21.442919, -0.615160, 0.090082, 0.606148, 0.063896, 0.009001, -16.841888, -73.167923, -649.540894
1733470123.787033, 24.129513, -3.356820, 0.487220, 0.366666, -0.428279, 0.617260, -18.023331, -73.526230, -649.969238
1733470123.797068, 25.228750, -5.916072, -0.434697, 0.184986, -0.785392, 1.230383, -18.977295, -73.858612, -650.365234
1733470123.807060, 25.120562, -8.250718, -2.372504, 0.049149, -0.678881, 1.591729, -19.540283, -74.271332, -650.701172
1733470123.817061, 26.516681, -11.907113, -4.300734, -0.145983, -0.310671, 1.957453, -20.718567, -74.666992, -650.336060
1733470123.827065, 28.021437, -14.062792, -4.861576, -0.397124, -0.079163, 2.455940, -21.137497, -75.087799, -650.997192
1733470123.837074, 26.547806, -14.413543, -5.189881, -0.573907, 0.426933, 2.738716, -21.864136, -75.544006, -651.271118
1733470123.847061, 24.246529, -14.590564, -4.649839, -0.740693, 0.852044, 2.896063, -22.087570, -75.659927, -651.039612
1733470123.857061, 21.762844, -13.555072, -1.557877, -1.012815, 0.751008, 2.977823, -22.126450, -75.772659, -650.509705
1733470123.866370, 18.570625, -11.571177, 1.497124, -1.341375, 0.280228, 3.051045, -22.589066, -75.554703, -651.673889
1733470123.877060, 14.008474, -9.059360, 3.426103, -1.741282, -0.269927, 3.085941, -22.828308, -75.134689, -651.685669
1733470123.887058, 8.530092, -5.878513, 4.899285, -2.327488, -0.818180, 3.056326, -23.729187, -74.076111, -652.850342
1733470123.897060, 3.548506, -2.504185, 5.108329, -3.024307, -1.276671, 3.054142, -25.091171, -73.383484, -653.915771
1733470123.907062, -0.053570, 0.096217, 1.482759, -3.443605, -1.309095, 3.177612, -26.598862, -72.458618, -655.228027
1733470123.917056, -1.449988, 0.577601, -5.128081, -3.272740, -0.861339, 3.393142, -28.315048, -72.101334, -656.773682
1733470123.927074, -1.466598, -3.346795, -11.833192, -2.489836, -0.170016, 3.491808, -29.547150, -71.947174, -656.813538
1733470123.937056, -1.081431, -8.896704, -16.460436, -1.187414, 0.541974, 3.368561, -30.293839, -72.695129, -657.360413
1733470123.947057, -2.093430, -11.082759, -17.053450, 0.288412, 1.159800, 2.993055, -30.289932, -73.508148, -656.499695
1733470123.957055, -3.444059, -12.019192, -13.965678, 1.578632, 1.576433, 2.379241, -30.076279, -74.879990, -654.747375
1733470123.967056, -4.328118, -12.304999, -8.399757, 2.480089, 1.595659, 1.693665, -29.843460, -76.115021, -653.816589
1733470123.977054, -4.915745, -9.909301, -1.653196, 2.958023, 1.223339, 1.119780, -30.099045, -77.257721, -652.647217
1733470123.987052, -4.510975, -7.016208, 4.330961, 3.021015, 0.533027, 0.687501, -30.048203, -78.195938, -651.852661
1733470123.996760, -3.702334, -5.997026, 8.362946, 2.717161, -0.321848, 0.297118, -30.048203, -78.195938, -651.852661
1733470124.007068, -3.206584, -5.997326, 9.955839, 2.134202, -1.158264, -0.110719, -30.972382, -79.327362, -650.819458
1733470124.017057, -3.291728, -5.823746, 9.258677, 1.476660, -1.681965, -0.484365, -30.972382, -79.327362, -650.819458
1733470124.027060, -3.476530, -5.734263, 6.606650, 0.983292, -1.712424, -0.863402, -30.788467, -79.572098, -649.952271
1733470124.037070, -3.000833, -5.502175, 3.931279, 0.670710, -1.485093, -1.125486, -30.639404, -79.590836, -650.218506
1733470124.047060, -1.687164, -4.389320, 2.226308, 0.425107, -1.145198, -1.133497, -30.056976, -79.599869, -649.836731
1733470124.056722, -0.236876, -3.301155, 1.176002, 0.189011, -0.756874, -0.933274, -30.044724, -79.346054, -650.017700
1733470124.067059, 1.966986, -2.457498, 0.008529, -0.325903, -0.084335, -0.008944, -29.829178, -79.367630, -649.218018
1733470124.077061, 2.645742, -3.242647, -0.429011, -0.531741, 0.027197, 0.445750, -30.241470, -79.320816, -650.163879
1733470124.087063, 2.916138, -5.116110, -0.864008, -0.699343, -0.086893, 0.721557, -30.685410, -79.074326, -650.840088
1733470124.097119, 2.038064, -6.048950, -1.657386, -0.714088, -0.279769, 0.858015, -31.284485, -78.750092, -650.725464
1733470124.106673, 2.038064, -6.048950, -1.657386, -0.714088, -0.279769, 0.858015, -32.035248, -78.603622, -651.289612
1733470124.116547, 1.116895, -6.414515, -3.300257, -0.546684, -0.231151, 0.857307, -32.410965, -78.509186, -651.874390
1733470124.127054, 1.874660, -10.090961, -6.106112, 0.051045, 0.504646, 0.675412, -33.159164, -78.495560, -652.051636
1733470124.137052, 3.204489, -12.409147, -5.883302, 0.244845, 0.677578, 0.571784, -33.505081, -78.464081, -651.880920
1733470124.147061, 4.123863, -14.028974, -4.901080, 0.328697, 0.597491, 0.481249, -33.351135, -78.619171, -651.745117
1733470124.157063, 4.486285, -14.660744, -4.762516, 0.405614, 0.560737, 0.384491, -33.551254, -78.798264, -651.689819
1733470124.167050, 4.685453, -15.003564, -5.241057, 0.576329, 0.582230, 0.281518, -33.538513, -78.893921, -651.112793
1733470124.176198, 4.685453, -15.003564, -5.241057, 0.576329, 0.582230, 0.281518, -33.406876, -79.165665, -651.213318
1733470124.187064, 5.474342, -17.447894, -4.584896, 1.060902, 0.379000, 0.174562, -33.304092, -79.403778, -650.919922
1733470124.197059, 4.919935, -17.385346, -2.958784, 1.128089, 0.161739, 0.045550, -33.372360, -79.818222, -650.872742
1733470124.207048, 4.681263, -16.757167, -1.370381, 1.032624, -0.016196, -0.080937, -33.130371, -80.134186, -650.011108
1733470124.217047, 5.037251, -15.953314, -0.252439, 0.748610, -0.079968, -0.115899, -33.086334, -80.478821, -649.739685
1733470124.227046, 5.302259, -14.617798, 0.508469, 0.296179, -0.048998, -0.082195, -33.035950, -80.579727, -649.394897
1733470124.237048, 5.014206, -13.122769, 0.657657, -0.215438, 0.112200, -0.079525, -33.105927, -80.521240, -649.601013
1733470124.247044, 4.321534, -11.767651, -0.139462, -0.641704, 0.414674, -0.162570, -32.808868, -80.493881, -649.245544
1733470124.257062, 3.861099, -10.398766, -1.296011, -0.913022, 0.760708, -0.311681, -32.589554, -80.285904, -649.183899
1733470124.267058, 4.004602, -8.833706, -2.039561, -1.039435, 1.036566, -0.465564, -32.240326, -80.040878, -648.755371
1733470124.277050, 4.201076, -6.796241, -2.156876, -1.041809, 1.150375, -0.552845, -31.044022, -79.703751, -649.975342
1733470124.287046, 4.450522, -4.203021, -1.762132, -0.959325, 1.079634, -0.523349, -30.650711, -79.228989, -650.140686
1733470124.297049, 4.708646, -1.825130, -1.336862, -0.803838, 0.865508, -0.320251, -29.598297, -79.026337, -650.476318
1733470124.307064, 4.833145, 0.375291, -0.715268, -0.627732, 0.524561, 0.049539, -29.086807, -78.571869, -650.231445
1733470124.317046, 4.408324, 2.049886, 0.382623, -0.562590, 0.073099, 0.458300, -28.944397, -78.565155, -650.496460
1733470124.327043, 3.850475, 2.998588, 1.514632, -0.666024, -0.484262, 0.903881, -29.072067, -78.125015, -650.437256
1733470124.337041, 3.562273, 3.030461, 2.017863, -0.903341, -1.033710, 1.448950, -29.608948, -77.796539, -651.214966
1733470124.347040, 3.787178, 1.015441, 1.286734, -1.244308, -1.426808, 1.990182, -30.805237, -77.599792, -651.263855
1733470124.357041, 3.646519, -2.927061, -0.768688, -1.571712, -1.583745, 2.298816, -32.767273, -77.139221, -652.394653
1733470124.367057, 1.751957, -6.549937, -4.752939, -1.647920, -1.044396, 2.192418, -34.752472, -76.854721, -653.110413
1733470124.377041, -0.076914, -8.737789, -9.765799, -1.371732, 0.269341, 1.675193, -35.930832, -76.294662, -654.403687
1733470124.387066, 0.704344, -11.735030, -12.645275, -0.729562, 1.490944, 0.970708, -36.747055, -75.989960, -655.118896
1733470124.397038, 3.004424, -13.751845, -11.833042, 0.126564, 1.887673, 0.452775, -36.087616, -75.815720, -655.192993
1733470124.407042, 4.141221, -11.491270, -9.110835, 1.074422, 1.834632, 0.220623, -34.757828, -76.221451, -654.504028
1733470124.417040, 3.848679, -8.223783, -5.942558, 2.001695, 1.759177, 0.174850, -33.958527, -76.803421, -653.690063
1733470124.427038, 3.857657, -6.907571, -2.007239, 2.632428, 1.621879, 0.286192, -33.310196, -77.766647, -652.710571
1733470124.437047, 4.489278, -7.217022, 2.739565, 2.704654, 1.091649, 0.455679, -33.223938, -78.705307, -651.815369
1733470124.447056, 5.158756, -9.089287, 7.372196, 2.148888, 0.060624, 0.576557, -33.221710, -79.485779, -650.874878
1733470124.457036, 5.511602, -11.473763, 9.440636, 1.296840, -1.041662, 0.573475, -34.069077, -79.979324, -650.212097
1733470124.467042, 4.867711, -13.500155, 7.548020, 0.643782, -1.842360, 0.471380, -34.452255, -80.208115, -649.993896
1733470124.477038, 2.773982, -13.383887, 3.156007, 0.370364, -2.107316, 0.301790, -35.058594, -80.261841, -650.149536
1733470124.487047, 1.275661, -12.303204, -0.379631, 0.285703, -1.960051, 0.146617, -35.667236, -80.151703, -649.917297
1733470124.496054, 1.616834, -11.736975, -3.024475, 0.242942, -1.374699, 0.151056, -35.951172, -80.284760, -649.650024
1733470124.507037, 2.831143, -10.947786, -4.479402, 0.189253, -0.534638, 0.322832, -36.022095, -80.267288, -649.321777
1733470124.517038, 4.407576, -10.112210, -4.226963, 0.089203, 0.176051, 0.714266, -36.513687, -80.350525, -649.441895
1733470124.527041, 5.808034, -10.349984, -2.785953, -0.123408, 0.402253, 1.180587, -36.854721, -80.397980, -649.804626
1733470124.537098, 5.554249, -11.504139, -2.182614, -0.310576, 0.397671, 1.521373, -37.277130, -80.098770, -649.649719
1733470124.547032, 3.714604, -11.581951, -3.133711, -0.315564, 0.496911, 1.683316, -37.868378, -80.089447, -649.612488
1733470124.557031, 1.286434, -11.725303, -4.016872, -0.248031, 0.740273, 1.606392, -38.387085, -80.065720, -649.465027
1733470124.567034, -0.481235, -12.567913, -4.053683, -0.191111, 0.894654, 1.308005, -38.936295, -79.964600, -649.798828
1733470124.577096, -1.453131, -13.226318, -3.725527, -0.103335, 0.893340, 0.858370, -39.200272, -80.064133, -649.876099
1733470124.587032, -1.512088, -13.594127, -3.473837, 0.045519, 0.707607, 0.384894, -39.174210, -79.868149, -649.790710
1733470124.597035, -0.611868, -14.090924, -3.074305, 0.204503, 0.307066, -0.025476, -39.017090, -80.152252, -649.856934
1733470124.607034, 0.172682, -14.386459, -2.923919, 0.373758, -0.165599, -0.349000, -39.014771, -80.259384, -649.552673
1733470124.617085, 0.595258, -13.960889, -3.336320, 0.618721, -0.542209, -0.581696, -38.710648, -80.363525, -649.580078
1733470124.627031, 0.995090, -13.429077, -3.801843, 0.930111, -0.782846, -0.700839, -38.576019, -80.721313, -648.701599
1733470124.637053, 1.538873, -13.059622, -3.561375, 1.208328, -0.890746, -0.731542, -38.795120, -81.081665, -648.781372
1733470124.647027, 2.117222, -12.986748, -2.713678, 1.347353, -0.908056, -0.731256, -38.632339, -81.532562, -647.845764
1733470124.657076, 2.651429, -13.097929, -1.647061, 1.299116, -0.854418, -0.706097, -38.539307, -82.163254, -647.179565
1733470124.667033, 2.914941, -12.903400, -0.513257, 1.064772, -0.749616, -0.699383, -38.475388, -82.303284, -647.172363
1733470124.677034, 2.865560, -12.475886, 0.156820, 0.736927, -0.580025, -0.776689, -38.809006, -82.652237, -647.032715
1733470124.687028, 3.020884, -11.990312, -0.052523, 0.479460, -0.299004, -0.870638, -38.231247, -82.832184, -646.183228
1733470124.697091, 3.396774, -11.055525, -0.501585, 0.303381, 0.040407, -0.869630, -37.528458, -83.095627, -646.405029
1733470124.707027, 3.086724, -10.367641, -0.007183, 0.074055, 0.430618, -0.894509, -37.225479, -83.138535, -646.307373
1733470124.717028, 2.697517, -10.058789, 1.262792, -0.286574, 0.694729, -0.958174, -36.658020, -83.095596, -645.788513
1733470124.727023, 2.330157, -8.880094, 2.241122, -0.685240, 0.833844, -1.036841, -36.023987, -82.983307, -646.341370
1733470124.737040, 2.379388, -7.540538, 2.383128, -0.972517, 0.813958, -1.118131, -35.203369, -82.570892, -646.301025
1733470124.747060, 2.680758, -6.014384, 1.931971, -1.047777, 0.556041, -1.119045, -34.189697, -82.455490, -646.385742
1733470124.757025, 2.672977, -4.052336, 1.322198, -0.867876, 0.184228, -0.963017, -33.142532, -82.282547, -646.092407
1733470124.767030, 1.276858, -2.324620, 1.091307, -0.621122, 0.057277, -0.800250, -33.032639, -81.993973, -647.312622
1733470124.777037, -0.835427, -1.270274, 1.880645, -0.618907, 0.039563, -0.732789, -32.394485, -81.461838, -647.063660
1733470124.787044, -2.036119, 0.082151, 3.839102, -0.923356, -0.294982, -0.548795, -31.640488, -81.032547, -647.008667
1733470124.797030, -2.396895, 0.710629, 4.981735, -1.263014, -0.936997, -0.120505, -31.641464, -80.488037, -647.605896
1733470124.807022, -2.445827, -1.432032, 3.903596, -1.408934, -1.649814, 0.429626, -32.753372, -80.156326, -648.791626
1733470124.817042, -1.734001, -6.768258, 1.067215, -1.446661, -2.135360, 0.888665, -34.210541, -79.779846, -649.876831
1733470124.827024, -1.474080, -12.508806, -1.644517, -1.531597, -2.410297, 1.117517, -35.484360, -79.099518, -650.754578
1733470124.837074, -3.088670, -14.547469, -3.287538, -1.732538, -2.199831, 1.009090, -37.148254, -78.796875, -651.687378
1733470124.847021, -3.538929, -13.825467, -5.470302, -1.982298, -1.250530, 0.700346, -38.475739, -77.967117, -652.106812
1733470124.857020, -0.679504, -14.544326, -8.030302, -1.987419, -0.210853, 0.425471, -38.813766, -77.505844, -652.412598
1733470124.867044, 2.227505, -14.496741, -9.462783, -1.622889, 0.680467, 0.240673, -38.516281, -76.891312, -653.502136
1733470124.877086, 4.900033, -13.099575, -10.109217, -0.920814, 1.423677, 0.376364, -37.700287, -76.612411, -653.591858
1733470124.887028, 6.044461, -10.528502, -9.382577, -0.070944, 2.164552, 0.770627, -37.605103, -76.547318, -653.572937
1733470124.897024, 6.460304, -9.852289, -6.941539, 0.581731, 2.743193, 1.165143, -37.082047, -76.869385, -653.619263
1733470124.907024, 6.441450, -10.588357, -2.886809, 0.823975, 2.821733, 1.484083, -36.238083, -77.207611, -653.022339
1733470124.917027, 5.655703, -9.614066, 0.699556, 0.746688, 2.640009, 1.774041, -36.090256, -77.366653, -653.042114
1733470124.927027, 4.400094, -8.355614, 2.828300, 0.486144, 2.352253, 1.984529, -35.834305, -77.486374, -652.683960
1733470124.937026, 2.557756, -8.215254, 3.970335, 0.155167, 1.910274, 2.011026, -36.176392, -77.788803, -652.328796
1733470124.947031, 0.298078, -8.490587, 4.111293, -0.122217, 1.387601, 1.802148, -36.326874, -77.772552, -652.418335
1733470124.957022, -1.624017, -9.328259, 3.503764, -0.329873, 0.875002, 1.371038, -36.149200, -77.700943, -652.273438
1733470124.967022, -2.807201, -9.955390, 2.544438, -0.523029, 0.410519, 0.851503, -36.625076, -77.422974, -653.233765
1733470124.977023, -3.438672, -9.778518, 1.706617, -0.728634, -0.075367, 0.271234, -36.904556, -77.099396, -653.483337
1733470124.987020, -3.385700, -10.625916, 0.740557, -0.925449, -0.678658, -0.402373, -37.048965, -76.792084, -653.934570
1733470124.997024, -2.955642, -11.698967, -0.936133, -0.982709, -1.411641, -1.058448, -37.140259, -76.326538, -654.560425
1733470125.007023, -2.460940, -11.094132, -3.665523, -0.834586, -1.971747, -1.546702, -37.007904, -75.993195, -654.595947
1733470125.017082, -1.944990, -10.433183, -6.694188, -0.489172, -2.117299, -1.930585, -36.993973, -75.655807, -654.697144
1733470125.026133, -0.741454, -9.965415, -9.464429, 0.045846, -1.737917, -2.111991, -36.472336, -75.677643, -654.661560
1733470125.037028, 1.231517, -9.027487, -10.607959, 0.681213, -1.132592, -2.073059, -36.465897, -76.185928, -654.196289
1733470125.047021, 3.300407, -8.288128, -9.776124, 1.274329, -0.651349, -1.886285, -36.091766, -76.560760, -653.999512
1733470125.057021, 5.388600, -7.759308, -7.572561, 1.682018, -0.467400, -1.595861, -35.919907, -77.274338, -652.514771
1733470125.066969, 7.275530, -7.498490, -5.010316, 1.823308, -0.534109, -1.245304, -35.716476, -77.874252, -652.276794
1733470125.076464, 8.180389, -7.509114, -2.932298, 1.706954, -0.710691, -0.904603, -35.902847, -78.402237, -651.899658
1733470125.087036, 8.292317, -7.939771, -1.641525, 1.382682, -0.754386, -0.656646, -35.809326, -79.099823, -651.582031
1733470125.097027, 7.774272, -8.381801, -1.016638, 0.935236, -0.653406, -0.519918, -36.002716, -79.344376, -650.961365
1733470125.106306, 6.942886, -8.054094, -0.651971, 0.459203, -0.450929, -0.465615, -36.025574, -79.468262, -651.152832
1733470125.117034, 6.272359, -7.734319, -0.730980, 0.036009, -0.174445, -0.476149, -36.115921, -79.334396, -651.216736
1733470125.127009, 6.029947, -7.952490, -1.181090, -0.278289, 0.111307, -0.506197, -35.480453, -79.238159, -651.356323
1733470125.137031, 6.079477, -8.177845, -1.799542, -0.486307, 0.395533, -0.521408, -35.314651, -79.159363, -651.444153
1733470125.147030, 6.015132, -7.968951, -2.174384, -0.626223, 0.619083, -0.536160, -34.757858, -78.865814, -651.803711
1733470125.157022, 5.775563, -7.547721, -2.475455, -0.717238, 0.797916, -0.566501, -34.067154, -78.686371, -651.445801
1733470125.166618, 5.511901, -7.497293, -2.968212, -0.727128, 0.985969, -0.667322, -33.441925, -78.434906, -652.104614
1733470125.177019, 5.170877, -7.520936, -3.367145, -0.641249, 1.142299, -0.802589, -32.811447, -78.173035, -652.740784
1733470125.187034, 5.072415, -7.126940, -3.327641, -0.473665, 1.178939, -0.916767, -31.961288, -78.056534, -652.413757
1733470125.197007, 4.842422, -6.487538, -2.404377, -0.226656, 0.954736, -1.014142, -31.387192, -77.880066, -652.291199
1733470125.207042, 4.216788, -5.840805, -0.889147, 0.061029, 0.652834, -1.131712, -30.600037, -77.814056, -652.042603
1733470125.217011, 3.501819, -5.137807, 0.672920, 0.243617, 0.318858, -1.311434, -29.725143, -77.851959, -652.047485
1733470125.227023, 3.007865, -4.047248, 2.425626, 0.207910, -0.147869, -1.520148, -29.176605, -77.642242, -651.395996
1733470125.237024, 3.186533, -1.613243, 4.048296, -0.071511, -0.822482, -1.516980, -27.645966, -77.388885, -651.196167
1733470125.246609, 3.955969, 1.905934, 4.526238, -0.426947, -1.553010, -1.013783, -27.574448, -76.737640, -651.324951
1733470125.257066, 4.697573, 4.826112, 3.485808, -0.731984, -1.912426, -0.031592, -28.168274, -76.312408, -651.114929
1733470125.267029, 5.240907, 4.922329, 1.210718, -1.046701, -1.828350, 1.302340, -29.874832, -75.913528, -652.597107
1733470125.277018, 5.096806, 1.562366, -0.373944, -1.526853, -1.637929, 2.549586, -32.303696, -75.315201, -653.945435
1733470125.287016, 2.983175, -5.479130, -1.578228, -2.176360, -1.576850, 3.207833, -34.513077, -74.486923, -655.369507
1733470125.297052, -2.029086, -13.936199, -4.514716, -2.734372, -1.181311, 2.987880, -35.992889, -73.324448, -656.468384
1733470125.307017, -7.917625, -18.522741, -9.168595, -3.103366, -0.183450, 2.104367, -36.638351, -72.287918, -657.719116
1733470125.317011, -10.564265, -20.095283, -13.615376, -3.154602, 1.146027, 0.906802, -36.315720, -71.027878, -658.342651
1733470125.327070, -8.387038, -21.426010, -18.499847, -2.521671, 2.486538, -0.244138, -34.511627, -70.690811, -658.846436
1733470125.337019, -3.906739, -18.401535, -20.936396, -0.963475, 3.155396, -0.890308, -34.511627, -70.690811, -658.846436
1733470125.347016, -1.539771, -13.060819, -19.952828, 1.248879, 3.195919, -1.037888, -31.258072, -71.746674, -657.241638
1733470125.357015, -1.381754, -8.863484, -15.792753, 3.416458, 2.824551, -1.082865, -30.276443, -73.531250, -655.217224
1733470125.367010, -1.682076, -7.286453, -9.191639, 4.927022, 1.962068, -1.299140, -29.085617, -75.460037, -653.641479
1733470125.377008, -1.739537, -6.873603, -2.262371, 5.673624, 0.676631, -1.638373, -28.351135, -77.408447, -651.058838
1733470125.387028, -1.578976, -6.447735, 2.412607, 5.867612, -0.647023, -2.017588, -27.996124, -78.951813, -649.627319
1733470125.397062, -1.221641, -7.101651, 4.781969, 5.669645, -1.768075, -2.434570, -27.016739, -80.370956, -647.757507
1733470125.407021, -0.399083, -7.800908, 5.620987, 5.190204, -2.575110, -2.717737, -27.066971, -81.458954, -645.649048
1733470125.417023, 0.075567, -7.423222, 5.589264, 4.550498, -2.906596, -2.838901, -26.654800, -82.114044, -644.328857
1733470125.426558, 0.727388, -7.339575, 4.711340, 3.773792, -2.632960, -2.870725, -26.139526, -82.874771, -642.957092
1733470125.437020, 2.814085, -7.873631, 3.655647, 2.876746, -1.992079, -2.694924, -25.870377, -82.943634, -642.369202
1733470125.447015, 5.708974, -8.475773, 3.580977, 1.887877, -1.311897, -2.380238, -25.142044, -83.127426, -642.096863
1733470125.457018, 7.645284, -8.669105, 3.623325, 0.914375, -0.706463, -2.003668, -24.543945, -83.015427, -641.048523
1733470125.467005, 8.544756, -8.030302, 2.908356, 0.107982, -0.112323, -1.538534, -23.998703, -82.905670, -641.548645
1733470125.477007, 8.973318, -7.398682, 1.764377, -0.466982, 0.442906, -1.025420, -23.473022, -82.588211, -641.960205
1733470125.487007, 8.632144, -7.022343, 0.950049, -0.848852, 0.872857, -0.576828, -23.297180, -82.221649, -642.577209
1733470125.496025, 7.432949, -6.792051, 0.609025, -1.067053, 1.196299, -0.306454, -23.297180, -82.221649, -642.577209
1733470125.507016, 6.372467, -6.590788, 0.140959, -1.154642, 1.470959, -0.193447, -22.746078, -81.634888, -643.158447
1733470125.517012, 5.645827, -6.217143, -0.191835, -1.142617, 1.649585, -0.221313, -22.573700, -81.078217, -643.348206
1733470125.527019, 5.378275, -6.241534, -0.193781, -1.065123, 1.647006, -0.442993, -22.573700, -81.078217, -643.348206
1733470125.537010, 5.878663, -6.457910, -0.148141, -0.899849, 1.412473, -0.785435, -22.100189, -80.996414, -643.544922
1733470125.547006, 7.161506, -5.913828, -0.028730, -0.651512, 0.980183, -1.056305, -21.430756, -80.510605, -643.987976
