SamplingTime, AccelerationX, AccelerationY, AccelerationZ, GyroX, GyroY, GyroZ, MagneticFieldX, MagneticFieldY, MagneticFieldZ
1733469941.949931, -0.011821, -11.723059, -2.142212, -0.166609, 0.342542, -0.356608, , , 
1733469941.959942, 0.554557, -12.349442, -2.350059, -0.149101, 0.392214, -0.472375, -18.354828, -74.201736, -648.229431
1733469941.969942, 1.289128, -12.496536, -2.169745, -0.107584, 0.324546, -0.545105, -18.087372, -74.165771, -648.816101
1733469941.979946, 1.954267, -12.594698, -2.248904, 0.012210, 0.194641, -0.572756, -17.735077, -73.908447, -648.411072
1733469941.989937, 2.254440, -13.143718, -2.817227, 0.255410, -0.058674, -0.559389, -17.387589, -73.917755, -648.476196
1733469941.999934, 2.094926, -13.357550, -3.113809, 0.489295, -0.258220, -0.560647, -17.226654, -74.024628, -647.998108
1733469942.009942, 0.943615, -13.753342, -2.824410, 0.697881, -0.522656, -0.672572, -17.305435, -74.110443, -648.262695
1733469942.019073, 0.369306, -14.308198, -2.530821, 0.789302, -0.778611, -0.837647, -17.237808, -74.167068, -647.834778
1733469942.029946, -0.024989, -14.136414, -2.398092, 0.800005, -0.914438, -1.008880, -16.772049, -74.227554, -647.713867
1733469942.039946, -0.306907, -14.150630, -2.571672, 0.759906, -0.960657, -1.190756, -16.597519, -74.229721, -648.342834
1733469942.049937, -0.861763, -13.998747, -2.971803, 0.693831, -0.864533, -1.386320, -16.433044, -74.265152, -647.491699
1733469942.059936, -1.404499, -13.734637, -3.972878, 0.670484, -0.613323, -1.595960, -16.073456, -74.205841, -647.733032
1733469942.069932, -1.757943, -13.324480, -5.080047, 0.758419, -0.300051, -1.792104, -15.325409, -74.148376, -646.968506
1733469942.079939, -2.002151, -13.034782, -5.697901, 0.938567, -0.033262, -2.017547, -14.864944, -73.830643, -646.534790
1733469942.089942, -1.959804, -12.584971, -5.664382, 1.171339, 0.089768, -2.254695, -14.114532, -73.779648, -646.797363
1733469942.099935, -1.695544, -11.741913, -5.190629, 1.446607, 0.042056, -2.478813, -13.208618, -73.787033, -645.924805
1733469942.109928, -1.355268, -10.978163, -4.439448, 1.709350, -0.145879, -2.712958, -12.606827, -73.501465, -645.851990
1733469942.119934, -0.902764, -10.153959, -3.646070, 1.921022, -0.391667, -2.922444, -11.642410, -73.683609, -644.588928
1733469942.129930, -0.456993, -9.056517, -3.096601, 2.097569, -0.653883, -3.094646, -10.637390, -73.254379, -643.860779
1733469942.139927, -0.322170, -8.244583, -2.605191, 2.242822, -0.940696, -3.265509, -9.644989, -73.113068, -644.233704
1733469942.149926, -0.105495, -7.477840, -2.268057, 2.347796, -1.186634, -3.422873, -9.109055, -72.809921, -643.192444
1733469942.159989, 0.449362, -6.499958, -2.133832, 2.418927, -1.357618, -3.525885, -7.940857, -72.540695, -643.617737
1733469942.168929, 1.024868, -5.386954, -1.942595, 2.458716, -1.468445, -3.561346, -7.191269, -72.324158, -642.783569
1733469942.179933, 1.505504, -4.316297, -1.863138, 2.454988, -1.443020, -3.550406, -6.247513, -71.638855, -641.722107
1733469942.189926, 1.846678, -3.253570, -1.772906, 2.387547, -1.291892, -3.506600, -5.641647, -71.159454, -641.677124
1733469942.199992, 1.967585, -2.296339, -1.427992, 2.262996, -1.109751, -3.479923, -4.790756, -70.987015, -641.032349
1733469942.209938, 1.880496, -1.468693, -0.753126, 2.132077, -1.051454, -3.503139, -4.107437, -70.344727, -642.093079
1733469942.218955, 1.608455, -0.857573, -0.266355, 2.038424, -1.060782, -3.595487, -3.136063, -69.543762, -640.846497
1733469942.229941, 1.840543, -0.306607, -0.062100, 1.955808, -1.093831, -3.681092, -2.585678, -68.685974, -640.291260
1733469942.239939, 2.382829, 0.457143, 0.285658, 1.864936, -1.186925, -3.727215, -1.707855, -67.986862, -641.107422
1733469942.249934, 2.839972, 1.159841, 0.680701, 1.758476, -1.292007, -3.744236, -0.871811, -66.948257, -639.960693
1733469942.259928, 3.440767, 1.732654, 0.837671, 1.615146, -1.305771, -3.693660, -0.383621, -65.912231, -641.055420
1733469942.268956, 4.602254, 2.481740, 0.702848, 1.442356, -1.250224, -3.537612, 0.345444, -64.889572, -640.781677
1733469942.279938, 5.805191, 3.055600, 0.669329, 1.259401, -1.132635, -3.289198, 0.469223, -63.767197, -640.317322
1733469942.289922, 7.173178, 3.089268, 0.471209, 1.073302, -0.954838, -2.970350, 1.198532, -63.052185, -641.224304
1733469942.299929, 9.058911, 3.281104, 0.282516, 0.959806, -0.760246, -2.542182, 1.131180, -62.311142, -640.552734
1733469942.309933, 11.030087, 3.796755, 0.251690, 0.950283, -0.643202, -2.052831, 1.094574, -61.766357, -641.096375
1733469942.318952, 12.399870, 3.621679, 0.746392, 1.031884, -0.778544, -1.643176, 1.032425, -61.538055, -642.047791
1733469942.329928, 12.903550, 2.506131, 1.583166, 1.139974, -1.126975, -1.369325, 0.374496, -61.334473, -641.680420
1733469942.339927, 12.714857, 1.515530, 2.100613, 1.205380, -1.396156, -1.310684, -0.119278, -61.066635, -642.598511
1733469942.349920, 12.538733, 0.596455, 2.074725, 1.146005, -1.281550, -1.479333, -0.573639, -60.851669, -642.283752
1733469942.359924, 13.989171, -0.358083, 2.627038, 0.856319, -1.116387, -1.726521, -1.128235, -60.267395, -643.194763
1733469942.368971, 16.743101, -1.817648, 3.868132, 0.427772, -1.201304, -1.924790, -1.253387, -59.693314, -643.482361
1733469942.379932, 19.672407, -3.119046, 4.054581, 0.024576, -1.478080, -1.956881, -1.087662, -59.002182, -644.040100
1733469942.389929, 22.490083, -3.973926, 2.357989, -0.254859, -1.661745, -1.748443, -1.619919, -58.094315, -645.088867
1733469942.399928, 24.525154, -4.701165, -0.196773, -0.407979, -1.666604, -1.378442, -1.701096, -57.550140, -645.321838
1733469942.409931, 24.961049, -5.547216, -2.176479, -0.492633, -1.422346, -0.982204, -1.838425, -56.802139, -646.537109
1733469942.418991, 24.601619, -6.159084, -3.293524, -0.646796, -0.918694, -0.642980, -2.029373, -56.419510, -646.946472
1733469942.429924, 23.443723, -6.268020, -3.629011, -0.767368, -0.260852, -0.393835, -1.798035, -56.170898, -646.305664
1733469942.439931, 21.536891, -6.078728, -2.833538, -0.899526, 0.204623, -0.336221, -1.774841, -55.564102, -647.052979
1733469942.449924, 19.602825, -5.655254, -0.919074, -1.059131, 0.391992, -0.456733, -1.634171, -55.299820, -646.363708
1733469942.459930, 17.545907, -4.737527, 0.077662, -1.109425, 0.377284, -0.777875, -1.397980, -54.625870, -647.196594
1733469942.469919, 15.258247, -4.086004, 0.674566, -1.010211, 0.102394, -1.348397, -1.441254, -53.806519, -647.565186
1733469942.479915, 13.872004, -2.970007, 0.774824, -0.729704, -0.282498, -2.064101, -1.133835, -52.728088, -646.656555
1733469942.489941, 14.364911, -0.913538, -0.039953, -0.348747, -0.664427, -2.664269, -0.969498, -51.536484, -647.617859
1733469942.499921, 16.152930, 0.813280, -0.928651, 0.031803, -1.096544, -3.040781, -0.481186, -50.311371, -646.959961
1733469942.509926, 18.033725, 2.748244, -1.705569, 0.464570, -1.561615, -3.038703, -0.075104, -48.999542, -648.355652
1733469942.519918, 20.438701, 4.967520, -2.630330, 0.896674, -1.865601, -2.523135, -0.149704, -48.328125, -648.863159
1733469942.529924, 22.869863, 6.602460, -3.075053, 1.221853, -2.016142, -1.638685, -0.345215, -48.350082, -648.485474
1733469942.539921, 23.840862, 7.349002, -3.176357, 1.416450, -1.876042, -0.620944, -0.111832, -48.483765, -649.696899
1733469942.549906, 23.805248, 8.358008, -2.956839, 1.435177, -1.461080, 0.550192, -0.173325, -49.247955, -650.233704
1733469942.559909, 22.867020, 9.839870, -2.667141, 1.346435, -0.747894, 1.775908, 0.011337, -50.531799, -650.093201
1733469942.569913, 21.048025, 11.307515, -1.762581, 1.126281, -0.027082, 3.020564, -0.512573, -52.222183, -649.505127
1733469942.579939, 18.923022, 12.778453, 0.036512, 0.766568, 0.593523, 4.212580, -0.203598, -54.308136, -649.211304
1733469942.589922, 16.776620, 13.915549, 1.674744, 0.302527, 0.946373, 5.360735, -0.071365, -56.621750, -648.203125
1733469942.599926, 15.103971, 14.833875, 3.359215, -0.116787, 0.835270, 6.533651, -0.815460, -58.911850, -648.197571
1733469942.609168, 13.147459, 15.577574, 4.256142, -0.394230, 0.445709, 7.733526, -1.748123, -61.725571, -648.399597
1733469942.619972, 10.165481, 16.347310, 4.341286, -0.595171, 0.056362, 8.893704, -3.725861, -64.569412, -648.586914
1733469942.629912, 6.511480, 17.158046, 4.392612, -0.845220, -0.225204, 9.956601, -5.729218, -67.435364, -648.294678
1733469942.639911, 3.330185, 18.519748, 4.138976, -1.125423, -0.376347, 10.999597, -8.934402, -70.110519, -649.142944
1733469942.649906, -0.087239, 20.344130, 3.488950, -1.376783, -0.260151, 12.001037, -12.188705, -72.560745, -649.374573
1733469942.659920, -6.082769, 22.122423, 3.663577, -1.708884, 0.089632, 12.649148, -17.466019, -74.364685, -650.393005
1733469942.669914, -16.935685, 21.067628, 5.848436, -2.450836, 0.063783, 12.081498, -22.440140, -75.490494, -651.484131
1733469942.679916, -28.005875, 14.894329, 9.252692, -3.503786, -0.744325, 10.164376, -25.861679, -74.954391, -653.449158
1733469942.689916, -34.030584, 9.156475, 6.774094, -4.053160, -1.171598, 7.718387, -28.104919, -74.216339, -654.736267
1733469942.699906, -34.851047, 6.243030, -0.999430, -3.736732, -1.132493, 5.503527, -29.871536, -72.779282, -655.759399
1733469942.709914, -32.973993, 3.277213, -6.882731, -2.868720, -1.117083, 3.718585, -31.058517, -71.795410, -656.627686
1733469942.719976, -29.761573, 1.422754, -10.834810, -1.698779, -1.044683, 2.433168, -31.931580, -71.504623, -656.591858
1733469942.729912, -28.307095, 0.154725, -12.903699, -0.378406, -1.086642, 1.327791, -32.333572, -71.412994, -657.233826
1733469942.739905, -28.545318, -2.102708, -13.311163, 0.840149, -1.099976, 0.252356, -32.625549, -71.597458, -656.699402
1733469942.749920, -28.183794, -3.570353, -12.678645, 1.696941, -0.975300, -0.694205, -32.907745, -72.551727, -656.227783
1733469942.759910, -27.146955, -4.821324, -11.506084, 2.132830, -0.563268, -1.586478, -32.435059, -73.243195, -655.446655
1733469942.769920, -25.802611, -6.454019, -10.115203, 2.225276, 0.069556, -2.480078, -31.518356, -74.021667, -654.962769
1733469942.779921, -24.246080, -7.827094, -7.848043, 2.056261, 0.620276, -3.388633, -30.276810, -74.490524, -654.272644
1733469942.789905, -22.196793, -9.037064, -5.335329, 1.749236, 0.922088, -4.295184, -28.877533, -75.011200, -653.996704
1733469942.799961, -19.541175, -9.927557, -3.692158, 1.452771, 0.952626, -5.171217, -27.222046, -74.967987, -653.830078
1733469942.809916, -16.034118, -10.504261, -3.252822, 1.284187, 0.736371, -6.016894, -25.429886, -74.720978, -653.568848
1733469942.819905, -11.128998, -11.012430, -4.018667, 1.295577, 0.284515, -6.654308, -23.324844, -74.475723, -653.018799
1733469942.829902, -5.364209, -11.452963, -6.432472, 1.593160, -0.041274, -7.003781, -21.555298, -74.117020, -652.376892
1733469942.839947, 0.515202, -11.386823, -9.679458, 2.294955, -0.048884, -7.058935, -20.259506, -73.927673, -651.108337
1733469942.849897, 5.749825, -10.575039, -11.336096, 3.200287, 0.184189, -6.982992, -18.677597, -73.953064, -650.636536
1733469942.859899, 10.666617, -10.221445, -9.165154, 3.828057, 0.257221, -6.975418, -17.371994, -73.514587, -649.396973
1733469942.869900, 15.350723, -9.865607, -4.270358, 3.827555, 0.140076, -7.043210, -15.082870, -72.838806, -648.104431
1733469942.879900, 20.217537, -9.310901, 0.965462, 3.170404, -0.102903, -6.992766, -13.458389, -71.725098, -647.172852
1733469942.889900, 24.105571, -7.338078, 5.618593, 2.073628, -0.463702, -6.806412, -12.169937, -70.284119, -646.819885
1733469942.899912, 26.585365, -4.011186, 8.577377, 0.748263, -0.522260, -6.667393, -10.817947, -68.188232, -647.186768
1733469942.909915, 30.122199, -0.667982, 7.854478, -0.490285, -0.067886, -6.465505, -9.725433, -66.065323, -648.170654
1733469942.919907, 35.605370, 2.687192, 6.414665, -1.396916, 0.231697, -5.967242, -8.739151, -63.702774, -647.773438
1733469942.929906, 40.520516, 5.559935, 4.046051, -1.617354, 0.337575, -5.241254, -7.321442, -61.575043, -647.485229
1733469942.939899, 44.247241, 6.899191, 0.441132, -1.214742, 0.328207, -4.232988, -6.215454, -60.020828, -647.607544
1733469942.949346, 46.241012, 7.560889, -0.932990, -0.639550, 0.068822, -2.958245, -5.241562, -59.047791, -647.546021
1733469942.959908, 44.736705, 6.705710, -1.315614, -0.064244, -0.063307, -1.700318, -4.964066, -58.842728, -647.470459
1733469942.968959, 41.227704, 5.474342, -1.439963, 0.244668, 0.196878, -0.584051, -3.892700, -58.752518, -647.111694
1733469942.979899, 37.257070, 4.500501, 0.711377, 0.095811, 0.435431, 0.338531, -3.273697, -58.979889, -647.080078
1733469942.989897, 32.602742, 4.087351, 2.974796, -0.268512, 0.648744, 1.133670, -2.651001, -59.208359, -646.821533
1733469942.999903, 27.757626, 4.311658, 3.700837, -0.700575, 0.864247, 1.745873, -2.127930, -59.790802, -645.698486
1733469943.009607, 23.607876, 4.830451, 4.075829, -1.153330, 0.953177, 2.271530, -2.010117, -60.233093, -645.942505
1733469943.019916, 20.492122, 5.692514, 4.032733, -1.532237, 0.840266, 2.853970, -2.093765, -60.964722, -646.179871
1733469943.029895, 17.841591, 6.728156, 2.976442, -1.733725, 0.692975, 3.481960, -1.902252, -62.160980, -646.320129
1733469943.039937, 15.258098, 7.742848, 1.300800, -1.766543, 0.703890, 4.107867, -2.265915, -63.146561, -646.169922
1733469943.048902, 12.823344, 8.694244, 0.042946, -1.680462, 0.749596, 4.766714, -2.965424, -64.668503, -646.081055
1733469943.059891, 10.428544, 9.507375, -0.205153, -1.534553, 0.674175, 5.435216, -4.071274, -66.528488, -646.563110
1733469943.069901, 7.501183, 9.843162, 0.017957, -1.388072, 0.495926, 5.976453, -5.691483, -67.830185, -646.360901
1733469943.078956, 3.972280, 9.797522, 0.512808, -1.276731, 0.276345, 6.312501, -7.245743, -69.716080, -646.874084
1733469943.089890, 0.672322, 9.479692, 1.137695, -1.232098, 0.022456, 6.442292, -8.949600, -71.190430, -647.192566
1733469943.099900, -1.666364, 9.383026, 1.590797, -1.225028, -0.255917, 6.438526, -11.106506, -72.611069, -647.146362
1733469943.109898, -3.050512, 9.642348, 1.644218, -1.188229, -0.521190, 6.409636, -13.026733, -73.764954, -648.134521
1733469943.119901, -3.575740, 10.236559, 1.524508, -1.108858, -0.747476, 6.489183, -15.649292, -75.003586, -648.414062
1733469943.129899, -4.156184, 10.775853, 1.697190, -1.018151, -0.980887, 6.635904, -18.383316, -75.773178, -648.699585
1733469943.139938, -5.887492, 10.593445, 2.362778, -1.020593, -1.192387, 6.652662, -21.121841, -76.482697, -649.395752
1733469943.149909, -8.298453, 9.902418, 3.473089, -1.190481, -1.497330, 6.464069, -23.905731, -76.891464, -650.709473
1733469943.159886, -11.645547, 8.753052, 4.251055, -1.563081, -1.901473, 5.991376, -26.312927, -76.544907, -651.493103
1733469943.169906, -15.787515, 6.875698, 3.339911, -2.129814, -2.111820, 4.075938, -28.295334, -76.068726, -652.654419
1733469943.179892, -19.755306, 5.135563, 0.865504, -1.927912, -1.931093, 2.959190, -29.391754, -75.457581, -653.104370
1733469943.189962, -22.645257, 4.020613, -2.496105, -1.927912, -1.931093, 2.959190, -30.333771, -74.825928, -653.569641
1733469943.199932, -24.889223, 2.302474, -5.844396, -1.464562, -1.583218, 1.900399, -30.903198, -74.309586, -653.055603
1733469943.210042, -26.503363, -0.051026, -7.869292, -1.045852, -1.139307, 0.887591, -31.059372, -73.843948, -654.527588
1733469943.219948, -26.942550, -2.536357, -9.015067, -0.720008, -0.696057, -0.088153, -30.842590, -73.582031, -654.593994
1733469943.229897, -27.075578, -5.100547, -10.191069, -0.321027, -0.192576, -1.077994, -29.937241, -73.592468, -654.734375
1733469943.240012, -24.384944, -9.447969, -11.946917, 0.683591, 0.862892, -2.768502, -29.394806, -73.698105, -654.968506
1733469943.249901, -23.535302, -10.827478, -10.559327, 0.683591, 0.862892, -2.768502, -28.573761, -74.028915, -655.184753
1733469943.259891, -22.052842, -11.984775, -8.296956, 1.046543, 1.100228, -3.750108, -27.166153, -74.181381, -654.664917
1733469943.269893, -17.933319, -13.357700, -7.059154, 1.444170, 0.318303, -6.125151, -25.488342, -73.855698, -654.330688
1733469943.279892, -11.525088, -13.806762, -7.919720, 1.811486, -0.315310, -6.932425, -23.924530, -73.673141, -653.793701
1733469943.289909, -3.840150, -13.074885, -10.224289, 2.396259, -0.774744, -7.177109, -21.738480, -73.544891, -653.080322
1733469943.299889, 3.529502, -11.695376, -12.119150, 3.149452, -0.892313, -6.963083, -20.289429, -73.678818, -651.791504
1733469943.309886, 9.049633, -10.599131, -12.473342, 3.819436, -0.581046, -6.617760, -19.690659, -73.440536, -651.173157
1733469943.319896, 13.668946, -10.330382, -9.902568, 4.020251, -0.251042, -6.322186, -18.477737, -73.668320, -649.886658
1733469943.329884, 17.467048, -10.625467, -5.195118, 3.639512, 0.037561, -6.144998, -16.484558, -73.389771, -648.628113
1733469943.339881, 20.781221, -9.153183, -1.177947, 2.809949, 0.508788, -5.881910, -15.302048, -72.790405, -647.487549
1733469943.349890, 23.849840, -6.108357, 2.259079, 1.723909, 1.018911, -5.604704, -14.102066, -72.080505, -646.772461
1733469943.359893, 27.572225, -4.655375, 5.112518, 0.658005, 1.265538, -5.420958, -12.818665, -70.695801, -646.363159
1733469943.369886, 32.042948, -2.757971, 6.638074, -0.073976, 1.194113, -5.169248, -11.278366, -69.139038, -645.850525
1733469943.379889, 36.626048, 0.454749, 7.482329, -0.518325, 0.638001, -4.732827, -10.363358, -67.580063, -646.157227
1733469943.389885, 40.407241, 1.891419, 7.057059, -0.699692, -0.186672, -4.186310, -9.365479, -65.971527, -646.499268
1733469943.399888, 42.404155, 1.970877, 4.213496, -0.574002, -0.959251, -3.512236, -9.365479, -65.971527, -646.499268
1733469943.409885, 41.995345, 2.256385, 0.369755, -0.133932, -1.499943, -2.763255, -7.886642, -63.630188, -647.766602
1733469943.419881, 39.771431, 2.101211, -3.193266, 0.562922, -1.705947, -1.966962, -6.898621, -63.139740, -647.798157
1733469943.429880, 36.403238, 1.960702, -4.857686, 1.155898, -1.467313, -1.188306, -6.445786, -62.912857, -647.325012
1733469943.439890, 33.186777, 2.417844, -4.225018, 1.377120, -0.859751, -0.389761, -6.445786, -62.912857, -647.325012
1733469943.449883, 30.269592, 3.251475, -1.656638, 1.112538, -0.077456, 0.463848, -6.048782, -63.006256, -646.846130
1733469943.459890, 26.921451, 4.039317, 0.447566, 0.497444, 0.909010, 1.233924, -5.373230, -63.529770, -646.168823
1733469943.469888, 23.258622, 4.893000, 2.010531, -0.273131, 1.787891, 1.916552, -4.987091, -64.192352, -645.974304
1733469943.479887, 20.592528, 5.594950, 3.544765, -1.024736, 2.207276, 2.575649, -4.426300, -64.683807, -645.445923
1733469943.489895, 19.355774, 6.697480, 4.722114, -1.543835, 1.897224, 3.369128, -3.897476, -65.397217, -645.126587
1733469943.499891, 17.948881, 7.839963, 4.409521, -1.798451, 1.326782, 4.239396, -4.063492, -66.310425, -644.317993
1733469943.509886, 15.428834, 8.620622, 2.438345, -1.831624, 0.912585, 5.086344, -4.533478, -67.493774, -644.343811
1733469943.519882, 12.158803, 9.262717, 0.662895, -1.730582, 0.735420, 5.825562, -5.129990, -68.604324, -644.942200
1733469943.529880, 8.715792, 9.466224, -0.398934, -1.606207, 0.731753, 6.468632, -6.251877, -69.996155, -645.028748
1733469943.539881, 5.702539, 9.758916, -0.796371, -1.541419, 0.844990, 7.048135, -7.782074, -71.348251, -645.199463
1733469943.549887, 2.753631, 10.134356, -0.701800, -1.560935, 1.061746, 7.490953, -9.576492, -73.042282, -645.638184
1733469943.559877, 0.435745, 10.637588, -0.210540, -1.681337, 1.296253, 7.868616, -11.490372, -74.591980, -646.010498
1733469943.569879, -1.618181, 11.431864, 0.906505, -1.935459, 1.429810, 8.123412, -13.822845, -76.101486, -645.935364
1733469943.579887, -4.239233, 11.446528, 2.410063, -2.316934, 1.297485, 8.092877, -16.406616, -77.251907, -646.785217
1733469943.589879, -7.114670, 11.104756, 4.376002, -2.804198, 0.797072, 7.747601, -19.532135, -78.026184, -647.778015
1733469943.599880, -9.400234, 10.023176, 5.842002, -3.326634, -0.116594, 7.175360, -22.270447, -78.326553, -648.772522
1733469943.609879, -11.237934, 9.343821, 5.122694, -3.623183, -1.037484, 6.600557, -24.407776, -78.116043, -649.433838
1733469943.619879, -13.575423, 9.365518, 1.939603, -3.556331, -1.534727, 5.970628, -27.240204, -77.341919, -651.444519
1733469943.629882, -16.959776, 8.172607, -1.720982, -3.184619, -1.697283, 5.077736, -29.968918, -76.515137, -652.914795
1733469943.639877, -20.577714, 5.701492, -4.622306, -2.629518, -1.689045, 3.820249, -32.294647, -75.465927, -654.045654
1733469943.649884, -23.516747, 3.093309, -6.773196, -1.955250, -1.848356, 2.361624, -33.672226, -74.676865, -654.416748
1733469943.659930, -24.691851, 1.497424, -8.616582, -1.096339, -2.101310, 1.025056, -34.670425, -74.058762, -654.852844
1733469943.669881, -24.172459, 0.336086, -10.513987, -0.146103, -2.182512, 0.035632, -34.900894, -73.528214, -655.097656
1733469943.679880, -23.184551, -0.793528, -11.738471, 0.670635, -1.951571, -0.684694, -35.273117, -73.406204, -655.102295
1733469943.689872, -22.359150, -2.298733, -12.126033, 1.242272, -1.425882, -1.289331, -35.526535, -73.551514, -654.448486
1733469943.699931, -21.730822, -3.702034, -11.641806, 1.575759, -0.687793, -1.802555, -35.457581, -74.230774, -654.254272
1733469943.709873, -20.785112, -5.154267, -10.582222, 1.722118, 0.146570, -2.329087, -35.378799, -74.900421, -653.015198
1733469943.719869, -18.880225, -7.802853, -8.888174, 1.750859, 0.797118, -2.891759, -34.858383, -75.464844, -653.541626
1733469943.729880, -16.221315, -10.657938, -6.439205, 1.664327, 0.960625, -3.519987, -33.956726, -76.076965, -653.421265
1733469943.739870, -13.001263, -13.318046, -4.106505, 1.493832, 0.485850, -4.205863, -33.025833, -76.642990, -653.022888
1733469943.749924, -9.029133, -15.298200, -3.796605, 1.493534, -0.320830, -4.852256, -31.911255, -77.125671, -652.895935
1733469943.759873, -4.875193, -16.191088, -5.548413, 1.865020, -1.228289, -5.408999, -30.773773, -77.465134, -652.450500
1733469943.769869, -0.966509, -16.041899, -7.199065, 2.575994, -2.014656, -5.841166, -29.699814, -77.841080, -651.818726
1733469943.779870, 2.826205, -15.503354, -8.634988, 3.286992, -2.186429, -6.137609, -28.360748, -78.263901, -651.038879
1733469943.789922, 7.646033, -14.723293, -7.405266, 3.488918, -2.090510, -6.285736, -27.532150, -78.740677, -650.067871
1733469943.799890, 13.175741, -13.912407, -4.291606, 3.062585, -1.729561, -6.173386, -25.922012, -78.786606, -648.873535
1733469943.809883, 18.464981, -11.757176, -2.261623, 2.212960, -0.851459, -5.778256, -24.219574, -78.739746, -647.545166
1733469943.819166, 23.733272, -9.036765, -0.421828, 1.154378, 0.221413, -5.038727, -22.975357, -78.246765, -647.178467
1733469943.829888, 28.459875, -8.061726, 1.965939, 0.092275, 0.946252, -4.251145, -22.171799, -77.754318, -647.189880
1733469943.839876, 31.489288, -8.851064, 3.343353, -0.657808, 1.149752, -3.679458, -20.933914, -77.071503, -647.497253
1733469943.849888, 33.968634, -8.945935, 3.330035, -1.008486, 0.813543, -3.111425, -19.721024, -76.266968, -647.420898
1733469943.859872, 35.013703, -7.967454, 2.934693, -0.978286, -0.026899, -2.553280, -18.688202, -75.416641, -647.878418
1733469943.869873, 33.662026, -7.927052, 1.762581, -0.635705, -0.988179, -2.224654, -18.348480, -74.689911, -648.127136
1733469943.879872, 31.435569, -8.186823, -0.271892, -0.096931, -1.741525, -2.025259, -17.508301, -73.934906, -648.920166
1733469943.889876, 28.933478, -7.513603, -0.958279, 0.346652, -2.164904, -1.763580, -16.878418, -73.384598, -648.714233
1733469943.899873, 27.095031, -6.439954, -1.164031, 0.357926, -2.031286, -1.329128, -16.249435, -72.900314, -648.755554
1733469943.909877, 24.855554, -5.106982, -0.176123, 0.052594, -1.735526, -0.855212, -15.960449, -72.651291, -648.663940
1733469943.919887, 21.489157, -4.497059, 0.388609, -0.403718, -1.212053, -0.452698, -15.567169, -72.504333, -649.092407
1733469943.929875, 18.540997, -3.975273, 0.316334, -0.963216, -0.708377, -0.108929, -15.537323, -71.981644, -649.212585
1733469943.939868, 15.311668, -3.005471, 0.337882, -1.452361, -0.397635, 0.145416, -15.084656, -71.599258, -649.981812
1733469943.949865, 12.089521, -2.083404, -0.474650, -1.742734, -0.245829, 0.303007, -15.065765, -71.171295, -650.047058
1733469943.959866, 9.319280, -1.230620, -1.635988, -1.795569, -0.229182, 0.371750, -15.005066, -70.666168, -650.621277
1733469943.969931, 7.269694, -0.482282, -3.002179, -1.634073, -0.220135, 0.381975, -15.023972, -70.323120, -651.730225
1733469943.979878, 6.019173, 0.040253, -4.475062, -1.309658, -0.130469, 0.347561, -15.113449, -69.958359, -652.049805
1733469943.989864, 5.466860, 0.357784, -5.829282, -0.881939, 0.149662, 0.295617, -14.968582, -69.451538, -652.364868
1733469943.999875, 5.552752, 0.624737, -6.679823, -0.447484, 0.594372, 0.327354, -14.463638, -69.510910, -652.487061
1733469944.009886, 6.066009, 1.343895, -6.741174, -0.063459, 1.127002, 0.513454, -14.098007, -69.636337, -652.288025
1733469944.019870, 6.939294, 2.325518, -6.088006, 0.260749, 1.602362, 0.867116, -13.459961, -70.058182, -651.872192
1733469944.029761, 8.602815, 3.507206, -4.309563, 0.572993, 1.721186, 1.453993, -13.390961, -70.595428, -651.465942
1733469944.039862, 10.398467, 4.659865, -1.875857, 0.868527, 1.464545, 2.214126, -13.796539, -71.478882, -650.142761
1733469944.049859, 11.580454, 5.333683, 0.978630, 0.951095, 0.956700, 3.010362, -14.303574, -72.448959, -650.021545
1733469944.059877, 11.595119, 5.524920, 3.193566, 0.677206, 0.485850, 3.739974, -15.332886, -73.477768, -649.615112
1733469944.069878, 10.573243, 5.730821, 3.927389, 0.174744, 0.345421, 4.361746, -16.486374, -74.483643, -649.428711
1733469944.079879, 9.265560, 5.859958, 3.282002, -0.357448, 0.539689, 4.924777, -17.760437, -75.351135, -649.495300
1733469944.089869, 8.193407, 6.197391, 2.492514, -0.824185, 0.821240, 5.555403, -19.002960, -76.162552, -649.365234
1733469944.099868, 7.173627, 6.938696, 1.957260, -1.233679, 1.039340, 6.240121, -20.497864, -76.946045, -649.567993
1733469944.109864, 5.585972, 7.809437, 1.546056, -1.572232, 1.210612, 6.931520, -22.832993, -77.175079, -649.575378
1733469944.119884, 3.149273, 8.301146, 1.209820, -1.906075, 1.416268, 7.547708, -24.633804, -77.320984, -650.157471
1733469944.129890, 0.310498, 8.132953, 0.875081, -2.364049, 1.735890, 8.023998, -26.543732, -77.186066, -650.355042
1733469944.139851, -4.481048, 7.919720, 0.217423, -2.972207, 2.102526, 8.144598, -29.384232, -76.626846, -651.033936
1733469944.149825, -13.240234, 6.153547, 0.562188, -3.683898, 1.905828, 7.321323, -31.793716, -75.926895, -652.970581
1733469944.159832, -23.237523, 2.394501, 0.817620, -4.179712, 0.851792, 5.383100, -32.972748, -74.543106, -654.520386
1733469944.169882, -29.951612, -0.323367, -3.555539, -3.875807, -0.251713, 3.170210, -33.336472, -72.804916, -655.943726
1733469944.179776, -32.370804, -2.247108, -11.244518, -2.824500, -0.999308, 1.150496, -33.347717, -71.520020, -656.006042
1733469944.189655, -31.140633, -4.506486, -17.779790, -1.373532, -1.498839, -0.335802, -33.613647, -70.905380, -656.219177
1733469944.199612, -29.054535, -6.041768, -22.262933, 0.321080, -1.851261, -1.453006, -33.601517, -71.137268, -656.687622
1733469944.209543, -28.399721, -7.365612, -24.478467, 2.120360, -1.953992, -2.495381, -33.803253, -71.950089, -656.325134
1733469944.219856, -26.424804, -9.704148, -24.607156, 3.696697, -1.795082, -3.401255, -33.880981, -73.459366, -655.232239
1733469944.229859, -23.254581, -12.050915, -21.534497, 4.726923, -1.372169, -4.269639, -33.565125, -75.251923, -653.965820
1733469944.239861, -19.775657, -13.802124, -16.977134, 5.145069, -0.720259, -5.127516, -32.925995, -77.197922, -652.053894
1733469944.249861, -15.421951, -14.706533, -10.910676, 5.091879, -0.344992, -5.964262, -31.595398, -78.860214, -650.675476
1733469944.259853, -10.550050, -13.951163, -4.018967, 4.896943, -0.553663, -6.728187, -30.161880, -80.189545, -649.119080
1733469944.269925, -5.262156, -13.700819, 0.359130, 4.713086, -0.961925, -7.462285, -28.289124, -81.042419, -647.645996
1733469944.279851, 0.994791, -13.142970, 3.776404, 4.339368, -1.496389, -8.011073, -26.318939, -81.264877, -645.771667
1733469944.289849, 8.418612, -11.050288, 7.254431, 3.599609, -2.050337, -8.281504, -23.343369, -81.130234, -644.683167
1733469944.299869, 16.360328, -8.910620, 9.337087, 2.596030, -2.417483, -7.993814, -21.011490, -80.077698, -643.345276
1733469944.309869, 24.058435, -5.474941, 9.135226, 1.458291, -2.319440, -7.069794, -19.808487, -79.232574, -643.678101
1733469944.319016, 29.926473, -3.945944, 7.299622, 0.391756, -1.709158, -5.988415, -18.824783, -78.122452, -644.167297
1733469944.329864, 33.758992, -4.534019, 5.010615, -0.431802, -0.899370, -4.983560, -17.377686, -76.935516, -644.475647
1733469944.339857, 36.888213, -4.209007, 3.950433, -0.987772, -0.313219, -3.852838, -15.669708, -75.762573, -644.833984
1733469944.349855, 39.048531, -1.810765, 4.597017, -1.410606, -0.350965, -2.440781, -14.932602, -74.716354, -645.614685
1733469944.359908, 37.733067, -1.021426, 4.621857, -1.666259, -0.617600, -1.125051, -14.589050, -74.041565, -645.809570
1733469944.369894, 33.539024, -1.410484, 3.015347, -1.825704, -0.750575, -0.041241, -14.291565, -73.384048, -646.952881
1733469944.379895, 28.081442, -1.198896, 1.666065, -1.945463, -0.819287, 0.745447, -14.214600, -72.832825, -647.672363
1733469944.389872, 22.501605, -1.846229, 0.654964, -2.000913, -0.952201, 1.206369, -14.910400, -72.598709, -648.485229
1733469944.399858, 17.563265, -2.206107, -0.694468, -1.940587, -1.149005, 1.386958, -15.426407, -72.341675, -649.260437
1733469944.409851, 13.920487, -2.218228, -2.300977, -1.693976, -1.480328, 1.422112, -15.955780, -72.023605, -650.423645
1733469944.419847, 11.015871, -2.190695, -4.003105, -1.297490, -1.718103, 1.406617, -16.636765, -72.091553, -651.236816
1733469944.429893, 8.482507, -1.978508, -5.856217, -0.885830, -1.715020, 1.285594, -17.523651, -71.906799, -651.642517
1733469944.439846, 6.625504, -1.844134, -6.973711, -0.563914, -1.510250, 1.049619, -17.807434, -71.975510, -651.891357
1733469944.449844, 5.397877, -1.777395, -7.839813, -0.301428, -1.088894, 0.763354, -18.778870, -72.033600, -652.082886
1733469944.459842, 4.806061, -1.506551, -8.198046, -0.104744, -0.517279, 0.477273, -18.925278, -72.077759, -652.299805
1733469944.469887, 4.840328, -0.832135, -7.823204, 0.013869, 0.136216, 0.186031, -18.738144, -72.179321, -652.226929
1733469944.479840, 5.570110, -0.260070, -6.859088, 0.054585, 0.698586, -0.132738, -18.559189, -72.254150, -651.845459
1733469944.489853, 7.079804, 0.483778, -5.334431, 0.028577, 1.020031, -0.314630, -17.674667, -72.122223, -651.296753
1733469944.499863, 9.288305, 1.937208, -4.205116, -0.004395, 1.162396, -0.221612, -17.240463, -72.312103, -650.471069
1733469944.509848, 11.426327, 3.174711, -3.465457, 0.002950, 1.191983, 0.105805, -16.722305, -72.425079, -650.726685
1733469944.519858, 13.391069, 4.214393, -2.839972, 0.073915, 1.061133, 0.678833, -16.597229, -72.622742, -650.319336
1733469944.529843, 15.048455, 5.207239, -2.574814, 0.226344, 0.898549, 1.484265, -16.643265, -73.181198, -650.250977
1733469944.539875, 15.850962, 5.984008, -2.740164, 0.421697, 0.839746, 2.454672, -17.128098, -73.949615, -649.897705
1733469944.549843, 15.548394, 6.391471, -2.952500, 0.563689, 0.988539, 3.435010, -18.054504, -74.853317, -649.637939
1733469944.559846, 14.302811, 6.368876, -2.930652, 0.600185, 1.315312, 4.323630, -19.055069, -75.964355, -648.807739
1733469944.569844, 12.993781, 6.362292, -2.505682, 0.550383, 1.646237, 5.163115, -20.236771, -77.114014, -648.514160
1733469944.579250, 11.054777, 6.395661, -1.887080, 0.429631, 1.957349, 5.908616, -21.445694, -78.364426, -647.704712
1733469944.589851, 7.997531, 6.500706, -1.109114, 0.257621, 2.297581, 6.515243, -23.288925, -79.130905, -647.610535
1733469944.599844, 4.430769, 6.532879, -0.138116, -0.013721, 2.706567, 6.988716, -24.898636, -80.073547, -646.520874
1733469944.609843, 0.415095, 5.854571, 1.159841, -0.508272, 3.258107, 7.255074, -26.380600, -80.439774, -646.712830
1733469944.619871, -4.309862, 3.716998, 2.866308, -1.398380, 3.817136, 7.148755, -27.625748, -80.266830, -647.633972
1733469944.629847, -9.910349, 0.451457, 4.714183, -2.713594, 4.249918, 6.512700, -28.892654, -79.432251, -648.586670
1733469944.639838, -16.197223, -2.706795, 4.909460, -4.219391, 4.925746, 5.269577, -28.227280, -77.920517, -650.299011
1733469944.649838, -21.494544, -3.873369, 2.700510, -5.425522, 5.439650, 3.678766, -27.525528, -76.204056, -651.924011
1733469944.659857, -24.208072, -4.380940, -0.736666, -5.764716, 4.658645, 2.019654, -26.290436, -74.590836, -653.669312
1733469944.669848, -24.468142, -5.530007, -6.035034, -4.914584, 2.656423, 0.570500, -25.600037, -72.801971, -655.081421
1733469944.679850, -23.524977, -6.536619, -13.333608, -3.046721, 0.496867, -0.446040, -25.243729, -71.795898, -655.369873
1733469944.689840, -21.594801, -9.648932, -20.603452, -1.024969, -0.777536, -1.081594, -24.883820, -71.186478, -655.313110
1733469944.699853, -20.176087, -12.161198, -24.134899, 0.399957, -1.028342, -1.640180, -24.815582, -71.534576, -654.847046
1733469944.709848, -19.752014, -13.662961, -23.750630, 1.194634, -0.401514, -2.317483, -24.469574, -71.994583, -654.793579
1733469944.719842, -17.857901, -15.491083, -22.229564, 1.711447, 0.638416, -3.006491, -23.857117, -72.336273, -654.769043
1733469944.729839, -14.524275, -15.330522, -19.407548, 2.299798, 1.352058, -3.653887, -22.893158, -73.182785, -653.717896
1733469944.739846, -10.639683, -14.916325, -15.206323, 2.987447, 1.469476, -4.300701, -21.881439, -73.809586, -652.848511
1733469944.749847, -6.688801, -14.494048, -9.742605, 3.580804, 0.972642, -5.105917, -20.670044, -74.538727, -651.390503
1733469944.759837, -2.457798, -13.469779, -4.302231, 4.031545, 0.265011, -5.970791, -18.505264, -74.532211, -649.842285
1733469944.769861, 4.373159, -11.476157, 0.366762, 4.080087, -0.472229, -6.367161, -16.162659, -74.283554, -648.347595
1733469944.779854, 12.281207, -7.956680, 4.543746, 3.660335, -1.086937, -6.030165, -14.344360, -73.848679, -647.255249
1733469944.789846, 17.863438, -4.797382, 6.569240, 2.967523, -1.307458, -5.083574, -13.949661, -73.616486, -646.867310
1733469944.799851, 20.560656, -3.354277, 7.498340, 2.067162, -1.326873, -3.931940, -13.964905, -73.321548, -646.268799
1733469944.809836, 20.718374, -6.287772, 7.633014, 1.159351, -1.456878, -3.171747, -13.267899, -72.545456, -647.019409
1733469944.819843, 19.705327, -10.110414, 4.129100, 0.611885, -1.121694, -2.640788, -12.845291, -72.025085, -647.333191
1733469944.829843, 18.276887, -10.028563, 0.674117, 0.220131, -0.479154, -2.244527, -12.175171, -71.403885, -647.476685
1733469944.839850, 16.640749, -9.254637, -0.143951, -0.118556, 0.459245, -2.069762, -11.186493, -70.955505, -647.058838
1733469944.849849, 16.711977, -7.918373, -0.119710, -0.436740, 1.363384, -1.848951, -10.641006, -70.343552, -646.501526
1733469944.859842, 17.473033, -5.592107, 2.054973, -0.631691, 1.613586, -1.526966, -9.991425, -69.883606, -646.415649
1733469944.869833, 17.890822, -4.816086, 3.933673, -0.631529, 1.242812, -1.263245, -9.201294, -69.426346, -646.207642
1733469944.879832, 17.186627, -4.844817, 4.812645, -0.508575, 0.424989, -1.115773, -9.107925, -68.929962, -646.460144
1733469944.889840, 15.458313, -4.466682, 4.830152, -0.338854, -0.502150, -1.100659, -9.018356, -68.359650, -647.089294
1733469944.899839, 13.267169, -4.199879, 3.805584, -0.199127, -1.189500, -1.298499, -8.470337, -67.906113, -646.624207
1733469944.909835, 11.495460, -3.901950, 2.083404, -0.113296, -1.426829, -1.551261, -8.481247, -67.110138, -647.381897
1733469944.919848, 10.851270, -2.737919, 0.344316, -0.148764, -1.053974, -1.763707, -8.481247, -67.110138, -647.381897
1733469944.929833, 10.890475, -1.208773, -0.329652, -0.312986, -0.450318, -2.076857, -8.514847, -66.487793, -647.872803
1733469944.939829, 11.425280, -0.361076, -0.050727, -0.450380, 0.032056, -2.474685, -7.734329, -65.681381, -647.792847
1733469944.949828, 12.567913, 0.673220, 0.033968, -0.402402, 0.236010, -2.774900, -7.024384, -64.793655, -648.270874
1733469944.959833, 13.913155, 3.007267, 0.332644, -0.140428, 0.004443, -2.871303, -6.490204, -63.862930, -648.050659
1733469944.969883, 16.225205, 5.193023, 0.897077, 0.354538, -0.852498, -2.568829, -5.538025, -62.811035, -647.802002
1733469944.979831, 18.931850, 7.226898, 1.553238, 0.921940, -2.002678, -1.870840, -5.341904, -62.477722, -648.129883
1733469944.989843, 20.556615, 8.557026, 0.901118, 1.292871, -2.783498, -0.977826, -5.386765, -62.332718, -648.396362
1733469944.999844, 21.513099, 9.576358, -0.704643, 1.441491, -2.995440, 0.164876, -5.857956, -62.845917, -648.954712
1733469945.009888, 22.262783, 10.886734, -2.789843, 1.497103, -2.566368, 1.528345, -6.951660, -63.701492, -648.591858
1733469945.019831, 21.998673, 12.095058, -5.108029, 1.563626, -1.508827, 2.993237, -7.844879, -65.051743, -648.873474
1733469945.029835, 20.431818, 13.005154, -5.744887, 1.579554, -0.318724, 4.400896, -8.774109, -66.985016, -648.881348
1733469945.039894, 18.028189, 13.495516, -3.735553, 1.396838, 0.528857, 5.731021, -10.277267, -69.065765, -648.561462
1733469945.049840, 14.857069, 13.549386, -0.218621, 0.926345, 0.827058, 6.836742, -11.977341, -71.190613, -647.882080
1733469945.059839, 11.515661, 12.876465, 2.729390, 0.357128, 0.648883, 7.729972, -13.575500, -72.991226, -647.557495
1733469945.069898, 8.152556, 12.713360, 3.568408, -0.101515, 0.481340, 8.580763, -16.255142, -75.025940, -647.174133
1733469945.079833, 3.868880, 12.597391, 2.491017, -0.509012, 0.649562, 9.184993, -18.529343, -76.452225, -646.954651
1733469945.089835, -1.221941, 12.070667, 1.285387, -0.841497, 1.200887, 9.646874, -21.417725, -77.484680, -647.752075
1733469945.099841, -9.392453, 9.974094, 1.182885, -1.563051, 2.059100, 9.441315, -25.361130, -78.109467, -648.030945
1733469945.109895, -16.711079, 4.072986, 2.715025, -2.812425, 2.729529, 8.385657, -27.481628, -77.992188, -648.623291
1733469945.119825, -19.612103, -1.176152, 0.342820, -3.611783, 3.431335, 7.065046, -29.066254, -77.365753, -650.710449
1733469945.129822, -19.765631, -4.761169, -3.706523, -3.715470, 3.414292, 5.769339, -30.006088, -76.506393, -651.766357
1733469945.139826, -17.848025, -7.205200, -6.546047, -3.119088, 2.631382, 4.704086, -30.952484, -75.623505, -652.881836
1733469945.149885, -15.679028, -9.532364, -9.736620, -1.897372, 1.618733, 3.847339, -31.639435, -74.860611, -653.280334
1733469945.159160, -13.351864, -11.094431, -12.666524, -0.450694, 1.054535, 3.335135, -32.196228, -74.776077, -653.130615
1733469945.169119, -12.417377, -11.398794, -13.028198, 0.542701, 1.067810, 2.977067, -32.863251, -74.861404, -653.096680
1733469945.179837, -14.342016, -12.894422, -8.288577, 0.557461, 1.279346, 2.401216, -33.233612, -74.886322, -652.571899
1733469945.189824, -15.215301, -15.347880, -2.516605, -0.246617, 1.475881, 1.791874, -33.085037, -74.657227, -652.648132
1733469945.199829, -14.873978, -16.568474, -0.847847, -1.238374, 1.943464, 1.306017, -32.826874, -73.955536, -652.957031
1733469945.209824, -14.273632, -17.296760, -3.588759, -2.081891, 2.764439, 0.906274, -31.816376, -73.362656, -652.833557
1733469945.219823, -12.835315, -18.232145, -8.485200, -2.521331, 3.817411, 0.522519, -31.219284, -72.381470, -654.554932
1733469945.229831, -10.637438, -19.636943, -13.095086, -2.381686, 4.548045, 0.093857, -29.562958, -71.710983, -655.354736
1733469945.239826, -8.415918, -20.453814, -15.932813, -1.613016, 4.663276, -0.281101, -28.273636, -71.210968, -655.605347
1733469945.249841, -7.560739, -20.230854, -16.258575, -0.479842, 4.004248, -0.708148, -26.713959, -71.173141, -655.581543
1733469945.259842, -8.072350, -20.229059, -14.420277, 0.839751, 2.668693, -1.311809, -25.871857, -71.473114, -655.102722
1733469945.269823, -8.962095, -20.521900, -11.992706, 2.131753, 0.902106, -2.156053, -24.722778, -72.066803, -654.210632
1733469945.279824, -9.613318, -20.458453, -10.520272, 3.249213, -0.608818, -3.059780, -23.419083, -72.918213, -652.796509
1733469945.289829, -8.888773, -18.773983, -9.853337, 3.987341, -1.510467, -3.759288, -22.709091, -73.831863, -651.430603
1733469945.299826, -7.595754, -17.109713, -8.062324, 4.258192, -2.024233, -4.307712, -21.528809, -74.476044, -650.359253
1733469945.309830, -6.177639, -16.020501, -6.863278, 4.252506, -2.081337, -4.694072, -20.518814, -75.211273, -648.526001
1733469945.319828, -2.947562, -13.986776, -7.090727, 4.111372, -1.482504, -4.660669, -19.275574, -75.728699, -647.861694
1733469945.329815, 1.507300, -11.912650, -5.455488, 3.724868, -0.801497, -4.271445, -18.347595, -76.288925, -646.468018
1733469945.339819, 4.352958, -10.423007, -2.560898, 3.249150, -0.330467, -3.792923, -17.420578, -76.593323, -645.346558
1733469945.349871, 4.911854, -9.234286, -0.146495, 2.799195, -0.127373, -3.451991, -16.623856, -76.871948, -644.540405
1733469945.359816, 5.192724, -7.917475, 1.955913, 2.378082, -0.203355, -3.213538, -15.490814, -76.946686, -643.749329
1733469945.369817, 5.383362, -6.476465, 3.608511, 1.960002, -0.465213, -3.076692, -14.659714, -76.716568, -643.202209
1733469945.379834, 5.017349, -5.206192, 4.355801, 1.541417, -0.680695, -3.003712, -13.406845, -76.333160, -642.760864
1733469945.389111, 4.958841, -3.763984, 4.331560, 1.062792, -0.694308, -2.885996, -12.578842, -75.811768, -642.484253
1733469945.399826, 5.289390, -1.775301, 4.306271, 0.473790, -0.463763, -2.647471, -11.671875, -75.142914, -642.135498
1733469945.409828, 5.752069, 0.193182, 4.553921, -0.230023, -0.121848, -2.346814, -10.828415, -74.539291, -641.978516
1733469945.419619, 6.086958, 1.708562, 5.093365, -0.983274, 0.185990, -2.037284, -10.397141, -73.526352, -642.905151
1733469945.429822, 6.459556, 3.138349, 4.699219, -1.600848, 0.438789, -1.780711, -10.432678, -72.722351, -643.178772
1733469945.439815, 6.727108, 4.168305, 3.844489, -1.898812, 0.539728, -1.739667, -10.007370, -71.796509, -643.921265
1733469945.449810, 6.875848, 4.335301, 2.839523, -1.794168, 0.453623, -1.865293, -9.764420, -70.876755, -644.172302
1733469945.459864, 7.870040, 4.516213, 1.804779, -1.359624, 0.388343, -2.017685, -9.243439, -70.233109, -644.429199
1733469945.469810, 9.681852, 4.726603, 1.537526, -0.731600, 0.158994, -2.164694, -9.052414, -69.477112, -645.088257
1733469945.479806, 12.509853, 4.815039, 3.034052, -0.078290, -0.510483, -2.144528, -9.012451, -68.769867, -645.491821
1733469945.489811, 15.776143, 5.084387, 4.924873, 0.516135, -1.471657, -1.959567, -8.730713, -68.348511, -645.660767
1733469945.499861, 18.915689, 4.995651, 5.673510, 1.000899, -2.310016, -1.532398, -8.919678, -68.385895, -645.827820
1733469945.509820, 21.658996, 4.827758, 5.806538, 1.173199, -2.769169, -0.796873, -9.611633, -68.401688, -645.991211
1733469945.519810, 23.438486, 4.688894, 5.951387, 0.959148, -2.835117, 0.223776, -10.288467, -68.581604, -646.607910
1733469945.529824, 24.232164, 4.201974, 5.421071, 0.442402, -2.441117, 1.419063, -11.664185, -69.116547, -647.496704
1733469945.539812, 23.716064, 3.222745, 4.375703, -0.220496, -1.745079, 2.537818, -13.002014, -69.874924, -648.185547
1733469945.549829, 21.787534, 1.496975, 3.288436, -0.810144, -1.053395, 3.395653, -14.553360, -70.523163, -649.056641
1733469945.559815, 19.616442, -0.363769, 1.653196, -1.150804, -0.525889, 4.039678, -16.067886, -71.305038, -649.500916
1733469945.569820, 17.526454, -1.299752, 0.000748, -1.188065, -0.243848, 4.508325, -17.336456, -72.026093, -650.000916
1733469945.579827, 15.683966, -2.488623, -1.257704, -0.963548, -0.196672, 4.870185, -18.287399, -72.756454, -650.408325
1733469945.589807, 14.109629, -3.766977, -1.810465, -0.763187, 0.082260, 5.845099, -19.258362, -73.401794, -650.285034
1733469945.599831, 11.207857, -3.872771, -2.217480, -0.763187, 0.082260, 5.845099, -20.952393, -73.930267, -650.242188
1733469945.609809, -3.751714, -4.646547, 0.027384, -1.789614, 0.730549, 5.435435, -22.276306, -74.436966, -651.177307
1733469945.619812, -11.218780, -7.687931, -0.056713, -2.491057, 0.916207, 4.291276, -23.822433, -74.207077, -651.504883
1733469945.629343, -11.218780, -7.687931, -0.056713, -2.491057, 0.916207, 4.291276, -23.820328, -73.290192, -652.273743
1733469945.639939, -15.397709, -10.814908, -7.449409, -2.940907, 1.731099, 2.403538, -23.130142, -72.459641, -652.826172
1733469945.649811, -13.614179, -10.643723, -9.872191, -2.898128, 2.005122, 2.139963, -22.789276, -71.612625, -653.561646
1733469945.659809, -13.337798, -11.884368, -11.838429, -2.704609, 1.940170, 1.961031, -22.819580, -70.540543, -653.956909
1733469945.669811, -13.627197, -14.009072, -13.660417, -2.411606, 1.780389, 1.671494, -23.066620, -69.895309, -654.616943
1733469945.679814, -14.443022, -16.452206, -16.027235, -1.985402, 1.870746, 1.011320, -23.714661, -69.495163, -655.273682
1733469945.689820, -13.612832, -19.857060, -18.710686, -1.249602, 2.010676, 0.133502, -23.501602, -69.121994, -655.948853
1733469945.699815, -10.251223, -21.137060, -20.138528, -0.044139, 1.838098, -0.621043, -22.803162, -69.161133, -656.277344
1733469945.709811, -6.912359, -20.015227, -18.618808, 1.496975, 1.079750, -1.269202, -22.631317, -69.454590, -656.151489
1733469945.719811, -4.149900, -18.637962, -14.835371, 2.940736, -0.009375, -1.764513, -21.905792, -70.267883, -655.102112
1733469945.729816, -2.107346, -16.655713, -9.978135, 3.837073, -0.947467, -2.067768, -21.365768, -71.354416, -653.959778
1733469945.739804, -0.349105, -15.451878, -5.283255, 4.050599, -1.624534, -2.275016, -21.522079, -72.427567, -652.458984
1733469945.749820, 1.307084, -15.177443, -1.764976, 3.839382, -2.192030, -2.405095, -21.177551, -73.441116, -651.541748
1733469945.759811, 2.164807, -13.602208, 0.026635, 3.500304, -2.569196, -2.484907, -21.448044, -74.203842, -650.743408
1733469945.769815, 2.711583, -12.343456, 0.265008, 3.056234, -2.582622, -2.523399, -21.221939, -74.844650, -650.043213
1733469945.779812, 3.824139, -11.684901, -0.683545, 2.496860, -2.099696, -2.429146, -20.857666, -75.366501, -649.212830
1733469945.789808, 4.559907, -10.273968, -1.504756, 1.934094, -1.349747, -2.247190, -20.475922, -75.680161, -648.742493
1733469945.799807, 4.732289, -9.104550, -1.586757, 1.444651, -0.574884, -2.051290, -20.072021, -75.918060, -648.131104
1733469945.809804, 4.832995, -8.353669, -1.325191, 1.031134, 0.144206, -1.868659, -19.472595, -75.934967, -647.677002
1733469945.819816, 4.697274, -7.683891, -0.842909, 0.727407, 0.679109, -1.749994, -18.959244, -76.040939, -647.386841
1733469945.829801, 4.355651, -7.024588, 0.014814, 0.550645, 0.939083, -1.699482, -17.926941, -75.863678, -646.898071
1733469945.839684, 4.273500, -6.146664, 0.767491, 0.447066, 1.045856, -1.664342, -16.986740, -75.795441, -646.854553
1733469945.849818, 4.408025, -5.137657, 1.310077, 0.358837, 1.050273, -1.652921, -16.018509, -75.615768, -646.353882
1733469945.859806, 4.593426, -4.128053, 1.967585, 0.282398, 0.906099, -1.638831, -15.281754, -75.346436, -645.860352
1733469945.869812, 4.732588, -2.966117, 2.417096, 0.208609, 0.704700, -1.592910, -14.233643, -74.944611, -645.709839
1733469945.879809, 4.609586, -1.975366, 2.364125, 0.121549, 0.547970, -1.549649, -13.688751, -74.852768, -645.374878
1733469945.889800, 4.417751, -1.232864, 1.949928, 0.022499, 0.525415, -1.553395, -12.926117, -74.160782, -645.140015
1733469945.899800, 4.340987, -0.823156, 1.300500, -0.066557, 0.640616, -1.635792, -12.389099, -73.912735, -644.545776
1733469945.909802, 4.558261, -0.645537, 0.637755, -0.115898, 0.848606, -1.758676, -11.707962, -73.389023, -645.041504
1733469945.919807, 5.329942, -0.452205, 0.002993, -0.090590, 1.121825, -1.845937, -10.917496, -72.921692, -644.891418
1733469945.929798, 6.715287, 0.031723, -0.110732, 0.063435, 1.248729, -1.884108, -10.205566, -72.492142, -644.381653
1733469945.939797, 8.084620, 0.569221, 0.300023, 0.381944, 1.187312, -1.865484, -8.928360, -72.170349, -644.214600
1733469945.949798, 9.787347, 1.110012, 0.948253, 0.816814, 0.872630, -1.697015, -8.461716, -72.060776, -643.638062
1733469945.959796, 11.548881, 1.255310, 2.186804, 1.257869, 0.240027, -1.429530, -8.135223, -71.839767, -643.013428
1733469945.969792, 12.827534, 0.899771, 3.434183, 1.626230, -0.525817, -1.129184, -7.949631, -71.943054, -642.759399
1733469945.979800, 13.659519, 0.530914, 4.065055, 1.823711, -1.066158, -0.772495, -7.948746, -71.984482, -642.242126
1733469945.989799, 14.248044, 0.103998, 4.262128, 1.735458, -1.191002, -0.374017, -7.879395, -72.238495, -642.312561
1733469945.999812, 14.980370, -0.290896, 4.769848, 1.349364, -1.042971, 0.138734, -8.205505, -72.712112, -641.455444
1733469946.009790, 15.919496, -0.442628, 5.566818, 0.740710, -0.830879, 0.725488, -9.102707, -73.016693, -641.972717
1733469946.019799, 16.639851, -0.926706, 5.853973, 0.104064, -0.606024, 1.294096, -9.841293, -73.579788, -642.178040
1733469946.029792, 17.354221, -2.275988, 5.281609, -0.347878, -0.441125, 1.845361, -10.454666, -73.994293, -642.418518
1733469946.039847, 17.709910, -3.388992, 4.288015, -0.568249, -0.305742, 2.433071, -11.162781, -74.472610, -642.672607
1733469946.049793, 17.613393, -3.506608, 3.965845, -0.713123, -0.399475, 3.151388, -11.732025, -75.212799, -643.397034
1733469946.059805, 15.967829, -2.890550, 4.739921, -0.884108, -0.743512, 3.927042, -12.979019, -75.944946, -643.600464
1733469946.069792, 12.244546, -2.607884, 5.519084, -1.173131, -1.081471, 4.608336, -14.527618, -76.662277, -644.344849
1733469946.079854, 6.869413, -4.076428, 5.969493, -1.667476, -1.336652, 4.975060, -16.208328, -77.075073, -645.386658
1733469946.089810, 0.410905, -6.359748, 5.673959, -2.390105, -1.369261, 4.915355, -18.273621, -77.057022, -646.204712
1733469946.099793, -6.376358, -7.883208, 4.344279, -3.271201, -1.253729, 4.388999, -20.104126, -76.563660, -647.085083
1733469946.109796, -12.758551, -9.298481, 1.366042, -3.897759, -1.088121, 3.418329, -21.448456, -75.800186, -649.569580
1733469946.119847, -17.698088, -11.371859, -4.547337, -3.930033, -0.848647, 2.162780, -22.237045, -74.662262, -651.405640
1733469946.129793, -21.259314, -13.339594, -11.477653, -3.237763, -0.434149, 0.646732, -22.697174, -73.608994, -652.308594
1733469946.139793, -21.320964, -14.990546, -18.950555, -1.746193, 0.480554, -0.833678, -22.863907, -73.166321, -652.878906
1733469946.149791, -17.209522, -16.746992, -23.752875, 0.235365, 1.451811, -2.125001, -21.471085, -73.253860, -652.531616
1733469946.159851, -11.180922, -16.913987, -22.468385, 2.302952, 1.662605, -3.009478, -20.260910, -73.829758, -651.464172
1733469946.169792, -6.550087, -14.669722, -17.064074, 4.205906, 1.237222, -3.568076, -18.972061, -74.837021, -649.670715
1733469946.179791, -4.306570, -12.196512, -8.914062, 5.589744, 0.097229, -4.110611, -17.867172, -75.848862, -648.012817
1733469946.189807, -2.582146, -11.495460, 0.883311, 6.088003, -1.784504, -4.699278, -16.613434, -76.673096, -645.956787
1733469946.199817, -0.238373, -10.913070, 8.330325, 5.696414, -3.900913, -5.151944, -15.612381, -76.906479, -644.242065
1733469946.209797, 1.955464, -9.108890, 10.964546, 4.699982, -5.199914, -5.317008, -14.802216, -76.775665, -644.118713
1733469946.219064, 4.477905, -8.065916, 9.039907, 3.311481, -5.125999, -5.134417, -13.923355, -76.184967, -643.827393
1733469946.229788, 7.318027, -7.141455, 5.877167, 1.838994, -4.021806, -4.567158, -13.481415, -75.799347, -644.017029
1733469946.239782, 9.923367, -5.512799, 4.045303, 0.461824, -2.571995, -3.828504, -13.261978, -74.863083, -644.814087
1733469946.249792, 11.995100, -4.225916, 3.427898, -0.698654, -1.352286, -3.071324, -12.965790, -73.971756, -645.422791
1733469946.259793, 13.674632, -3.900454, 3.100192, -1.572893, -0.588965, -2.380653, -12.760544, -72.888672, -646.061646
1733469946.269796, 14.373590, -3.579631, 2.661305, -2.165104, -0.265385, -1.762285, -12.306534, -71.845306, -647.315857
1733469946.279794, 13.916596, -2.894590, 1.918354, -2.449845, -0.283159, -1.256223, -12.324219, -70.899902, -648.042053
1733469946.289788, 12.683732, -2.686893, 0.701501, -2.460449, -0.504236, -0.893145, -11.944321, -70.046432, -648.582397
1733469946.299792, 11.063456, -2.584840, -0.715268, -2.269999, -0.749433, -0.660512, -12.142548, -69.026062, -649.186768
1733469946.309794, 9.320777, -2.233042, -1.866879, -1.978620, -0.916361, -0.600865, -12.538376, -68.235977, -650.674744
1733469946.319790, 7.855825, -2.133383, -2.717868, -1.674267, -0.942223, -0.703542, -12.490204, -67.297409, -651.021240
1733469946.329795, 6.834099, -2.318784, -3.182642, -1.455927, -0.887952, -0.976543, -12.746933, -66.461700, -651.989075
1733469946.339791, 6.384887, -2.355296, -3.250428, -1.360623, -0.805625, -1.358835, -12.517334, -65.496155, -652.633545
1733469946.349787, 6.547543, -1.438766, -3.385102, -1.317297, -0.716925, -1.702042, -12.137787, -64.588074, -652.743408
1733469946.359783, 7.086837, 0.049231, -3.944447, -1.218909, -0.533983, -1.910412, -11.781418, -63.582916, -653.203918
1733469946.369790, 8.432827, 1.493982, -4.846313, -1.045521, -0.218295, -1.928376, -11.469193, -62.777588, -653.653931
1733469946.379785, 10.318560, 2.776226, -5.369895, -0.840963, 0.122885, -1.822208, -11.202850, -61.970123, -653.682861
1733469946.389794, 12.862699, 3.622128, -5.174917, -0.634306, 0.183738, -1.514783, -11.008286, -61.427383, -653.658386
1733469946.399805, 16.060305, 4.476858, -4.141520, -0.360964, -0.291556, -0.870974, -10.919861, -61.389771, -653.336365
1733469946.409780, 18.675970, 5.324405, -3.548955, -0.011217, -0.994010, 0.028902, -10.919861, -61.389771, -653.336365
1733469946.419789, 19.504364, 5.349694, -4.365378, 0.305329, -1.326170, 0.845004, -11.968369, -61.428040, -654.270935
1733469946.429807, 19.183541, 4.847061, -5.250634, 0.434579, -1.249281, 1.602199, -12.682480, -61.887482, -654.629395
1733469946.439779, 19.576938, 4.585046, -5.251831, 0.346384, -0.997368, 2.397812, -13.287613, -62.521255, -654.646851
1733469946.449502, 19.737948, 4.286519, -5.829582, 0.232979, -0.535382, 3.135448, -14.627045, -63.508301, -654.844116
1733469946.459783, 19.540726, 3.774758, -6.830208, 0.273875, 0.000980, 3.861809, -15.508591, -64.140762, -654.951355
1733469946.469783, 19.522021, 3.119794, -7.060501, 0.493762, 0.278074, 4.686918, -16.134277, -65.591934, -654.958252
1733469946.479785, 19.366099, 2.257583, -6.304232, 0.806991, 0.236684, 5.584569, -17.469254, -66.884201, -654.495483
1733469946.489791, 18.318037, 0.703895, -5.038747, 0.994026, 0.033517, 6.499324, -18.830338, -68.418671, -654.614868
1733469946.499802, 15.378406, 0.124050, -3.483264, 1.005022, 0.013977, 7.512841, -19.451309, -69.782440, -653.861206
1733469946.509799, 8.314165, 0.355389, -1.292719, 0.578830, 0.598333, 8.358217, -21.564026, -71.382812, -652.930542
1733469946.519785, -1.095347, -3.488501, 3.782240, -0.953238, 1.012879, 8.458983, -23.503601, -72.243439, -653.605835
1733469946.529787, -10.810419, -8.309376, 10.383802, -3.236352, 1.112634, 8.038702, -24.564117, -72.187424, -653.814514
1733469946.539779, -20.307918, -8.932168, 10.925790, -5.381384, 1.455721, 7.203576, -26.124298, -71.045013, -655.308594
1733469946.549784, -26.060586, -10.306440, 5.367351, -6.921195, 1.785239, 5.963464, -27.601944, -68.972900, -657.235962
1733469946.559785, -29.296200, -13.267618, -4.790049, -7.347267, 2.096909, 4.152375, -29.091095, -66.269699, -660.145813
1733469946.569787, -31.797991, -17.746421, -16.951546, -6.414718, 2.129111, 1.747709, -29.969162, -63.609604, -662.059570
1733469946.579781, -29.609541, -21.409550, -28.878112, -4.179261, 2.201720, -0.762859, -29.379364, -61.299698, -662.813232
1733469946.589787, -23.847895, -21.250934, -37.055358, -0.969986, 2.355601, -2.845116, -28.432648, -60.214203, -663.346436
1733469946.599787, -16.635811, -18.953548, -37.832277, 2.551760, 2.204632, -4.420967, -27.203476, -60.826523, -663.008484
1733469946.609785, -9.902268, -14.383915, -30.721348, 5.579237, 1.402839, -5.578762, -25.325699, -62.520340, -660.782654
1733469946.619782, -4.895993, -8.128015, -20.032734, 7.622994, 0.306068, -6.395888, -23.601074, -64.715958, -659.695435
1733469946.629800, -0.929848, -2.847604, -10.184036, 8.623170, -0.762637, -6.880782, -21.419571, -67.175339, -657.550049
1733469946.639771, 2.731485, 0.259322, -1.916110, 8.610802, -1.917618, -7.066617, -20.137375, -69.360519, -655.103699
1733469946.649835, 6.359000, 0.896629, 4.633977, 7.728638, -3.305634, -7.025793, -18.621613, -70.987396, -653.009888
1733469946.659780, 9.263914, 0.429310, 8.231864, 6.331462, -4.499254, -6.712428, -17.699265, -72.009583, -651.563660
1733469946.669778, 11.092336, -0.171335, 8.305186, 4.791765, -5.159380, -6.144910, -17.266663, -72.584244, -650.852356
1733469946.679784, 11.333851, -0.708684, 6.410325, 3.355936, -5.238529, -5.465356, -17.225143, -72.640869, -650.455139
1733469946.689781, 10.962451, -1.186477, 3.452439, 2.042657, -4.517890, -4.688015, -17.073273, -72.500290, -650.578125
1733469946.699787, 11.053879, -0.803853, 0.761955, 0.789566, -3.139839, -3.896091, -17.220551, -71.825760, -650.962402
1733469946.709772, 11.384429, 0.052523, -0.683694, -0.405769, -1.466571, -3.162139, -16.740295, -71.342407, -650.967712
1733469946.719782, 11.829002, 1.096844, -0.957381, -1.449387, 0.041025, -2.453909, -16.321793, -70.538193, -652.148315
1733469946.729779, 12.241403, 2.303671, -0.623390, -2.257090, 1.115541, -1.782079, -15.568008, -69.354095, -652.605713
1733469946.739779, 12.712014, 3.234566, -0.321571, -2.787913, 1.650876, -1.138662, -14.680389, -68.271271, -653.276245
1733469946.749786, 12.754960, 3.744831, -0.414347, -3.050949, 1.796562, -0.529265, -14.034637, -66.811478, -653.625366
1733469946.759770, 12.102989, 3.661782, -1.037886, -3.099968, 1.708815, -0.045088, -13.167267, -65.720474, -654.228882
1733469946.769826, 10.943746, 3.172766, -1.920748, -2.997679, 1.580898, 0.245455, -13.191360, -64.649307, -654.206360
1733469946.779785, 9.783755, 2.941875, -2.890101, -2.789562, 1.517112, 0.362735, -12.722610, -63.659958, -654.560791
1733469946.789774, 8.945486, 2.993800, -3.732411, -2.496352, 1.580741, 0.336617, -12.280304, -62.685272, -654.995667
1733469946.799793, 8.535628, 3.040038, -4.431817, -2.143537, 1.773513, 0.180560, -11.955841, -61.966797, -654.895386
1733469946.809779, 8.835951, 3.321805, -4.655375, -1.734721, 1.923308, 0.004747, -11.358734, -61.413315, -654.211914
1733469946.819787, 9.964967, 3.697396, -4.305373, -1.219675, 1.819592, -0.104183, -10.752182, -60.878571, -654.496643
1733469946.829780, 12.001684, 4.231303, -3.604321, -0.533780, 1.292767, -0.008322, -10.073868, -60.555695, -653.980042
1733469946.839840, 14.506169, 5.413290, -2.290952, 0.265210, 0.256613, 0.390508, -9.726135, -60.853149, -654.110535
1733469946.849774, 16.466571, 6.239589, -0.997335, 0.988530, -0.939139, 1.021003, -10.293442, -61.448807, -653.609375
1733469946.859769, 17.122133, 6.536769, -0.846949, 1.460251, -1.626422, 1.767291, -11.078033, -62.316681, -653.626221
1733469946.869768, 16.680104, 6.804022, -1.608006, 1.632611, -1.578179, 2.522586, -12.409073, -63.385773, -653.936157
1733469946.879829, 16.390705, 6.775142, -1.884237, 1.488071, -1.037700, 3.298424, -13.358658, -64.670578, -653.597046
1733469946.889771, 16.504280, 6.299294, -1.877802, 1.150205, -0.341565, 4.117931, -14.630692, -66.195801, -653.840576
1733469946.899765, 16.607081, 5.604228, -2.107945, 0.826430, 0.309206, 4.940729, -15.664810, -67.764069, -653.433838
1733469946.909769, 17.016040, 4.922928, -2.692429, 0.715615, 0.721172, 5.872057, -16.910706, -69.454727, -652.314331
1733469946.919769, 16.851588, 4.586093, -3.017293, 0.871943, 0.859952, 6.900926, -18.340683, -71.206482, -652.694824
1733469946.929764, 15.546898, 4.474913, -2.835333, 1.071658, 0.944602, 8.004280, -19.598618, -72.752762, -651.999023
1733469946.939771, 10.802638, 4.226813, -1.468693, 0.863504, 1.383243, 9.003477, -21.762009, -74.232437, -651.716248
1733469946.949225, 1.995268, 1.515530, 1.824980, -0.318947, 1.887036, 9.349024, -24.814590, -75.077148, -651.753784
1733469946.959772, -7.447464, -5.314379, 6.253206, -2.485711, 2.036966, 8.757362, -26.142731, -74.954712, -652.341309
1733469946.969763, -16.474053, -10.119243, 5.339219, -4.471698, 2.567461, 7.559952, -27.626663, -74.001068, -654.157837
1733469946.979762, -23.794025, -12.393435, -1.500117, -5.543130, 2.712527, 5.897785, -28.758789, -71.990631, -655.654968
1733469946.989766, -27.310209, -17.284191, -9.793332, -5.323593, 2.113491, 4.038207, -28.925125, -70.350250, -657.334229
1733469946.999790, -29.131299, -21.176564, -20.040066, -3.710254, 1.445414, 2.136924, -29.241455, -69.081848, -658.177917
1733469947.009771, -30.677654, -22.293010, -27.497107, -1.320596, 0.950076, 0.075294, -29.275436, -68.882874, -657.893921
1733469947.019767, -29.396607, -21.459080, -29.001863, 1.069865, 0.451810, -1.888666, -28.887680, -69.081177, -658.713318
1733469947.029767, -23.167941, -20.967969, -26.792014, 3.040863, 0.102296, -3.456610, -28.149994, -70.152710, -657.515503
1733469947.039767, -14.900314, -19.612851, -22.186019, 4.473478, -0.089118, -4.499046, -26.972565, -71.657608, -655.927429
1733469947.049761, -8.202984, -15.896452, -15.017630, 5.241522, -0.334770, -5.049893, -25.739777, -73.356354, -654.383850
1733469947.059763, -3.294421, -12.832472, -7.242610, 5.303497, -0.771482, -5.294635, -24.502014, -74.640381, -653.135071
1733469947.069757, -0.260519, -11.656620, -1.379060, 4.890040, -1.214540, -5.495231, -23.138824, -75.669022, -651.352295
1733469947.079765, 1.135001, -10.663774, 2.021454, 4.295582, -1.621893, -5.723903, -21.659378, -76.180496, -649.924866
1733469947.089761, 2.203713, -9.643545, 3.755305, 3.665806, -2.101123, -5.947788, -20.435059, -76.222153, -648.579956
1733469947.099766, 4.223072, -8.060080, 3.851672, 3.154440, -2.581041, -5.952811, -18.743210, -76.143723, -648.205017
1733469947.109761, 7.229442, -5.948095, 2.725649, 2.762431, -2.828572, -5.647426, -17.609497, -75.878265, -647.340027
1733469947.119756, 9.785252, -4.180725, 1.656339, 2.278836, -2.688803, -5.123630, -16.566818, -75.466812, -646.976074
1733469947.129757, 11.306767, -2.684050, 1.394024, 1.616700, -2.285087, -4.503316, -15.737183, -75.166290, -647.002747
1733469947.139754, 12.107328, -1.766771, 1.186028, 0.873379, -1.670513, -3.877276, -14.841141, -74.379135, -646.770203
1733469947.149767, 12.354380, -1.201440, 0.890643, 0.201853, -1.035283, -3.272414, -14.239685, -73.779083, -647.229797
1733469947.159805, 12.009764, -0.579546, 0.614262, -0.342036, -0.462100, -2.717979, -13.473007, -72.820572, -647.312439
1733469947.169751, 11.539154, -0.400430, 0.088735, -0.809102, 0.190655, -2.236245, -12.545670, -72.174881, -647.746216
1733469947.179432, 11.077672, -0.242114, -0.346411, -1.283030, 0.917946, -1.861226, -11.712494, -71.274338, -647.787109
1733469947.189828, 10.582371, 0.260968, -0.008380, -1.775190, 1.549129, -1.578229, -10.667236, -70.274384, -647.941345
1733469947.199102, 10.168923, 0.872836, 0.587926, -2.237206, 1.979083, -1.385402, -9.625931, -69.025818, -647.997498
1733469947.209759, 10.253767, 1.618929, 0.754922, -2.589692, 2.232790, -1.248610, -9.151550, -67.963516, -648.030701
1733469947.219751, 10.684275, 2.224662, 0.456844, -2.743350, 2.291429, -1.129846, -8.186035, -66.905991, -648.707886
1733469947.229748, 11.208006, 2.569278, -0.163404, -2.644982, 2.185972, -1.024987, -7.278610, -65.764771, -648.400574
1733469947.239769, 11.945420, 2.757671, -0.815076, -2.329186, 1.942499, -0.880035, -6.525452, -64.917984, -648.597473
1733469947.249766, 12.728324, 3.132214, -1.374571, -1.871278, 1.654895, -0.696172, -6.232010, -64.283493, -648.781128
1733469947.259756, 13.566594, 3.655497, -1.674744, -1.368610, 1.356538, -0.441636, -5.676468, -63.705185, -648.591858
1733469947.269751, 14.544925, 4.150648, -1.328782, -0.893517, 0.949304, -0.126989, -5.370026, -63.404541, -648.038818
1733469947.279815, 15.680375, 5.133019, -0.207697, -0.425223, 0.271983, 0.327982, -5.530319, -63.621384, -647.776062
1733469947.289529, 17.220595, 5.956474, 0.584933, 0.067002, -0.593079, 0.980778, -5.767532, -64.125748, -648.092041
1733469947.299755, 18.061708, 6.015132, 0.418237, 0.554774, -1.266176, 1.775479, -6.679581, -64.905807, -648.440369
1733469947.309752, 17.555484, 6.050148, -0.427215, 0.947677, -1.508045, 2.612123, -7.409027, -65.858917, -648.533508
1733469947.319815, 16.551715, 5.950339, -0.627879, 1.103646, -1.392050, 3.477185, -9.235947, -67.509186, -648.787598
1733469947.329744, 15.048755, 5.805490, -0.246154, 0.949853, -0.911664, 4.193858, -10.768021, -68.985611, -648.657471
1733469947.339750, 13.278691, 5.534945, 0.423624, 0.509659, -0.294440, 4.728045, -12.228271, -70.461929, -648.064331
1733469947.349750, 12.722937, 4.982034, 1.606509, -0.013525, -0.005881, 5.276422, -14.009247, -71.844406, -648.952271
1733469947.359430, 12.463466, 4.238784, 2.608782, -0.424062, -0.117860, 5.848075, -15.669250, -73.074493, -649.352783
1733469947.369760, 12.176311, 2.953996, 2.660557, -0.724598, -0.451851, 6.493116, -17.785385, -74.098557, -649.334778
1733469947.379761, 11.295694, 2.329109, 2.025195, -1.019546, -0.692455, 7.300143, -20.008301, -74.815201, -649.565369
1733469947.389753, 8.409633, 2.709338, 1.269974, -1.419568, -0.528202, 8.106656, -22.547318, -75.188919, -650.557617
1733469947.399810, 3.611354, 1.545158, 0.497246, -2.110193, 0.077418, 8.692092, -25.398254, -75.253922, -651.302063
1733469947.409744, -3.296816, -2.554763, -0.519691, -3.127397, 0.844883, 8.668345, -27.966125, -74.679810, -652.644775
1733469947.419756, -12.621483, -7.322815, -3.118747, -3.835305, 1.581615, 7.789315, -29.396454, -74.121521, -654.574341
1733469947.429753, -22.885575, -12.634501, -8.564209, -3.656798, 1.978004, 6.064210, -29.944000, -73.108368, -655.619202
1733469947.439757, -29.242480, -18.826356, -15.247024, -2.460584, 2.012102, 4.067653, -30.113754, -72.724854, -655.805420
1733469947.449754, -31.561114, -23.339426, -20.550929, -0.664036, 2.092052, 2.171130, -29.932831, -72.827621, -655.563782
1733469947.459757, -30.374339, -23.700950, -20.386029, 0.880915, 1.864358, 0.387472, -30.156937, -73.372833, -655.183655
1733469947.469752, -27.834989, -23.106291, -16.134675, 2.103464, 1.007800, -1.480296, -29.621948, -74.530945, -654.394287
1733469947.479794, -24.143130, -23.511659, -13.804368, 3.359998, 0.204941, -3.282530, -28.391068, -75.674835, -652.866577
1733469947.489751, -17.046267, -22.242732, -12.624775, 4.530278, -0.438409, -4.625475, -26.846298, -76.984818, -650.781311
1733469947.499760, -9.209446, -17.827974, -8.314314, 5.322023, -1.149425, -5.329303, -25.132843, -78.383133, -648.423340
1733469947.509747, -3.008913, -13.885921, -3.464410, 5.612938, -1.746304, -5.538736, -23.569351, -79.266190, -647.225708
1733469947.518997, 1.396568, -11.968614, 0.215927, 5.462121, -2.028377, -5.440749, -22.161758, -80.256104, -644.984070
1733469947.529752, 4.290260, -10.784981, 2.654870, 5.020331, -1.948091, -5.144974, -20.837585, -80.800766, -643.627930
1733469947.539748, 5.853973, -9.984270, 4.807557, 4.388857, -1.755062, -4.839114, -19.521774, -80.886292, -641.955383
1733469947.549743, 6.684461, -9.323769, 6.642862, 3.631623, -1.559739, -4.540005, -18.093628, -80.785126, -641.005310
1733469947.559807, 7.255030, -8.266729, 7.638850, 2.780934, -1.332277, -4.230014, -16.888031, -80.735336, -640.392334
1733469947.569742, 7.989451, -7.006781, 8.287230, 1.870669, -1.168231, -3.885276, -15.736969, -80.168289, -639.847717
1733469947.579749, 9.357139, -5.383512, 8.963592, 0.931967, -1.031482, -3.456328, -14.996811, -79.628983, -639.924500
1733469947.589764, 10.285640, -3.869030, 9.076119, -0.068935, -0.831523, -3.039818, -13.998688, -78.698669, -640.197937
1733469947.599787, 10.576984, -2.764854, 8.483704, -1.037883, -0.586260, -2.673765, -13.310059, -77.830368, -640.469788
1733469947.609742, 10.469395, -1.847725, 7.139659, -1.850093, -0.337330, -2.377772, -12.489792, -76.475967, -642.515076
1733469947.619741, 10.043377, -1.187674, 5.389049, -2.454586, -0.136272, -2.171447, -11.826202, -75.173004, -643.015808
1733469947.628809, 9.489269, -0.392350, 3.685873, -2.830339, -0.017096, -2.039735, -11.072830, -73.936905, -643.758179
1733469947.639800, 8.955811, 0.503830, 2.302324, -2.989363, -0.024107, -1.929589, -10.494705, -72.607422, -644.970886
1733469947.649759, 8.395118, 1.148469, 1.159691, -2.987070, -0.115105, -1.865565, -10.024551, -71.185287, -646.068542
1733469947.659740, 7.811233, 1.532588, 0.045789, -2.860649, -0.217972, -1.826401, -9.534363, -69.713104, -646.607666
1733469947.669738, 7.395390, 2.068441, -0.813879, -2.646117, -0.333898, -1.783524, -9.152237, -68.537613, -647.507446
1733469947.679740, 7.028628, 2.595015, -1.457321, -2.383240, -0.439272, -1.739669, -8.608749, -67.137146, -648.668579
1733469947.689743, 6.806566, 2.879626, -2.081160, -2.109595, -0.464085, -1.718469, -8.492447, -65.939362, -649.218018
1733469947.699735, 6.640318, 3.019238, -2.652177, -1.865229, -0.380904, -1.702362, -7.910324, -65.032242, -648.952637
1733469947.709738, 6.627449, 3.220052, -3.138200, -1.654225, -0.188853, -1.684547, -7.542709, -63.947128, -650.155273
1733469947.719737, 7.046734, 3.531896, -3.538032, -1.424730, -0.001387, -1.610670, -7.332108, -63.078217, -650.376770
1733469947.729738, 7.906552, 4.068198, -3.744531, -1.107664, 0.145708, -1.443741, -6.878403, -62.711258, -650.985657
1733469947.739749, 9.016115, 4.492719, -3.844489, -0.707376, 0.241046, -1.158648, -7.031113, -62.196503, -650.817017
1733469947.749746, 10.604368, 4.767454, -3.475333, -0.330008, 0.143591, -0.722858, -7.315201, -62.122025, -650.679871
1733469947.759739, 12.334179, 4.971260, -3.050512, -0.007934, -0.069528, -0.237977, -7.401993, -62.247253, -650.714111
1733469947.769756, 13.668797, 4.892102, -3.284845, 0.308791, -0.191681, 0.211121, -7.975937, -62.810059, -650.770569
1733469947.779748, 15.207370, 4.979790, -3.228581, 0.610149, -0.349985, 0.681347, -8.367340, -63.533875, -650.388489
1733469947.789743, 16.999131, 5.308993, -2.484283, 0.908093, -0.624486, 1.205762, -9.721436, -64.182281, -650.654419
1733469947.799739, 19.273772, 5.327099, -1.672649, 1.126932, -1.014045, 1.895739, -10.751694, -65.519043, -649.926147
1733469947.809743, 21.331289, 4.607043, -1.411980, 1.231849, -1.330070, 2.682949, -11.963715, -66.866394, -650.418945
1733469947.819743, 22.425290, 4.155137, -1.895908, 1.312916, -1.337844, 3.540271, -13.367493, -68.385910, -650.429199
1733469947.829743, 23.202059, 3.926790, -2.051681, 1.276827, -1.175231, 4.542341, -15.161758, -70.083755, -650.608337
1733469947.839747, 23.354240, 3.106926, -1.294814, 0.982734, -0.965267, 5.637246, -16.673569, -71.676483, -650.443298
1733469947.849734, 21.938818, 2.399888, -0.570269, 0.534568, -0.677582, 6.762635, -18.376221, -73.169067, -650.372803
1733469947.859732, 18.063503, 2.621800, -0.115221, 0.073498, -0.129156, 7.922791, -20.664169, -74.259567, -650.348755
1733469947.869732, 11.555914, 1.866131, 1.147122, -0.767091, 0.774313, 8.826281, -23.647095, -74.758972, -651.580261
1733469947.879730, 2.545785, -1.451485, 3.825635, -2.360639, 1.630769, 9.031610, -25.715729, -74.208328, -653.026794
1733469947.889730, -7.453748, -7.253084, 6.498462, -4.427695, 1.943986, 8.231934, -27.245926, -72.763535, -654.486328
1733469947.899732, -16.169091, -11.401188, 3.464260, -5.676230, 1.800749, 6.814258, -28.246048, -71.143600, -655.753784
1733469947.909734, -22.702718, -13.508834, -5.154866, -5.574870, 1.262116, 4.964688, -28.246048, -71.143600, -655.753784
1733469947.919734, -26.171467, -16.466571, -14.932037, -4.168244, 0.901584, 2.964373, -28.899185, -69.794098, -657.171021
1733469947.929739, -25.069835, -18.976143, -23.394792, -1.891378, 0.765137, 1.167493, -28.968613, -69.199738, -658.173767
1733469947.939805, -20.757130, -21.235970, -26.091112, 0.534589, 0.445368, -0.288472, -29.372910, -69.639801, -657.662964
1733469947.949746, -15.441553, -22.389975, -23.916129, 2.617701, 0.168423, -1.483157, -28.651962, -70.692520, -657.063782
1733469947.959742, -11.565490, -21.623083, -19.152865, 4.181425, 0.005461, -2.500389, -28.114624, -72.171585, -655.448730
1733469947.969750, -8.974366, -18.232893, -11.736377, 5.085117, -0.270535, -3.297354, -27.084412, -73.840881, -653.797119
1733469947.979744, -6.409128, -15.487342, -3.498677, 5.221324, -0.932977, -3.938099, -26.018646, -75.329193, -651.803955
1733469947.989785, -4.597915, -13.715035, 3.143587, 4.761124, -1.901048, -4.516146, -25.072189, -76.340912, -650.799744
1733469947.999736, -3.719991, -11.764808, 6.219986, 3.994608, -2.684918, -5.001106, -23.808456, -76.983414, -649.067993
1733469948.009724, -1.977760, -9.648633, 5.702689, 3.119850, -2.856302, -5.189276, -22.412048, -77.202042, -647.963257
1733469948.019738, 3.447800, -6.389675, 2.667739, 1.213683, -1.650753, -4.642230, -21.181778, -76.881622, -648.081421
1733469948.029724, 6.422446, -5.108329, 2.374150, 0.290724, -0.901988, -3.968712, -20.027679, -76.612778, -647.683533
1733469948.039729, 8.227075, -4.718074, 2.746897, -0.534058, -0.401399, -3.236589, -19.308472, -76.105865, -648.124390
1733469948.049722, 8.935011, -4.740070, 2.932598, -1.270872, -0.196318, -2.612848, -18.379181, -75.295731, -648.453125
1733469948.059736, 8.496423, -4.451270, 2.457049, -1.880276, -0.162855, -2.164586, -17.882858, -74.401413, -648.666016
1733469948.069752, 7.518990, -3.837307, 1.195904, -2.289586, -0.154353, -1.874530, -17.419022, -73.290741, -649.349182
1733469948.079757, 6.651242, -3.009960, -0.341174, -2.488156, -0.103321, -1.675303, -16.683548, -72.270050, -650.096069
1733469948.089727, 5.956774, -2.063951, -1.787122, -2.487504, -0.002948, -1.540522, -16.365891, -70.840469, -650.890747
1733469948.099733, 5.457433, -1.284040, -3.082086, -2.331928, 0.260330, -1.467445, -15.860382, -69.910095, -651.992065
1733469948.109734, 5.282956, -0.565780, -4.037821, -2.109499, 0.633262, -1.436903, -15.187164, -68.810394, -651.962158
1733469948.119724, 5.524022, 0.218471, -4.350414, -1.869613, 0.967170, -1.454953, -14.632141, -67.738297, -652.993408
1733469948.129726, 6.366033, 0.767042, -4.407875, -1.581912, 1.130466, -1.466817, -14.220245, -66.600464, -653.166260
1733469948.139719, 7.420828, 1.071405, -4.312705, -1.224958, 1.137974, -1.477337, -13.699646, -65.738235, -652.687500
1733469948.149728, 8.497171, 1.499369, -4.199879, -0.802117, 1.018486, -1.428210, -12.757309, -64.957016, -652.987976
1733469948.159721, 9.806201, 2.191143, -3.979163, -0.338553, 0.796740, -1.233490, -12.015060, -64.282501, -653.048157
1733469948.169729, 11.309012, 2.964620, -3.564368, 0.125285, 0.464578, -0.868440, -11.264694, -64.022751, -652.619690
1733469948.179726, 12.619388, 3.686023, -3.111564, 0.557041, 0.118625, -0.424684, -11.576248, -63.886383, -652.691101
1733469948.189731, 14.007426, 4.120122, -2.553566, 0.917357, -0.227772, 0.104279, -11.498932, -63.983200, -652.364990
1733469948.199726, 15.455320, 4.254496, -1.786074, 1.142393, -0.509148, 0.709790, -11.837097, -64.430862, -652.551514
1733469948.209738, 16.515951, 4.423886, -1.217601, 1.208765, -0.659683, 1.396467, -12.197998, -65.172668, -651.720703
1733469948.219732, 17.347936, 4.515165, -0.921019, 1.146008, -0.616249, 2.147680, -13.099274, -65.998001, -651.679871
1733469948.229726, 17.944841, 4.096778, -0.903512, 1.018312, -0.524143, 2.924566, -13.976028, -66.814835, -652.202026
1733469948.239730, 18.538303, 3.094506, -1.272369, 0.949607, -0.436830, 3.739686, -15.157394, -68.256531, -652.183167
1733469948.249729, 18.590976, 1.801038, -1.628207, 1.047201, -0.496593, 4.499289, -16.764008, -69.497528, -651.747498
1733469948.259731, 17.530045, 0.499191, -1.491438, 1.234727, -0.627040, 5.131202, -18.510269, -71.155258, -651.772583
1733469948.269301, 16.206052, -0.899472, -1.363348, 1.412673, -0.810594, 5.657257, -20.479660, -72.536453, -651.164734
1733469948.279730, 15.035736, -2.426224, -0.869843, 1.558922, -1.061038, 6.144844, -22.465851, -74.129654, -651.491699
1733469948.289724, 12.876316, -4.406229, -0.174777, 1.645654, -1.205809, 6.525573, -25.106827, -75.556549, -651.169556
1733469948.299719, 8.825177, -7.223905, 0.594660, 1.546205, -0.970710, 6.669600, -27.249374, -76.678375, -650.477478
1733469948.309720, 2.187702, -9.467721, 2.006940, 1.001410, -0.207463, 6.557267, -28.791367, -77.627106, -649.545410
1733469948.319719, -7.307702, -11.925369, 4.439598, -0.377756, 0.754262, 5.795073, -31.059906, -78.132355, -649.690369
1733469948.329717, -15.723919, -15.380351, 7.392995, -2.162015, 1.014574, 4.549322, -31.768265, -77.789520, -649.830078
1733469948.339733, -20.666599, -17.090859, 4.636072, -3.111814, 0.675305, 3.342628, -32.418427, -77.040680, -651.232910
1733469948.349718, -23.420230, -18.612374, -4.494216, -2.983991, 0.434652, 2.163112, -32.981766, -75.771637, -652.082764
1733469948.359721, -25.452758, -20.737827, -14.366856, -1.832247, 0.938056, 0.761229, -33.686356, -75.089600, -653.230957
1733469948.369724, -24.187572, -21.906047, -21.528063, -0.020369, 1.758579, -0.753674, -34.087585, -74.782928, -653.642273
1733469948.379736, -18.166155, -21.797261, -21.553052, 1.852425, 1.983734, -1.964763, -33.371277, -75.363617, -653.147095
1733469948.389023, -9.910199, -20.871004, -16.313641, 3.379782, 1.479669, -2.719596, -32.335556, -76.470444, -652.072083
1733469948.399721, -4.316297, -17.270873, -9.566631, 4.356027, 0.762112, -3.064130, -30.466446, -77.848633, -650.634521
1733469948.409714, -1.269825, -14.328848, -3.093757, 4.601914, 0.022083, -3.201331, -29.462646, -79.208344, -648.303589
1733469948.419718, 0.072425, -13.848212, 2.445228, 4.245364, -0.813945, -3.364776, -28.376099, -80.231064, -647.336243
1733469948.429713, 0.498443, -13.853150, 5.514744, 3.617075, -1.505728, -3.580815, -27.601440, -80.884399, -645.938599
1733469948.439712, 1.031751, -13.357550, 6.370522, 2.907747, -1.930323, -3.704304, -26.435059, -81.421890, -644.086121
1733469948.449712, 2.109292, -12.502371, 6.105663, 2.173748, -2.093034, -3.669828, -25.032303, -81.772232, -643.506836
1733469948.459711, 3.079392, -11.798775, 5.123592, 1.434540, -1.890188, -3.508254, -24.031219, -81.588684, -642.804871
1733469948.469718, 3.753061, -10.674099, 3.875015, 0.643041, -1.160958, -3.232926, -22.776184, -81.363174, -642.707153
1733469948.479726, 4.564097, -8.799439, 3.375525, -0.221490, -0.247457, -2.871809, -21.542816, -81.117508, -642.633301
1733469948.489711, 5.230283, -7.086987, 3.889680, -1.072960, 0.494092, -2.499914, -20.454102, -80.382477, -642.870972
1733469948.499728, 5.513697, -5.885247, 4.065803, -1.772194, 1.058264, -2.166662, -19.532318, -79.642044, -643.285156
1733469948.509714, 5.669769, -4.907664, 3.896264, -2.261676, 1.333008, -1.914517, -18.774063, -78.791962, -643.444946
1733469948.519710, 5.279813, -4.021660, 4.035876, -2.545655, 1.176033, -1.787817, -17.697433, -77.855743, -644.876831
1733469948.529705, 4.550330, -3.417573, 3.936666, -2.652569, 0.747207, -1.779922, -16.731812, -77.012695, -645.628235
1733469948.539777, 3.846584, -2.980332, 3.041983, -2.644168, 0.278072, -1.860440, -16.033417, -75.503143, -646.456299
1733469948.549704, 3.237410, -2.334945, 1.825878, -2.565477, -0.100765, -1.987609, -14.887665, -74.464966, -647.696045
1733469948.559712, 2.759617, -1.485901, 0.650325, -2.449315, -0.333622, -2.109750, -14.216003, -73.056305, -648.094971
1733469948.569718, 2.508226, -0.699406, -0.454000, -2.331005, -0.383286, -2.226050, -13.511398, -71.801880, -649.234131
1733469948.579766, 2.645443, -0.187346, -1.500865, -2.201996, -0.294935, -2.343424, -12.963547, -70.428635, -649.895508
1733469948.589716, 3.130119, 0.355689, -2.453608, -2.021246, -0.105168, -2.417933, -12.419479, -69.231171, -650.626831
1733469948.599709, 3.992481, 0.799364, -3.257910, -1.776216, 0.233586, -2.439642, -11.520859, -67.942398, -650.851868
1733469948.609707, 4.900931, 1.093701, -3.876661, -1.481349, 0.654348, -2.403793, -10.840134, -66.768127, -650.394348
1733469948.619725, 5.956774, 1.477073, -3.733757, -1.162714, 0.961313, -2.293441, -10.090149, -65.600143, -651.416687
1733469948.629718, 7.225551, 1.746720, -2.865410, -0.849281, 1.008571, -2.140589, -9.693634, -64.975296, -651.133301
1733469948.639715, 8.651148, 2.043301, -1.680131, -0.585310, 0.819551, -1.895435, -8.740997, -63.931168, -650.793457
1733469948.649706, 10.742783, 2.678962, -0.687136, -0.434609, 0.547534, -1.472248, -8.281326, -63.308105, -650.641479
1733469948.659722, 13.355306, 3.705775, 0.135871, -0.416068, 0.277156, -0.867101, -8.568909, -62.915726, -650.858215
1733469948.669719, 16.218621, 4.208258, 0.458041, -0.494172, 0.072323, -0.188334, -8.650986, -62.764618, -650.964661
1733469948.679706, 19.289634, 3.946991, 0.166846, -0.530160, -0.136951, 0.603882, -9.253265, -62.692184, -650.940369
1733469948.688784, 21.871032, 3.447351, -0.667982, -0.369752, -0.244675, 1.390633, -10.087753, -63.238663, -651.766418
1733469948.699717, 23.579445, 2.843713, -1.224485, -0.148394, -0.324900, 2.166014, -10.755936, -63.614288, -651.704834
1733469948.709708, 24.979604, 2.849250, -0.704045, -0.038849, -0.525775, 3.062757, -11.683289, -64.395020, -651.698730
1733469948.719711, 25.451112, 2.843713, -0.341623, -0.015138, -0.721215, 3.989332, -12.752426, -65.412613, -652.000488
1733469948.729711, 24.836401, 1.670554, -0.589722, -0.039506, -0.890764, 4.908033, -14.066437, -66.607971, -652.447388
1733469948.739714, 22.915952, 1.218649, -0.659752, -0.053652, -1.010757, 5.885024, -15.056717, -67.958588, -652.470642
1733469948.749726, 19.697097, 2.080112, -1.258003, -0.017720, -0.781943, 6.964688, -16.170517, -69.209778, -652.376709
1733469948.759768, 13.762919, 2.800917, -1.796399, -0.164713, 0.170281, 8.004425, -17.913528, -70.454468, -652.110413
1733469948.769720, 4.160524, 1.093103, -0.390105, -1.007250, 1.448815, 8.376452, -20.583145, -71.686066, -652.468201
1733469948.779717, -5.999869, -4.237587, 3.499724, -2.641946, 1.855450, 7.647629, -22.655075, -71.897415, -653.526489
1733469948.789706, -15.647754, -10.285640, 5.314230, -4.045716, 1.424309, 5.840625, -24.299896, -71.305603, -654.514221
1733469948.799776, -23.375189, -14.572308, 0.462679, -4.401957, 0.632630, 3.352319, -25.079514, -70.192169, -656.298645
1733469948.809709, -25.911397, -16.043096, -8.100931, -3.480462, 0.086996, 0.872253, -25.017761, -68.931198, -657.227295
1733469948.819706, -22.274306, -16.969802, -17.855657, -1.471272, 0.129851, -0.991200, -25.051117, -68.382309, -657.396851
1733469948.829705, -13.994857, -18.124256, -23.269994, 0.832498, 0.198991, -2.129257, -24.382202, -68.279160, -656.901917
1733469948.839714, -6.056133, -17.679234, -21.923854, 2.922880, 0.204190, -2.654923, -23.126572, -69.406570, -656.107239
1733469948.849702, -1.371279, -15.042320, -17.148170, 4.427812, 0.416653, -2.775693, -22.117111, -70.682922, -654.769165
1733469948.859754, 0.550517, -12.455385, -9.380931, 5.030869, 0.628354, -2.748843, -21.277420, -72.246750, -652.969482
1733469948.869705, 1.816601, -12.360814, -1.147571, 4.703073, 0.467596, -2.737818, -20.715195, -73.230850, -651.354797
1733469948.879710, 2.790741, -13.083714, 5.890335, 3.696003, -0.275451, -2.798978, -19.651550, -74.101807, -649.899353
1733469948.889703, 3.072359, -12.320861, 9.397840, 2.458208, -1.060094, -2.862664, -19.284103, -74.180756, -649.017151
1733469948.899750, 3.119794, -11.304971, 8.967632, 1.285435, -1.567941, -2.893632, -18.361404, -74.078552, -649.184570
1733469948.909697, 3.955371, -10.731410, 6.033239, 0.324345, -1.503755, -2.749518, -17.608765, -73.525070, -649.402222
1733469948.919704, 5.312285, -8.899846, 2.630479, -0.429327, -0.947115, -2.386224, -17.471664, -72.639664, -649.422241
1733469948.929738, 6.533178, -6.964583, 0.974889, -1.020294, -0.355131, -1.896531, -16.815903, -72.135574, -650.072876
1733469948.939710, 7.351396, -6.092495, 0.458789, -1.465144, 0.057954, -1.405930, -16.377594, -71.261444, -650.683838
1733469948.949698, 7.515399, -5.705981, 0.156222, -1.757746, 0.247704, -0.968859, -15.720200, -70.481552, -650.962402
1733469948.959705, 6.452373, -5.149030, 0.068534, -1.888655, 0.174596, -0.661784, -15.948257, -69.775055, -651.616150
1733469948.969695, 4.650587, -5.272631, -0.165050, -1.879356, -0.053504, -0.592672, -15.840469, -69.004684, -652.233276
1733469948.979701, 3.093608, -5.759551, -0.805200, -1.765830, -0.365173, -0.709473, -15.557480, -68.133606, -653.008301
1733469948.989748, 1.838448, -5.418078, -1.460463, -1.588984, -0.668229, -0.868549, -15.554382, -67.473297, -653.435120
1733469948.999708, 0.815375, -4.603451, -2.254141, -1.377183, -0.792132, -1.093134, -15.419800, -66.654922, -653.781372
1733469949.009707, 0.290746, -4.136283, -3.120692, -1.177853, -0.726197, -1.351095, -15.222000, -66.050262, -654.380249
1733469949.019754, 0.319626, -3.399766, -3.527407, -1.027088, -0.543601, -1.563795, -14.813248, -65.113388, -655.128723
1733469949.029691, 0.907552, -2.670582, -3.756203, -0.927572, -0.283033, -1.686683, -14.577271, -64.128128, -655.245361
1733469949.039700, 1.972523, -2.077718, -3.996371, -0.858683, -0.001189, -1.679598, -14.304901, -63.528244, -655.222595
1733469949.049699, 3.382708, -1.565509, -4.313304, -0.785751, 0.255710, -1.543048, -13.863708, -62.684540, -655.132324
1733469949.059699, 4.569932, -1.026514, -4.578013, -0.686339, 0.508842, -1.283317, -13.371628, -62.280899, -655.242920
1733469949.069692, 5.670068, -0.451606, -4.921431, -0.577557, 0.881878, -0.948176, -12.878204, -61.865585, -655.254944
1733469949.079697, 6.600066, 0.072425, -5.172822, -0.441954, 1.313591, -0.636693, -12.817657, -61.720428, -654.930237
1733469949.089752, 7.567623, 0.283414, -5.060145, -0.223526, 1.718808, -0.429873, -12.653397, -61.611282, -654.485718
1733469949.099688, 9.422979, 0.241216, -4.111892, 0.099727, 1.819603, -0.277101, -12.468475, -61.801254, -653.875549
1733469949.109691, 12.691513, 0.407164, -2.261922, 0.476970, 1.407602, -0.064586, -12.514038, -62.065872, -654.101196
1733469949.119690, 16.279225, 1.002572, 0.067786, 0.779387, 0.529314, 0.280415, -12.840408, -62.625336, -653.618286
1733469949.129703, 19.420267, 1.047314, 1.817049, 0.907712, -0.419354, 0.666379, -13.593521, -63.137726, -654.059387
1733469949.139323, 21.890485, 0.656011, 2.215534, 0.890453, -1.053004, 1.103963, -14.397049, -63.593643, -653.901917
1733469949.149692, 24.554483, 0.279673, 1.862539, 0.759916, -1.392692, 1.778814, -15.336823, -64.415070, -654.347534
1733469949.159697, 27.054479, 0.101305, 1.515530, 0.446430, -1.517188, 2.700442, -16.688385, -65.128586, -654.307861
1733469949.169719, 28.321011, -0.585682, 0.715866, -0.031779, -1.421815, 3.744753, -17.470154, -65.809769, -654.670654
1733469949.179743, 28.316223, -1.849670, -1.000477, -0.497249, -1.103129, 4.940701, -18.517242, -66.612137, -654.824585
1733469949.189693, 26.430939, -1.703325, -3.166781, -0.803075, -0.470515, 6.241756, -19.713303, -67.382401, -655.048706
1733469949.199715, 22.347478, -1.212364, -4.785261, -1.043626, 0.493006, 7.503533, -21.048691, -68.316986, -654.886108
1733469949.209688, 15.299098, -1.721880, -3.863344, -1.603805, 1.570336, 8.458255, -22.377045, -68.757751, -655.444275
1733469949.219692, 4.922479, -3.330634, -0.891092, -2.688530, 2.214823, 8.662590, -24.591904, -68.520676, -656.351257
1733469949.229683, -7.681497, -6.836792, 2.518251, -3.992393, 1.672922, 7.656308, -25.766174, -67.649979, -657.892334
1733469949.239688, -19.730766, -11.923872, 2.538752, -4.827974, 0.148059, 5.558641, -27.089142, -65.844116, -659.289307
1733469949.249712, -27.003153, -13.222128, -4.421492, -4.562041, -1.111737, 3.190557, -27.617966, -64.567169, -660.183105
1733469949.259756, -28.670266, -13.493870, -16.406716, -3.019921, -1.297282, 1.034204, -27.907364, -63.716232, -660.449646
1733469949.269715, -24.214956, -15.887324, -26.459969, -0.749229, -0.942722, -0.500157, -27.967255, -63.855194, -660.362061
1733469949.279692, -17.114053, -16.574908, -29.424589, 1.544465, -0.602623, -1.358137, -27.845367, -64.952545, -659.946899
1733469949.289700, -10.859201, -16.408960, -27.826160, 3.513043, -0.043983, -1.799005, -27.002197, -66.676544, -658.574158
1733469949.299686, -7.246051, -14.802900, -22.438308, 4.861857, 0.608699, -1.981767, -26.020035, -68.756149, -656.618652
1733469949.309684, -5.448904, -12.624027, -13.954904, 5.417466, 1.075445, -1.983733, -25.565552, -70.888260, -655.295654
1733469949.319686, -4.693683, -11.734282, -5.071218, 5.131086, 1.060415, -2.024508, -25.178406, -72.475784, -653.774963
1733469949.329684, -4.541052, -12.381015, 2.349909, 4.176267, 0.480734, -2.317252, -24.206863, -73.548218, -652.858398
1733469949.339682, -4.537760, -12.760646, 6.470031, 2.944347, -0.365933, -2.818113, -23.693207, -73.809402, -652.231934
1733469949.349692, -4.126855, -12.362909, 6.449381, 1.883297, -0.983143, -3.342853, -22.574432, -73.647888, -651.995667
1733469949.359690, -3.127127, -11.388768, 3.439271, 1.179679, -1.185843, -3.766585, -21.414536, -73.476273, -651.357910
1733469949.369679, -1.773655, -9.687688, 0.037559, 0.804560, -1.047571, -4.029919, -20.321121, -73.120132, -651.396179
1733469949.379692, -0.244059, -7.729979, -2.270302, 0.650230, -0.675664, -4.106397, -18.952286, -72.734589, -650.916809
1733469949.389678, 1.334917, -5.679346, -3.492841, 0.602691, -0.140304, -4.000597, -17.562103, -72.139297, -650.955078
1733469949.399687, 2.837129, -3.811270, -3.576788, 0.581116, 0.393537, -3.750394, -16.142349, -71.822205, -650.173279
1733469949.409394, 4.066252, -2.838925, -2.761712, 0.520818, 0.781112, -3.434220, -16.142349, -71.822205, -650.173279
1733469949.419699, 4.897938, -2.276587, -1.557877, 0.373639, 0.958998, -3.109736, -15.015839, -71.290283, -650.162109
1733469949.429675, 5.171176, -1.637484, -0.385317, 0.178385, 0.895103, -2.834307, -13.933777, -70.741135, -649.638367
1733469949.439733, 5.061941, -1.185130, 0.379481, 0.007164, 0.644826, -2.620873, -13.078049, -70.033981, -649.509827
1733469949.449672, 4.650587, -0.765097, 0.444424, -0.092046, 0.328800, -2.485151, -12.148438, -69.359238, -649.803711
1733469949.459674, 4.110395, -0.369605, 0.094571, -0.114036, 0.096262, -2.401834, -11.234329, -68.767960, -649.751526
1733469949.469734, 3.894169, 0.013767, -0.635062, -0.124583, 0.106810, -2.326664, -10.695938, -68.090637, -649.497742
1733469949.479675, 3.913323, 0.616507, -1.029656, -0.166868, 0.262966, -2.211139, -9.612640, -67.263351, -649.449463
1733469949.489687, 4.278887, 1.397615, -1.044470, -0.225466, 0.476338, -2.059591, -9.379776, -66.605865, -649.366394
1733469949.499746, 5.171625, 1.774253, -1.172261, -0.257704, 0.676735, -1.923445, -8.870026, -66.143280, -649.227417
1733469949.509696, 6.665308, 1.859995, -1.280449, -0.174800, 0.657599, -1.757761, -8.150620, -65.671097, -648.280090
1733469949.519691, 8.803629, 2.289904, -0.889446, 0.095144, 0.345164, -1.435277, -7.574432, -65.092438, -648.983459
1733469949.529696, 10.883891, 3.089867, -0.657208, 0.517524, -0.041657, -0.951255, -7.755707, -64.892136, -648.682983
1733469949.539682, 12.996475, 3.537433, -0.617255, 0.977427, -0.321735, -0.398252, -8.123932, -65.133545, -648.719727
1733469949.549680, 15.257349, 3.419967, -0.215628, 1.318260, -0.399271, 0.224164, -8.334137, -65.537003, -648.569397
1733469949.559681, 16.657508, 3.323750, 0.401777, 1.517629, -0.231543, 0.718387, -9.632996, -66.363739, -648.540771
1733469949.569682, 17.798944, 2.984971, 1.780388, 1.563110, -0.206954, 1.102310, -10.299377, -67.110092, -648.109863
1733469949.579685, 20.282330, 2.071733, 4.121020, 1.431652, -0.676314, 1.588024, -11.230362, -67.981750, -648.006042
1733469949.589682, 22.435764, 0.641347, 5.495291, 1.218941, -1.352728, 2.121401, -12.274979, -69.214661, -648.189880
1733469949.599674, 23.357831, -1.138892, 4.593126, 1.041212, -1.753588, 2.636218, -13.968674, -70.106293, -648.802246
1733469949.609684, 24.056789, -4.019116, 2.961328, 0.854495, -1.878774, 3.153108, -15.246750, -71.311844, -648.296814
1733469949.619675, 24.292468, -6.631190, 1.583615, 0.669769, -1.806239, 3.767828, -16.819595, -72.319641, -648.957947
1733469949.629675, 23.367408, -7.773374, 0.354641, 0.567607, -1.549964, 4.411297, -18.277573, -73.407043, -649.049316
1733469949.639690, 21.657200, -8.821436, 0.011073, 0.580572, -1.298404, 5.097837, -20.174988, -74.667068, -649.320618
1733469949.649694, 18.566435, -9.934291, 1.265336, 0.491318, -1.029488, 5.713611, -21.879044, -75.807663, -649.234985
1733469949.659672, 13.448680, -11.522993, 4.946421, -0.095080, -0.948500, 6.023415, -24.206970, -76.511642, -649.140869
1733469949.669679, 7.365163, -13.650840, 9.890447, -1.368297, -1.336410, 5.986935, -25.766129, -76.688309, -649.885193
1733469949.679684, -0.241964, -14.449606, 12.646772, -3.056608, -1.970669, 5.594094, -27.867310, -76.141907, -651.029846
1733469949.689742, -9.113529, -13.640066, 8.743475, -4.474324, -2.117512, 4.730085, -30.172318, -74.843872, -652.858521
1733469949.699684, -15.861287, -15.359552, -1.052102, -5.195793, -1.539442, 3.353714, -32.086517, -72.941696, -655.010986
1733469949.709682, -18.202966, -18.507478, -12.294375, -4.929032, -0.470426, 1.823803, -32.446289, -71.223465, -655.783936
1733469949.719673, -17.119889, -19.411289, -22.151004, -3.528496, 0.921103, 0.605712, -32.117081, -69.929962, -657.478821
1733469949.729686, -13.454815, -18.769942, -26.709714, -1.445360, 1.878967, -0.196627, -31.779633, -69.555573, -657.517700
1733469949.739672, -9.750985, -17.906683, -23.971645, 0.569264, 1.939417, -0.809253, -30.993393, -70.021927, -657.695923
1733469949.749743, -8.128464, -16.342521, -17.249774, 2.055893, 1.454854, -1.464269, -30.040253, -70.833923, -656.756226
1733469949.759677, -7.883208, -14.566323, -10.529400, 2.930692, 0.888564, -2.144936, -28.923767, -71.907990, -655.772522
1733469949.769677, -7.638401, -13.047052, -4.584597, 3.202335, 0.338359, -2.765770, -27.715912, -72.806656, -654.439514
1733469949.779689, -7.469460, -11.328464, 0.209193, 2.959578, -0.188213, -3.313308, -26.310989, -73.536835, -653.731445
1733469949.789680, -7.232883, -9.633519, 2.926163, 2.369073, -0.588970, -3.779066, -25.124252, -73.916733, -652.990417
1733469949.799671, -6.819883, -7.997980, 3.561674, 1.640853, -0.785149, -4.147873, -23.708862, -73.979523, -652.163330
1733469949.809672, -6.212055, -6.367379, 2.884714, 0.959146, -0.831148, -4.366773, -22.234161, -73.907349, -651.546448
1733469949.819685, -5.010615, -4.821473, 1.424251, 0.422921, -0.741270, -4.390622, -20.974747, -73.471695, -651.824280
1733469949.829674, -3.316717, -3.565415, -0.462679, 0.048411, -0.493890, -4.249279, -19.693893, -72.859360, -651.929565
1733469949.839678, -1.804630, -2.598158, -1.724274, -0.205009, -0.195311, -4.019942, -18.507736, -72.106873, -652.210938
1733469949.849737, -0.651821, -1.872565, -2.319682, -0.392060, 0.096585, -3.773795, -17.455856, -71.323853, -651.966858
1733469949.859666, 0.116119, -1.168819, -2.637961, -0.509580, 0.410577, -3.540886, -16.348083, -70.421707, -651.765259
1733469949.869670, 0.981473, -0.830788, -2.765602, -0.542004, 0.665448, -3.307610, -15.224396, -69.599579, -652.008118
1733469949.879672, 1.601122, -0.523732, -2.472013, -0.501213, 0.734630, -3.076859, -13.975662, -68.854767, -652.382507
1733469949.889671, 1.793257, -0.247201, -2.177975, -0.407782, 0.728011, -2.907337, -13.005249, -68.013016, -652.042908
1733469949.899666, 1.934964, -0.064195, -2.045845, -0.281479, 0.688884, -2.762371, -12.115463, -67.103973, -652.098206
1733469949.909666, 2.180818, 0.461333, -1.702577, -0.150372, 0.578227, -2.602113, -11.264359, -66.495773, -651.454102
1733469949.919706, 2.470517, 0.965013, -1.468843, -0.014416, 0.470080, -2.431462, -10.688385, -65.813751, -651.930542
1733469949.929657, 3.027767, 1.217751, -1.639130, 0.125297, 0.477711, -2.265490, -10.027252, -65.429932, -651.787537
1733469949.939667, 3.916914, 1.312172, -1.730709, 0.256751, 0.512860, -2.086823, -9.558762, -64.882523, -651.344666
1733469949.949662, 5.053412, 1.284639, -1.644817, 0.350457, 0.592066, -1.887192, -8.970078, -64.501846, -651.253174
1733469949.959668, 6.025757, 1.356166, -1.450587, 0.419994, 0.661249, -1.655162, -8.674133, -64.000183, -650.351196
1733469949.969671, 6.761225, 1.638681, -1.175703, 0.520911, 0.715503, -1.364065, -7.978470, -63.746078, -650.611328
1733469949.979659, 7.939921, 2.013973, -0.985064, 0.652277, 0.817208, -0.962399, -7.659973, -63.920135, -649.929626
1733469949.989680, 9.718065, 2.874389, -0.445621, 0.753429, 0.893784, -0.392919, -7.234833, -64.251236, -649.704712
1733469949.999671, 11.704953, 3.835810, 0.658256, 0.712684, 0.884087, 0.311582, -7.553680, -64.531891, -649.289062
1733469950.009672, 12.975526, 3.980660, 1.685219, 0.506915, 0.893216, 0.964005, -8.208557, -65.024445, -648.284180
1733469950.019708, 13.568689, 3.583821, 2.197428, 0.212621, 0.954832, 1.412863, -9.203506, -65.666183, -648.448669
1733469950.029668, 14.558691, 3.068469, 2.693477, -0.070994, 0.917399, 1.626629, -10.162445, -66.162308, -648.410706
1733469950.039669, 16.186898, 2.142960, 2.442984, -0.173400, 0.810186, 1.628529, -10.938461, -66.874374, -648.584961
1733469950.049667, 18.889054, 1.469441, 1.814805, 0.055604, 0.519304, 1.665329, -11.760544, -67.481491, -648.564209
1733469950.059658, 22.506992, 0.019752, 1.398513, 0.479602, -0.016715, 1.762555, -12.548737, -68.323685, -649.025696
1733469950.069674, 25.970354, -1.900248, 1.532289, 0.961646, -0.809266, 2.004126, -13.360657, -69.047058, -648.801758
1733469950.079674, 28.532000, -2.041506, 1.854010, 1.475224, -1.703097, 2.514913, -14.260101, -70.218979, -648.749512
1733469950.089664, 29.863925, -1.539322, 2.199074, 1.948609, -2.484729, 3.356886, -15.458832, -71.645172, -648.541382
1733469950.099667, 29.533974, -1.618480, 2.245911, 2.141338, -2.726157, 4.482351, -16.841629, -73.270966, -648.229675
1733469950.109671, 26.639683, -2.034772, 2.288857, 1.777488, -2.103421, 5.607192, -19.122131, -74.747162, -647.452515
1733469950.119726, 21.706880, -3.007566, 2.714127, 0.744311, -0.690062, 6.615168, -20.995361, -75.891861, -648.223206
1733469950.129653, 15.585056, -5.144242, 4.008642, -1.000357, 0.924145, 7.246336, -23.126556, -76.348694, -648.747437
1733469950.139675, 8.546252, -8.113052, 5.034408, -3.033852, 2.248968, 7.290310, -25.081284, -76.428040, -650.200623
1733469950.149717, 0.789039, -10.604368, 4.250606, -4.646729, 2.783876, 6.623128, -27.171280, -75.544846, -651.805664
1733469950.159653, -5.467010, -13.816639, 1.305139, -5.376950, 2.113585, 5.197665, -28.191620, -74.283096, -654.109741
1733469950.168944, -9.635165, -17.385645, -5.090671, -4.751364, 0.871576, 3.330480, -28.244629, -73.204987, -654.934143
1733469950.179656, -11.691785, -18.799421, -14.065935, -2.757541, -0.121661, 1.651445, -27.909637, -72.676041, -655.083313
1733469950.189653, -10.413580, -19.334376, -20.557214, -0.246686, -0.607513, 0.556980, -27.805038, -72.832047, -654.714050
1733469950.199675, -7.754221, -20.180875, -20.359094, 1.702995, -0.819274, -0.118514, -27.337250, -73.595886, -653.366638
1733469950.209704, -7.158364, -19.613150, -15.256452, 2.723819, -0.638717, -0.631294, -27.156876, -74.348755, -651.975342
1733469950.219649, -7.627627, -17.691205, -9.051279, 2.882278, -0.193255, -0.965204, -26.451767, -75.352493, -651.406860
1733469950.229656, -7.989301, -16.792332, -3.005920, 2.289324, 0.185939, -1.258823, -25.937393, -75.682724, -650.945312
1733469950.239674, -8.921095, -16.391004, 1.808969, 1.190248, 0.340263, -1.674725, -25.029419, -75.851456, -650.863159
1733469950.249662, -10.100538, -15.351322, 4.121618, -0.031268, 0.352777, -2.194898, -23.836395, -75.282684, -650.832947
1733469950.259652, -10.724078, -13.457209, 3.786580, -1.031274, 0.302169, -2.741902, -22.707016, -74.279572, -651.122131
1733469950.269718, -10.555885, -11.377097, 1.334767, -1.635062, 0.277174, -3.222367, -21.409668, -73.350418, -651.703735
1733469950.279657, -9.777770, -9.381081, -1.466299, -1.823264, 0.261299, -3.603156, -20.067993, -72.163071, -651.992859
1733469950.289663, -8.786271, -7.315184, -3.984849, -1.653310, 0.361131, -3.886204, -18.735550, -71.045517, -652.519531
1733469950.299718, -7.362469, -5.406556, -5.862203, -1.229187, 0.573655, -4.041527, -17.136993, -70.036301, -652.444519
1733469950.309655, -5.742493, -3.750517, -6.528689, -0.677584, 0.753929, -4.109752, -15.749435, -69.222672, -652.490845
1733469950.319664, -4.159327, -2.348263, -5.991789, -0.120474, 0.713677, -4.113409, -14.600845, -68.416962, -652.624695
1733469950.329706, -3.143288, -1.040879, -4.608240, 0.352944, 0.432202, -4.103753, -13.379272, -67.848724, -652.501282
1733469950.339648, -2.521992, -0.412850, -3.614796, 0.692404, 0.182444, -4.153520, -12.232178, -67.030899, -651.493286
1733469950.349649, -1.792509, 0.072425, -3.169624, 0.892053, 0.068979, -4.208117, -11.095734, -66.380371, -651.744446
1733469950.359689, -0.963666, 0.984017, -2.619855, 0.991244, 0.009693, -4.192819, -10.171341, -65.423553, -650.860413
1733469950.369647, -0.277877, 1.814954, -2.304269, 1.057028, 0.047291, -4.168298, -8.802429, -64.793030, -650.619751
1733469950.379642, 0.666187, 2.575263, -2.443432, 1.118062, 0.283938, -4.069496, -8.139420, -63.928101, -649.866821
1733469950.389665, 2.242918, 3.545962, -2.543839, 1.179833, 0.576344, -3.825689, -7.355637, -63.491623, -649.937439
1733469950.399708, 4.394408, 4.432415, -2.082507, 1.268685, 0.686668, -3.463797, -6.768875, -62.979889, -649.670654
1733469950.409659, 7.331195, 4.945672, -1.275960, 1.390743, 0.628189, -2.953508, -6.357681, -62.728653, -648.914917
1733469950.419639, 10.359711, 5.339818, -0.579546, 1.480935, 0.507304, -2.318682, -5.955048, -62.612595, -648.206665
1733469950.429645, 13.178883, 6.007202, 0.239869, 1.487163, 0.159125, -0.744111, -6.019272, -62.942932, -648.199707
1733469950.439647, 15.561563, 6.878691, 1.498022, 1.373066, 0.191030, -0.090133, -6.687927, -63.335922, -647.845459
1733469950.449645, 18.016816, 8.237999, 3.644723, 1.032616, 0.253276, 0.376072, -7.182632, -63.798019, -647.840271
1733469950.459702, 18.016816, 8.237999, 3.644723, 0.557926, -0.044531, 0.903584, -7.645706, -64.254578, -647.904663
1733469950.469644, 21.896919, 7.273285, 6.060922, 0.197190, -0.393291, 1.473910, -8.583801, -64.802002, -647.682800
1733469950.479677, 21.896919, 7.273285, 6.060922, 0.197190, -0.393291, 1.473910, -9.491440, -65.384033, -647.992432
1733469950.489659, 24.908676, 4.204667, 3.387945, -0.100209, -0.716713, 2.528969, -10.519653, -66.225983, -648.298096
1733469950.499682, 26.313024, 2.112284, 2.350657, -0.100209, -0.716713, 2.528969, -11.773117, -67.201401, -648.867432
1733469950.509646, 26.626066, 0.373196, 1.259051, 0.102922, -0.959931, 3.767645, -12.659821, -68.118408, -649.479187
1733469950.519650, 26.093506, -1.200542, 1.281197, 0.204514, -1.120339, 4.506506, -13.819580, -69.345581, -649.557129
1733469950.529650, 24.412028, -2.618808, 2.360533, -0.004833, -1.293059, 5.245327, -15.154251, -70.536392, -649.454834
1733469950.539645, 21.030667, -3.644274, 2.614019, -0.505210, -1.148293, 5.843749, -17.229019, -71.523376, -650.307922
1733469950.549641, 17.226580, -5.661539, 1.550395, -1.207608, -0.695853, 6.241195, -19.112778, -72.422440, -650.370178
1733469950.559642, 13.876793, -6.999598, 0.014066, -1.897965, -0.108629, 6.625403, -20.599152, -72.707382, -650.707520
1733469950.569641, 9.452159, -6.895301, -1.565509, -2.494120, 0.574985, 6.940014, -21.991043, -73.110474, -651.559021
1733469950.579643, 3.000533, -8.081478, -2.393154, -3.151252, 1.230003, 6.825247, -23.701263, -72.861694, -652.978882
1733469950.589640, -4.751144, -11.214291, -2.792088, -3.860403, 1.551644, 5.966754, -25.421860, -72.437241, -653.836060
1733469950.599640, -11.445331, -14.198364, -4.238036, -4.196030, 1.140492, 4.535398, -26.444519, -71.274353, -654.696899
1733469950.609659, -15.729007, -17.465851, -8.661922, -3.614776, 0.451619, 2.774065, -27.390656, -70.479004, -656.609253
1733469950.619641, -17.756896, -20.257490, -15.419856, -2.141799, 0.162144, 0.904784, -27.555695, -69.758209, -656.821472
1733469950.629639, -15.754296, -20.971561, -18.975844, -0.348974, -0.155907, -0.608076, -27.070389, -69.408615, -657.007812
1733469950.639648, -10.980108, -20.268114, -17.965042, 1.278207, -0.644980, -1.526016, -26.539642, -69.745605, -656.437561
1733469950.649640, -7.298724, -17.868526, -14.681693, 2.399607, -0.806456, -1.947173, -25.761139, -70.406937, -655.429382
1733469950.659659, -5.071368, -16.051476, -10.352378, 2.788293, -0.594992, -2.076726, -25.633545, -71.168289, -654.539062
1733469950.669656, -3.991284, -15.743971, -5.576096, 2.468538, -0.393785, -2.197978, -25.317062, -71.946487, -653.717163
1733469950.679641, -3.534291, -15.982792, -1.902792, 1.715083, -0.398603, -2.398222, -24.245407, -72.273972, -653.030579
1733469950.689646, -3.557634, -15.324986, -1.047912, 0.976322, -0.293939, -2.574405, -23.551941, -72.319138, -653.089844
1733469950.699637, -3.763835, -13.730447, -2.467374, 0.528047, 0.069910, -2.700130, -22.331711, -72.231155, -652.281860
1733469950.709636, -3.709516, -11.965023, -3.890877, 0.357827, 0.435960, -2.789472, -21.573883, -72.024490, -652.668945
1733469950.719636, -3.525462, -10.112958, -4.521300, 0.408701, 0.698531, -2.876384, -20.238937, -71.662735, -652.079407
1733469950.729643, -3.020884, -8.462156, -4.828207, 0.596586, 0.870517, -2.962022, -19.172623, -71.540802, -651.977295
1733469950.739637, -2.191742, -6.749554, -4.550330, 0.841020, 0.923962, -3.016594, -17.640564, -71.228897, -651.336792
1733469950.749658, -1.316961, -5.185990, -3.910031, 1.074319, 0.931963, -3.042881, -16.539017, -71.103714, -650.756348
1733469950.759651, -0.454000, -3.899706, -3.312977, 1.227548, 1.001785, -3.016237, -15.077316, -70.933762, -650.057983
1733469950.769652, 0.387711, -2.595315, -2.424728, 1.270684, 1.075810, -2.941786, -14.013718, -70.827393, -649.350891
1733469950.779655, 1.061080, -1.501164, -1.460014, 1.218543, 1.117594, -2.849827, -12.799500, -70.555405, -648.895020
1733469950.789643, 1.532888, -0.686986, -0.719308, 1.108223, 1.155607, -2.747110, -11.447510, -70.196960, -648.129272
1733469950.799650, 1.970877, 0.056862, -0.218022, 0.961859, 1.208247, -2.637105, -10.388977, -69.936615, -646.975586
1733469950.809647, 2.355595, 0.770334, 0.067636, 0.792939, 1.298135, -2.500475, -9.057770, -69.354218, -646.940308
1733469950.819652, 2.907309, 1.512836, 0.255431, 0.612689, 1.458020, -2.309380, -8.140137, -68.906082, -646.075195
1733469950.829643, 3.971831, 2.239327, 0.417190, 0.448284, 1.640614, -2.068188, -7.196625, -68.468460, -645.498840
1733469950.839633, 5.120599, 2.735076, 0.791284, 0.295704, 1.772361, -1.787901, -6.322189, -68.099899, -645.025269
1733469950.849633, 5.828834, 2.964919, 1.239897, 0.144531, 1.861800, -1.502124, -5.768005, -67.658325, -644.621460
1733469950.859645, 6.214001, 2.791639, 1.484106, -0.015600, 1.999304, -1.302706, -5.252304, -67.244080, -643.851379
1733469950.869640, 6.751349, 2.404976, 1.611298, -0.150111, 2.129598, -1.165807, -4.543106, -67.067459, -643.359192
1733469950.879642, 8.458116, 2.415749, 2.583793, -0.178845, 2.000861, -0.980172, -4.047134, -66.666168, -642.532837
1733469950.889641, 10.706720, 3.111864, 4.731990, -0.192009, 1.420907, -0.711030, -4.047134, -66.666168, -642.532837
1733469950.899637, 13.349320, 3.637840, 6.581062, -0.320274, 0.594999, -0.357051, -3.887161, -66.355301, -642.408508
1733469950.909631, 15.868170, 3.870975, 7.095965, -0.523228, -0.109815, 0.036103, -4.301422, -66.319839, -641.770081
1733469950.919680, 18.031032, 4.395006, 6.261586, -0.687018, -0.398994, 0.411651, -4.837784, -65.979218, -642.632751
1733469950.929638, 20.556466, 4.233996, 5.233725, -0.764452, -0.593605, 0.847739, -5.442917, -66.067535, -642.993042
1733469950.939636, 23.516298, 3.873669, 4.541651, -0.704490, -0.854751, 1.452534, -6.070450, -66.191284, -643.645020
1733469950.949077, 26.104879, 3.886537, 3.762937, -0.473009, -1.279396, 2.260786, -7.143448, -66.770844, -644.345703
1733469950.959643, 27.443836, 3.474286, 2.841020, -0.105715, -1.679805, 3.135593, -7.870239, -67.508316, -644.635986
1733469950.969632, 27.700614, 3.200150, 1.982399, 0.252650, -1.982497, 4.052729, -9.451462, -68.627365, -645.510254
1733469950.979640, 27.453263, 2.520047, 1.455974, 0.452997, -2.181122, 5.056646, -10.911438, -69.698486, -646.071655
1733469950.989629, 25.879824, 2.037765, 0.987159, 0.460134, -2.095789, 6.130050, -12.555069, -71.180237, -646.213989
1733469950.999635, 22.235100, 2.185756, 0.083498, 0.309834, -1.491939, 7.188961, -14.491196, -73.046173, -647.107910
1733469951.009637, 15.997607, 0.859818, 0.471209, -0.187579, -0.451729, 8.050685, -16.875381, -74.560883, -646.449463
1733469951.019626, 6.846519, -1.753902, 3.178752, -1.392832, 0.706852, 8.374466, -19.006241, -75.840500, -647.173340
1733469951.029642, -3.225738, -6.322787, 6.736086, -3.254437, 1.326742, 7.778427, -21.748871, -76.413589, -647.692749
1733469951.039631, -13.286921, -11.082909, 8.469788, -4.957643, 0.902918, 6.282924, -24.056168, -76.127426, -649.453857
1733469951.049635, -21.970092, -13.732243, 4.345775, -5.594936, -0.158903, 4.086875, -25.907913, -75.289597, -651.718018
1733469951.059631, -26.403106, -17.826477, -6.114791, -4.714608, -0.626606, 1.631010, -27.270279, -73.570328, -653.559753
1733469951.069637, -24.937256, -20.748152, -17.757345, -2.650190, -0.274209, -0.466618, -27.315903, -72.245956, -654.931763
1733469951.079639, -19.327043, -21.048624, -22.794446, -0.224833, -0.158404, -1.918727, -27.225830, -71.633209, -655.719299
1733469951.089623, -12.355427, -20.799777, -21.049372, 1.937420, -0.407418, -2.856700, -26.375214, -71.602646, -655.229309
1733469951.099631, -8.730606, -18.530971, -16.064495, 3.461544, -0.507335, -3.560314, -25.747528, -72.345718, -654.298218
1733469951.109621, -6.721272, -16.683096, -8.853159, 4.026233, -0.687122, -4.132463, -24.800430, -73.274063, -652.092957
1733469951.119638, -4.843470, -15.704616, -1.021426, 3.609231, -1.188514, -4.579383, -23.336411, -74.173691, -651.292358
1733469951.129621, -3.663278, -14.081198, 3.775057, 2.650539, -1.667345, -4.847403, -21.669250, -74.357910, -650.651611
1733469951.139626, -2.869301, -12.313978, 4.319589, 1.616907, -1.736877, -4.933725, -20.388412, -74.383698, -650.007263
1733469951.149629, -2.033725, -11.398644, 2.577957, 0.748249, -1.473861, -4.911448, -19.194473, -73.805405, -649.787476
1733469951.159619, -1.076942, -10.243143, 0.081552, 0.123098, -0.883412, -4.806898, -18.110001, -73.107040, -649.759460
1733469951.169629, 0.192584, -8.815899, -1.625962, -0.284342, -0.239544, -4.657889, -17.090851, -72.217392, -649.843384
1733469951.179619, 1.850119, -7.408109, -2.154183, -0.491163, 0.138426, -4.420639, -15.633331, -71.268066, -650.187195
1733469951.189619, 3.661034, -5.616797, -2.081908, -0.490488, 0.210574, -4.067746, -14.335312, -70.002838, -649.994141
1733469951.199666, 4.815488, -4.225616, -1.886781, -0.369164, 0.060133, -3.656880, -13.168060, -69.007095, -650.096375
1733469951.209620, 4.990414, -3.970035, -1.459116, -0.277575, -0.225718, -3.371272, -12.438873, -68.276367, -649.680054
1733469951.219618, 4.780772, -4.031836, -1.163582, -0.299729, -0.498730, -3.209616, -11.704330, -67.068008, -650.629333
1733469951.229615, 4.547487, -3.412186, -1.098639, -0.399948, -0.690137, -3.062390, -11.012375, -66.194122, -650.907288
1733469951.239620, 4.243423, -2.621052, -1.472883, -0.502155, -0.724257, -2.941565, -10.430588, -65.287003, -651.225769
1733469951.249621, 4.127005, -1.967585, -2.486827, -0.553529, -0.470043, -2.828589, -9.627991, -64.414856, -651.417175
1733469951.259626, 4.404433, -0.976236, -3.434931, -0.557389, 0.008443, -2.661061, -8.941025, -63.383224, -651.605835
1733469951.269632, 5.141099, 0.242263, -3.764583, -0.529706, 0.495926, -2.423482, -8.544861, -62.302399, -651.694641
1733469951.279681, 6.011691, 1.300650, -3.656694, -0.466755, 0.850798, -2.151209, -8.023453, -61.720566, -652.008545
1733469951.289614, 6.922535, 1.876306, -3.569605, -0.367258, 1.109525, -1.945235, -7.615097, -60.962479, -651.488403
1733469951.299627, 8.320898, 2.439542, -3.468600, -0.190601, 1.158508, -1.705693, -6.662109, -60.287079, -650.790710
1733469951.309620, 10.043975, 3.388095, -3.402609, 0.117475, 1.100762, -1.363337, -6.298721, -59.979691, -650.021545
1733469951.319694, 11.673529, 4.492869, -3.346346, 0.520152, 1.034659, -0.999906, -6.280853, -59.793793, -649.898132
1733469951.329616, 13.684957, 5.530157, -2.586935, 0.906966, 0.845602, -0.561032, -5.784363, -59.890091, -649.412292
1733469951.339611, 16.413449, 6.591836, -1.118691, 1.214874, 0.420983, 0.049487, -5.801849, -60.313339, -649.424744
1733469951.349612, 19.075652, 7.283461, 0.423774, 1.387245, -0.173406, 0.681737, -6.471634, -60.877258, -649.187439
1733469951.359680, 20.692187, 7.447164, 1.474230, 1.360709, -0.690715, 1.256787, -7.252457, -61.962875, -649.287598
1733469951.369630, 21.721694, 7.262811, 1.958307, 1.108953, -1.004130, 1.840007, -8.369858, -62.604141, -649.476624
1733469951.379628, 22.731748, 6.621614, 1.713500, 0.712388, -1.076095, 2.493841, -8.667892, -63.649384, -649.332764
1733469951.388914, 23.516298, 5.794417, 0.546925, 0.330717, -0.909141, 3.258384, -9.845535, -64.571899, -649.371033
1733469951.399621, 23.880665, 5.336975, -1.154304, 0.141778, -0.590311, 4.092183, -10.966553, -65.952225, -649.632568
1733469951.409617, 24.336012, 4.712836, -2.220173, 0.140607, -0.464900, 5.022949, -12.309662, -67.475037, -649.273193
1733469951.419626, 24.327034, 3.596390, -2.365771, 0.248693, -0.625039, 5.996862, -13.775818, -68.827469, -650.404297
1733469951.429618, 22.077083, 2.455403, -2.054225, 0.356965, -0.750177, 6.918902, -15.265396, -70.502197, -650.249939
1733469951.439612, 17.231069, 1.708113, -1.354520, 0.241508, -0.371651, 7.778043, -17.099777, -72.250153, -650.002380
1733469951.449653, 9.611373, 0.077213, -0.037409, -0.452814, 0.698363, 8.302522, -19.045563, -73.465744, -649.972778
1733469951.459607, 0.966509, -3.648165, 2.531569, -1.907389, 1.901242, 8.264515, -20.898727, -74.135330, -650.745667
1733469951.469614, -7.762900, -7.606977, 5.261408, -3.835561, 2.589553, 7.420990, -23.073593, -74.038177, -651.573303
1733469951.479665, -14.850634, -10.774805, 5.620987, -5.273560, 1.998832, 6.022626, -24.177933, -73.172073, -653.328674
1733469951.489624, -19.672257, -13.103316, 0.252588, -5.360820, 0.686530, 4.312942, -25.335159, -71.828125, -655.099609
1733469951.499628, -22.945879, -16.904410, -10.722432, -3.926407, 0.059063, 2.479807, -26.297958, -70.439865, -656.209290
1733469951.509621, -22.895152, -19.413983, -20.719421, -1.767868, 0.207515, 0.663176, -26.558945, -69.909225, -656.183655
1733469951.519612, -19.033155, -21.098004, -24.038383, 0.346033, 0.391576, -0.850297, -26.784729, -69.827301, -656.973022
1733469951.529624, -12.716353, -22.403293, -22.427235, 2.152101, 0.510822, -2.033347, -25.955078, -70.625854, -656.189758
1733469951.539622, -7.849091, -20.399945, -17.825729, 3.541197, 0.488015, -2.856339, -24.815201, -71.717056, -654.489441
1733469951.549612, -4.013281, -16.985514, -11.299135, 4.371037, 0.286834, -3.266782, -23.377426, -72.898453, -652.850891
1733469951.559681, -1.627907, -14.321516, -4.439448, 4.506444, -0.078828, -3.477719, -22.457626, -74.033585, -651.479126
1733469951.569614, -0.901866, -13.190405, 1.315763, 4.051338, -0.600569, -3.712009, -21.406158, -74.809082, -650.083923
1733469951.579612, -0.800112, -12.319963, 4.719570, 3.257570, -1.223583, -3.959592, -20.097733, -75.110809, -649.497803
1733469951.589666, -0.544232, -11.832145, 5.405808, 2.383991, -1.734050, -4.205040, -19.267471, -75.047516, -648.180237
1733469951.599624, 0.506823, -11.341633, 3.242348, 1.618774, -1.657270, -4.339652, -18.230911, -74.765015, -648.116394
1733469951.609610, 2.332551, -9.849746, 0.584484, 0.941756, -1.136837, -4.249661, -16.992874, -74.285919, -647.223389
1733469951.619668, 4.523545, -7.591714, -0.844854, 0.335707, -0.525489, -3.902069, -15.653671, -73.470901, -647.494934
1733469951.629627, 6.459107, -5.451148, -1.603965, -0.130619, 0.026156, -3.400104, -14.781982, -72.733215, -648.312012
1733469951.639618, 7.655161, -3.938611, -2.000655, -0.432440, 0.388935, -2.850496, -13.693619, -72.143600, -647.649414
1733469951.649605, 7.945009, -2.984971, -2.071733, -0.554563, 0.519146, -2.358814, -12.979523, -71.564545, -647.935791
1733469951.659591, 7.593211, -2.581099, -2.154931, -0.481250, 0.479758, -2.027920, -12.505814, -70.968872, -648.020996
1733469951.669616, 7.294085, -2.468272, -2.013374, -0.293826, 0.272053, -1.802080, -11.748199, -70.381363, -647.966187
1733469951.679617, 6.594230, -2.192191, -1.574637, -0.090325, -0.044073, -1.685076, -11.388016, -70.087875, -648.154907
1733469951.689610, 5.828834, -2.116025, -1.348384, 0.034284, -0.231996, -1.698523, -10.619751, -69.469330, -648.350220
1733469951.699605, 5.417181, -1.568950, -1.495029, 0.052592, -0.211966, -1.722014, -10.081482, -69.033279, -648.649109
1733469951.709613, 5.636250, -0.303465, -1.532139, 0.031214, -0.091397, -1.676497, -9.795593, -68.590836, -647.721191
1733469951.719606, 5.997326, 0.569970, -1.468244, 0.021721, 0.061060, -1.624783, -9.577011, -68.258926, -648.377441
1733469951.729603, 6.285827, 1.179294, -1.731157, 0.058388, 0.312661, -1.645855, -9.097305, -67.725479, -648.283081
1733469951.739648, 7.559392, 1.837999, -1.963545, 0.146610, 0.493709, -1.623001, -8.902863, -67.418625, -648.170776
1733469951.749619, 10.062680, 2.490419, -1.512088, 0.320238, 0.376642, -1.404681, -8.410263, -67.314758, -647.956177
1733469951.759599, 12.774862, 3.386000, -1.040730, 0.571276, 0.152620, -0.989361, -8.025467, -67.061249, -647.308105
1733469951.769623, 15.340249, 4.357148, -0.763900, 0.828006, -0.160301, -0.317396, -8.133240, -67.364365, -647.370605
1733469951.779620, 17.792659, 4.908712, -0.014515, 1.006033, -0.540601, 0.559900, -8.630676, -67.943527, -647.365601
1733469951.789599, 18.860024, 5.319168, 0.590919, 1.018490, -0.685860, 1.468840, -9.392319, -68.632553, -647.084229
1733469951.799610, 19.076849, 5.612458, 0.753425, 0.773388, -0.490500, 2.364632, -10.455444, -69.588913, -647.012756
1733469951.809004, 18.750490, 5.622184, 0.840066, 0.319440, -0.031506, 3.103329, -12.110947, -70.541962, -646.712036
1733469951.819600, 18.427272, 5.321412, 1.011849, -0.212773, 0.421893, 3.705589, -13.077301, -71.619751, -646.979370
1733469951.829601, 19.008465, 4.940585, 1.361702, -0.668568, 0.647655, 4.328197, -13.971466, -72.537720, -647.018982
1733469951.839610, 19.771317, 4.537760, 1.224784, -0.919806, 0.628030, 5.071499, -15.229172, -73.454742, -647.317505
1733469951.849661, 19.312379, 4.856040, 1.233612, -1.042931, 0.491130, 5.971750, -16.744904, -74.633072, -647.680420
1733469951.859592, 16.251841, 4.971260, 1.560720, -1.223089, 0.468223, 6.763871, -18.401901, -75.483307, -648.363220
1733469951.869599, 10.796353, 3.747823, 2.298733, -1.615684, 0.569634, 7.164844, -21.350769, -76.218063, -649.060303
1733469951.879596, 4.599710, 1.041627, 3.531597, -2.226019, 0.388567, 6.970929, -23.024734, -76.298004, -649.494507
1733469951.889652, -0.950797, -1.631499, 3.660285, -2.754385, 0.044813, 6.510698, -25.063568, -75.994202, -651.030090
1733469951.899609, -7.144896, -4.430620, 0.880019, -3.085895, 0.255878, 5.748247, -26.219986, -75.404434, -651.717590
1733469951.908911, -13.208212, -8.536975, -2.704999, -3.447676, 0.943854, 4.600569, -27.066833, -74.334702, -652.624512
1733469951.919595, -17.524509, -11.192444, -4.280084, -3.731960, 1.072560, 3.245411, -27.646576, -73.211060, -654.299133
1733469951.929668, -20.630387, -12.755708, -6.150854, -3.299480, 0.236076, 1.728679, -27.847092, -72.500885, -655.260864
1733469951.939604, -21.625477, -15.566351, -12.150873, -1.883035, -0.742305, 0.285443, -27.954178, -71.903595, -655.597839
1733469951.949601, -20.722264, -18.841170, -19.082236, 0.016983, -1.200564, -0.952310, -27.757629, -71.812881, -655.387817
1733469951.959596, -20.411467, -19.519028, -22.040572, 1.632703, -0.871236, -2.118850, -27.603165, -72.564987, -654.791016
1733469951.968815, -18.732683, -18.950705, -20.919936, 2.698682, 0.007230, -3.231599, -26.822586, -73.565964, -653.595581
1733469951.979616, -14.267796, -18.591275, -17.973122, 3.407489, 1.122860, -4.224476, -25.217743, -74.579086, -652.537231
1733469951.989592, -8.638429, -17.192912, -12.533945, 3.907962, 1.503157, -4.913787, -23.013306, -75.377472, -650.841064
1733469951.999607, -4.022857, -14.246547, -5.758803, 4.291342, 1.110786, -5.315546, -20.935486, -76.256119, -649.189941
1733469952.009590, -0.966809, -11.710789, -0.623690, 4.499506, 0.430712, -5.517176, -19.033188, -76.468521, -647.496216
1733469952.019656, 0.927604, -10.042329, 3.114557, 4.391311, -0.266082, -5.647919, -16.896103, -76.540283, -645.773682
