SamplingTime, AccelerationX, AccelerationY, AccelerationZ, GyroX, GyroY, GyroZ, MagneticFieldX, MagneticFieldY, MagneticFieldZ
1733469990.276394, 2.734478, -9.550022, -0.557101, 0.068616, -0.188204, -0.048222, -8.972122, -74.359421, -639.579956
1733469990.286390, 2.163460, -9.928006, -0.512958, 0.067144, -0.076787, -0.057228, -9.124084, -74.223450, -639.411743
1733469990.296395, 1.743577, -10.447997, -0.569820, 0.028704, 0.098368, -0.103928, -9.007874, -74.127823, -639.478027
1733469990.306411, 1.881244, -10.718392, -0.713622, -0.009276, 0.321233, -0.129651, -8.988297, -74.371506, -639.420166
1733469990.316403, 2.292598, -10.915614, -0.670376, -0.055040, 0.517891, -0.123141, -8.820526, -74.188507, -639.358154
1733469990.326418, 2.914641, -10.593744, -0.719607, -0.116934, 0.747882, -0.096081, -8.855789, -74.178802, -639.204041
1733469990.336414, 3.286640, -10.581474, -0.183905, -0.153393, 0.717898, -0.072213, -8.351105, -74.337341, -638.520874
1733469990.346390, 3.232621, -10.546907, -0.316184, -0.150494, 0.608692, -0.038903, -8.370255, -74.231216, -638.698853
1733469990.356404, 2.835184, -10.617686, -0.377685, -0.068698, 0.408847, -0.050469, -8.747375, -74.355591, -637.899292
1733469990.366408, 1.898003, -11.449222, -0.017657, 0.185257, -0.238281, -0.176102, -8.812759, -74.239166, -638.849182
1733469990.376402, 0.607529, -12.174665, -0.091578, 0.395527, -0.993016, -0.398617, -8.220810, -74.076431, -638.265015
1733469990.386401, 0.001496, -11.984625, -1.321599, 0.551052, -1.352443, -0.638907, -8.272476, -73.991882, -638.331665
1733469990.396398, -0.255282, -12.067525, -2.379836, 0.649298, -1.458170, -0.847569, -8.274582, -73.845230, -639.390076
1733469990.406391, -0.383222, -12.181399, -3.636343, 0.756142, -1.260697, -1.017256, -7.979736, -73.748306, -638.623596
1733469990.416410, -0.175974, -12.029966, -4.351761, 0.875796, -0.842045, -1.154945, -7.733521, -73.478287, -639.501770
1733469990.426405, 0.397288, -11.585243, -4.042909, 0.962417, -0.364206, -1.236899, -7.492554, -73.357925, -638.624207
1733469990.435639, 0.397288, -11.585243, -4.042909, 0.984794, -0.034840, -1.287572, -7.218613, -73.273407, -637.964539
1733469990.446399, 1.171214, -11.558757, -1.504606, 0.979296, -0.038443, -1.363741, -6.683517, -73.032272, -638.564697
1733469990.456403, 0.944213, -11.935245, -0.383072, 0.964320, -0.364653, -1.520383, -6.472290, -72.810638, -637.606934
1733469990.466392, 0.597204, -12.194118, -0.303914, 0.958775, -0.848667, -1.754870, -5.777512, -72.427216, -638.797729
1733469990.476395, 0.741754, -12.236765, -1.147720, 1.020921, -1.311385, -2.012059, -5.417496, -72.042892, -638.500977
1733469990.486393, 1.075296, -11.717971, -2.218078, 1.178888, -1.682533, -2.208809, -5.334778, -71.582291, -638.967102
1733469990.496181, 1.372476, -11.046697, -3.334674, 1.409675, -1.902228, -2.360188, -4.822952, -71.270538, -638.849670
1733469990.506399, 1.669656, -10.428544, -4.336348, 1.694795, -1.879566, -2.466629, -4.415649, -70.708145, -639.517578
1733469990.516407, 1.893664, -9.758916, -4.535067, 1.973225, -1.722770, -2.546265, -3.774307, -70.044891, -638.830872
1733469990.526394, 2.056470, -9.144055, -4.112490, 2.211460, -1.512369, -2.625768, -3.410019, -69.664551, -638.554199
1733469990.536407, 2.227954, -8.534431, -3.239953, 2.373443, -1.317558, -2.745120, -2.943039, -69.347733, -637.698669
1733469990.546424, 2.591723, -7.701997, -2.203414, 2.475053, -1.185871, -2.880498, -2.470276, -68.677475, -638.102234
1733469990.556397, 3.001730, -6.854899, -0.994940, 2.543375, -1.195332, -3.014518, -1.766663, -68.163132, -637.241760
1733469990.566396, 3.537732, -5.975778, 0.106841, 2.583777, -1.376101, -3.149758, -1.204697, -67.519394, -637.865845
1733469990.576396, 4.220529, -4.883423, 0.875679, 2.580182, -1.649731, -3.242259, -0.460846, -66.875717, -637.894104
1733469990.586389, 4.456208, -3.844040, 1.294066, 2.552487, -2.042876, -3.291539, -0.075439, -66.160156, -636.960205
1733469990.596390, 4.340837, -3.347842, 0.938677, 2.531336, -2.373701, -3.366198, 0.561447, -65.319351, -638.009460
1733469990.606387, 4.212897, -2.659958, 0.286855, 2.495281, -2.466852, -3.435630, 0.983551, -64.312531, -637.633789
1733469990.616390, 3.960010, -1.814655, 0.145448, 2.382774, -2.438302, -3.480765, 1.291306, -63.347015, -638.697449
1733469990.626389, 4.117279, -1.313070, -0.223858, 2.220643, -2.299236, -3.509482, 1.850159, -62.342621, -638.883728
1733469990.636389, 4.740968, -0.586879, -0.731878, 2.052487, -2.022521, -3.473585, 2.137314, -61.475357, -638.589844
1733469990.646389, 5.267992, 0.231789, -0.926556, 1.898592, -1.779191, -3.359927, 2.360382, -60.444733, -639.609680
1733469990.656387, 5.646276, 0.638953, -1.236605, 1.819501, -1.548101, -3.213084, 2.601440, -59.627029, -639.122925
1733469990.665781, 6.072743, 0.860566, -1.403900, 1.781612, -1.305989, -3.045811, 3.153748, -58.608963, -640.170288
1733469990.676387, 6.533926, 1.083676, -1.105373, 1.739611, -1.098796, -2.829313, 3.015869, -58.172821, -640.407104
1733469990.686385, 6.883330, 1.127819, -0.648978, 1.685025, -0.957106, -2.614958, 3.084290, -57.322464, -639.413086
1733469990.696386, 7.179612, 0.976086, -0.085593, 1.640587, -0.954827, -2.438295, 3.102707, -56.750076, -640.361389
1733469990.706392, 7.234380, 0.572065, 0.366163, 1.662618, -1.187786, -2.344387, 2.776367, -56.292145, -639.816040
1733469990.716400, 7.847146, -0.297180, 0.652570, 1.811187, -1.643988, -2.351033, 2.580780, -55.585495, -641.403748
1733469990.726392, 8.937106, -1.271920, 0.869394, 1.987957, -2.270266, -2.391167, 2.215454, -54.928040, -642.064087
1733469990.736384, 10.057143, -2.123657, 0.224157, 2.043960, -2.643999, -2.411316, 1.470032, -54.606934, -642.212708
1733469990.746398, 11.521796, -2.704251, -0.710928, 1.858070, -2.479608, -2.475299, 0.607697, -53.948914, -643.973206
1733469990.756385, 14.159907, -3.304447, -1.391181, 1.455712, -1.859485, -2.625644, -0.371185, -53.265015, -644.074280
1733469990.766397, 18.119169, -4.013131, -1.387889, 1.078503, -1.207899, -2.822773, -1.064270, -52.347763, -644.530701
1733469990.776443, 23.119459, -3.860201, -0.589722, 0.911381, -1.053394, -2.850150, -1.056061, -51.462112, -645.067139
1733469990.786386, 27.893946, -3.067122, -0.499939, 0.968593, -1.313745, -2.552236, -1.305466, -50.741684, -645.062622
1733469990.796248, 30.766688, -2.571971, -1.417816, 1.122625, -1.318715, -2.055741, -1.436676, -50.332062, -645.973938
1733469990.806395, 32.011374, -1.896507, -0.880917, 1.193395, -0.876321, -1.505690, -1.460831, -50.019089, -645.245178
1733469990.816390, 32.363022, -0.441431, 1.999757, 0.925346, -0.297230, -0.890837, -1.321503, -50.023468, -645.424316
1733469990.826434, 31.992969, 1.047463, 5.530007, 0.345791, 0.114245, -0.264138, -1.418900, -50.087158, -645.794556
1733469990.836379, 31.233707, 2.010980, 8.123975, -0.439218, 0.233956, 0.267450, -1.273010, -50.176682, -646.141602
1733469990.846377, 30.124444, 2.738667, 8.668357, -1.253347, 0.232108, 0.653154, -1.601791, -49.882004, -645.883545
1733469990.856390, 28.797458, 3.796156, 7.597251, -1.894887, 0.251759, 0.888806, -1.547943, -49.727890, -646.092468
1733469990.866388, 27.962779, 5.080945, 5.908890, -2.284781, 0.263173, 1.016166, -1.139999, -49.765518, -645.429626
1733469990.876384, 27.788002, 6.379350, 4.078672, -2.357887, 0.148140, 1.184653, -0.779922, -49.503036, -645.953308
1733469990.886392, 27.748199, 7.299622, 2.312948, -2.165063, -0.116833, 1.508839, -0.268600, -49.663620, -646.579834
1733469990.896398, 27.092337, 7.639000, 0.540940, -1.772975, -0.481477, 2.011142, -0.294235, -50.191559, -646.443909
1733469990.906445, 25.460240, 7.828890, -1.529296, -1.205463, -0.716223, 2.682970, 0.168549, -51.134521, -646.775269
1733469990.916375, 22.773945, 8.138191, -2.750788, -0.545409, -0.701320, 3.452812, 0.036194, -52.534607, -646.927490
1733469990.926375, 19.038692, 8.513482, -2.031779, 0.044939, -0.587529, 4.256065, 0.317734, -54.718384, -646.064270
1733469990.936379, 14.795568, 9.163807, 0.000599, 0.373853, -0.462302, 5.016706, 0.101273, -56.929779, -646.841675
1733469990.946388, 10.264092, 10.319907, 2.126650, 0.414164, -0.362620, 5.788875, -0.484726, -59.493607, -646.681519
1733469990.955545, 4.916343, 10.807576, 4.258387, 0.177933, -0.250724, 6.394328, -1.330673, -62.227646, -647.019287
1733469990.966375, -0.430208, 10.481067, 6.553678, -0.374379, -0.342860, 6.736046, -2.674850, -64.296341, -647.013062
1733469990.976416, -5.383662, 10.157999, 7.267898, -1.181546, -0.528289, 6.821664, -4.255890, -66.221436, -648.346985
1733469990.986375, -10.037690, 9.763405, 5.822250, -2.046333, -0.578477, 6.619202, -5.746307, -67.210968, -648.391052
1733469990.996368, -13.710994, 8.981249, 3.037494, -2.747912, -0.449536, 6.155185, -7.531174, -68.021866, -649.589355
1733469991.006379, -17.247978, 8.178743, 0.016310, -3.093591, -0.159950, 5.511246, -9.051376, -68.679260, -650.030029
1733469991.016390, -20.538509, 6.566846, -1.898901, -3.155383, 0.020269, 4.509725, -9.858292, -68.645966, -651.243042
1733469991.026381, -21.562180, 5.625476, -3.136554, -2.931650, -0.385750, 3.345446, -10.763382, -68.381332, -652.381348
1733469991.036381, -20.776882, 5.185392, -5.501726, -2.219619, -1.243418, 2.345325, -11.483017, -68.377991, -653.077454
1733469991.046375, -19.244743, 4.168305, -8.341399, -1.043611, -2.130639, 1.676171, -12.535645, -68.623444, -653.542908
1733469991.056372, -18.246211, 3.585167, -9.916035, 0.192955, -2.718408, 1.330738, -14.011429, -69.181610, -653.417664
1733469991.066372, -19.016994, 2.811691, -9.829844, 1.103531, -2.851952, 1.023867, -15.563217, -69.865845, -653.873352
1733469991.076371, -20.332009, 1.265186, -9.221717, 1.658954, -2.586326, 0.576013, -16.379608, -70.568115, -654.001953
1733469991.086372, -20.761170, 0.204555, -8.812757, 1.988869, -1.884683, 0.055447, -16.811981, -71.294968, -653.584961
1733469991.096202, -19.628713, -0.383671, -7.644087, 2.116206, -0.920745, -0.432115, -16.754852, -71.867188, -653.249756
1733469991.106371, -17.655142, -0.620697, -5.510704, 2.088486, -0.090671, -0.827667, -16.784317, -72.511215, -652.687134
1733469991.116372, -15.684714, -0.726939, -3.174562, 1.983512, 0.357317, -1.123817, -16.410385, -72.880951, -651.620972
1733469991.126150, -13.574375, -1.329081, -1.550844, 1.849314, 0.531203, -1.378848, -16.292114, -73.102844, -651.614197
1733469991.136371, -11.394904, -2.097770, -0.549469, 1.716396, 0.549479, -1.600051, -16.378571, -73.359772, -651.156250
1733469991.146377, -9.222315, -3.138050, 0.126144, 1.608811, 0.452705, -1.805627, -15.807068, -73.372879, -650.800354
1733469991.156378, -6.855497, -4.632032, 0.863559, 1.595847, 0.082299, -2.045950, -15.490402, -73.172455, -650.134888
1733469991.166375, -4.531625, -5.379771, 0.803404, 1.642174, -0.424511, -2.187133, -15.390350, -73.079620, -649.353149
1733469991.176367, -2.605340, -6.253804, -0.294487, 1.690912, -0.637069, -2.281330, -15.105881, -73.156631, -648.942444
1733469991.186366, 0.166098, -8.473379, -1.365443, 1.665835, -0.417304, -2.445474, -14.980621, -72.677933, -648.897705
1733469991.195425, 4.009839, -9.924564, -1.466000, 1.445419, 0.020651, -2.444386, -14.980621, -72.677933, -648.897705
1733469991.206366, 7.623886, -11.594520, -1.631200, 1.028515, 0.433364, -2.452517, -16.253403, -72.353699, -649.142578
1733469991.216368, 11.410466, -14.906300, -4.193594, 0.943048, 1.059855, -2.862059, -15.777267, -71.919800, -648.568115
1733469991.226365, 17.382952, -16.575507, -4.545691, 1.427274, 1.711754, -3.490927, -15.507584, -71.756882, -647.468445
1733469991.236368, 25.228601, -16.194829, 0.096367, 2.011191, 1.424583, -3.977811, -14.562363, -71.192780, -646.877563
1733469991.246374, 33.035494, -15.199290, 4.735132, 2.398882, 0.493758, -4.288908, -14.207214, -70.219284, -646.208374
1733469991.256363, 41.146899, -13.398252, 8.062923, 2.345285, -0.250816, -4.325037, -12.947403, -69.178131, -644.708740
1733469991.266366, 48.807596, -10.756849, 11.246762, 1.514672, -0.763221, -3.942378, -12.947403, -69.178131, -644.708740
1733469991.276423, 53.975780, -7.405266, 11.312304, 0.415150, -0.910409, -3.019845, -12.099884, -68.067154, -645.323120
1733469991.286364, 56.451983, -4.390966, 9.500491, -0.600931, -0.660404, -1.764779, -11.809433, -67.635941, -645.390198
1733469991.296369, 56.407690, -2.320879, 7.550863, -1.490415, -0.265227, -0.426776, -11.808258, -66.989471, -646.509277
1733469991.306385, 54.414667, -2.639607, 4.642956, -2.030357, 0.054448, 0.744784, -11.850113, -66.695023, -646.994629
1733469991.316367, 51.515439, -2.991705, 1.987337, -2.050302, 0.234813, 1.768393, -11.368027, -66.799576, -647.262085
1733469991.326367, 47.872361, -2.984522, 0.595109, -1.661611, 0.205496, 2.857356, -11.148590, -67.269455, -647.217163
1733469991.335436, 41.337687, -2.361132, 0.995838, -1.169599, 0.138413, 3.914116, -11.083206, -67.938599, -647.577515
1733469991.346097, 32.971449, -2.239327, 2.950704, -0.920518, 0.075059, 4.748363, -11.512299, -69.158005, -647.738464
1733469991.356380, 24.656835, -1.840243, 4.177283, -0.954904, 0.132619, 5.306942, -11.668854, -70.484146, -647.530396
1733469991.366370, 17.235259, -0.311097, 4.450222, -1.097529, 0.272750, 5.732991, -12.076294, -71.939270, -647.358521
1733469991.376374, 10.101436, 1.541417, 4.624101, -1.253468, 0.311111, 6.041393, -12.870438, -73.114609, -647.346497
1733469991.386377, 2.300977, 3.506159, 4.858434, -1.419807, 0.292086, 6.210985, -14.164780, -74.283875, -647.458008
1733469991.396377, -6.688502, 3.907487, 5.868039, -1.730665, 0.113668, 5.881848, -15.771866, -75.138046, -648.188232
1733469991.406360, -13.757232, 3.955371, 6.210858, -2.241014, -0.328281, 4.996958, -17.298035, -75.351089, -648.815063
1733469991.416405, -18.598607, 5.643882, 4.783016, -2.651716, -0.885146, 3.926659, -17.862564, -75.119843, -649.866272
1733469991.426361, -21.265748, 7.387010, 2.150592, -2.880525, -1.422686, 2.914311, -18.959030, -74.901184, -650.787537
1733469991.436368, -20.804415, 7.524228, -1.987187, -2.939174, -1.649708, 2.154801, -19.586777, -74.037323, -652.029541
1733469991.446422, -19.053655, 6.968623, -6.614281, -2.740710, -1.346162, 1.759846, -20.231354, -73.203293, -653.123657
1733469991.456366, -17.542914, 6.834398, -9.726893, -2.286442, -0.724287, 1.753367, -20.563202, -72.611450, -653.935791
1733469991.466366, -17.519571, 5.964106, -10.358364, -1.744145, -0.143484, 1.910819, -21.517563, -72.612259, -654.103394
1733469991.476364, -20.460698, 4.328866, -9.110985, -1.237277, -0.083347, 1.788101, -22.588318, -72.424210, -654.794189
1733469991.486434, -24.186076, 2.384625, -8.834155, -0.686866, -0.291367, 1.164010, -23.121017, -72.341095, -655.418213
1733469991.496402, -26.126277, 0.714370, -9.560496, -0.023341, -0.346558, 0.209883, -23.440491, -72.439346, -655.756409
1733469991.506437, -25.819520, -0.421230, -9.558401, 0.699945, -0.316904, -0.865008, -23.356552, -72.727631, -655.223206
1733469991.516394, -23.856574, -0.684442, -9.077466, 1.443608, -0.252275, -1.856024, -22.970718, -73.002045, -654.665283
1733469991.526409, -21.422119, 0.080655, -7.964312, 2.163371, -0.161029, -2.680239, -22.115494, -73.349548, -654.225830
1733469991.536362, -18.181567, 1.055843, -6.134992, 3.165857, -0.176475, -3.753590, -21.345520, -73.829468, -653.037048
1733469991.546363, -14.939369, 1.765275, -3.743783, 3.313472, -0.338823, -4.058295, -20.146423, -74.536240, -651.865112
1733469991.556356, -12.514642, 2.192490, -1.214010, 3.161509, -0.726320, -4.315143, -19.189117, -74.836746, -650.849304
1733469991.566356, -10.658836, 2.491616, 1.133804, 2.832005, -1.119779, -4.526536, -17.988846, -74.988571, -650.150330
1733469991.576371, -9.096021, 2.222418, 1.534833, 2.494451, -1.070573, -4.717138, -17.355225, -74.928604, -649.652466
1733469991.586363, -7.074716, 1.274314, -0.185251, 2.275756, -0.663295, -4.829502, -16.345657, -74.565430, -649.186707
1733469991.596352, -3.983203, 0.381127, -1.871518, 2.191194, -0.292445, -4.780600, -15.128113, -74.308868, -648.434570
1733469991.606360, -0.689680, -0.536301, -2.353650, 2.182084, -0.177128, -4.664775, -14.325562, -73.675034, -647.623230
1733469991.616361, 2.123208, -1.351377, -2.307412, 2.283936, -0.337032, -4.601830, -13.467499, -73.246597, -647.296997
1733469991.626372, 5.146037, -2.265813, -2.170493, 2.467986, -0.557184, -4.505616, -12.847885, -72.820740, -647.080078
1733469991.636359, 9.234286, -3.220201, -1.965191, 2.403207, -0.609966, -4.303383, -12.378052, -72.385696, -646.398804
1733469991.646358, 14.400674, -3.981258, -1.237503, 2.010329, -0.432808, -3.897628, -11.920929, -71.574310, -644.916382
1733469991.656352, 20.295647, -3.485509, -0.125247, 1.404012, -0.000117, -3.299270, -11.724777, -70.961472, -645.425171
1733469991.666372, 26.607960, -3.410241, 0.245106, 0.766519, 0.700942, -2.549972, -11.722717, -70.567902, -645.210938
1733469991.676375, 32.848746, -4.633379, 0.074669, 0.157066, 1.307183, -1.816077, -11.851471, -70.045425, -644.702515
1733469991.686356, 37.768681, -5.933580, 0.900669, -0.189710, 1.612864, -1.168444, -12.144989, -69.704132, -644.948181
1733469991.696358, 41.080161, -6.128109, 1.685219, -0.266305, 1.656978, -0.808026, -12.709106, -69.460342, -644.606079
1733469991.706362, 44.149528, -6.675633, 2.582595, -0.240039, 1.342136, -0.416020, -12.620636, -69.372452, -644.511902
1733469991.715808, 47.498567, -6.188712, 4.179827, -0.240039, 1.342136, -0.416020, -12.406113, -69.095993, -643.943542
1733469991.726357, 48.990454, -5.201702, 5.390545, -0.404028, 0.800109, 0.281013, -12.595200, -69.015076, -643.734375
1733469991.736351, 49.550248, -4.046201, 7.207295, -0.724867, 0.583794, 0.546460, -12.432404, -69.433655, -643.674072
1733469991.746375, 49.903991, -3.122039, 8.778640, -1.051992, 0.123712, 0.994344, -11.819778, -69.204712, -643.157959
1733469991.756362, 50.639610, -1.592743, 10.036044, -1.389760, -0.444183, 1.750092, -11.727768, -69.202499, -643.515747
1733469991.766374, 50.111688, 0.802357, 10.271275, -1.757529, -0.948421, 2.537465, -12.338669, -69.608383, -644.665222
1733469991.776360, 48.081854, 0.002693, 8.715343, -1.928909, -1.306654, 3.324189, -12.548172, -69.927155, -645.360413
1733469991.786360, 44.571954, -0.462231, 5.616797, -1.829338, -1.502127, 4.225685, -12.907379, -70.402710, -646.069946
1733469991.796348, 39.870341, 0.810138, 2.896834, -1.671988, -1.527649, 5.268758, -12.913574, -71.257812, -646.729126
1733469991.806347, 34.272099, 2.526781, 1.532738, -1.566100, -1.317322, 6.419037, -13.932678, -72.311325, -647.033813
1733469991.816346, 26.687717, 4.660762, 0.858172, -1.598817, -0.895479, 7.328779, -15.320969, -73.649887, -647.597961
1733469991.826347, 16.873884, 5.676353, 1.127819, -1.853917, -0.430156, 7.941239, -16.998367, -74.797882, -648.336731
1733469991.836353, 7.632715, 6.713641, 1.654693, -2.181009, 0.006212, 8.248910, -18.725677, -75.891800, -649.217041
1733469991.846356, -1.248427, 8.235306, 2.118270, -2.566164, 0.406574, 8.075946, -21.129868, -76.661423, -648.991699
1733469991.856346, -10.613945, 9.547627, 2.844910, -3.159481, 0.688633, 7.191328, -23.507141, -76.750626, -651.142090
1733469991.866342, -19.958664, 10.325743, 3.715951, -3.848687, 0.295178, 5.706682, -25.051575, -76.242462, -651.357422
1733469991.876346, -27.219529, 11.298687, 4.156633, -4.055765, -0.823934, 4.218342, -26.488190, -75.435959, -653.018799
1733469991.886362, -29.829059, 12.132168, 0.811634, -3.446636, -1.584042, 3.207512, -27.261795, -74.271927, -654.313660
1733469991.896352, -28.573450, 11.114034, -6.865373, -2.349162, -1.400114, 2.818265, -28.070175, -73.167343, -654.813782
1733469991.906354, -26.845884, 9.814132, -13.382390, -1.266801, -0.611184, 2.616202, -29.326859, -72.701721, -655.616638
1733469991.916367, -26.486006, 7.116764, -15.479561, -0.552827, 0.261439, 2.230714, -30.498444, -72.465591, -656.081177
1733469991.926354, -27.451617, 4.905869, -13.585897, -0.192907, 0.670335, 1.477889, -31.512039, -72.684341, -656.441101
1733469991.936352, -29.250261, 3.697396, -10.005219, 0.153402, 0.570462, 0.340568, -32.194458, -72.839615, -656.704529
1733469991.946359, -29.817836, 1.711106, -8.674043, 0.790123, 0.504038, -0.870155, -32.168976, -73.263641, -656.115845
1733469991.956352, -27.446529, 0.584933, -9.699360, 1.632664, 0.461128, -1.877314, -31.773727, -73.900543, -656.312012
1733469991.966351, -23.034614, 0.580744, -9.438841, 2.460915, 0.218906, -2.590391, -30.675873, -74.578537, -655.500244
1733469991.976404, -18.729690, 1.427543, -7.208492, 3.047245, -0.169502, -3.068046, -29.979584, -75.440430, -654.807007
1733469991.986345, -15.995512, 2.251148, -4.361936, 3.274830, -0.569453, -3.440046, -28.959061, -76.433685, -653.009399
1733469991.996354, -14.177564, 2.197578, -2.154931, 3.227816, -0.707791, -3.689148, -27.929733, -77.279587, -652.050842
1733469992.006345, -12.120796, 1.832013, -1.210419, 3.019614, -0.706805, -3.805854, -26.890518, -77.801727, -651.230103
1733469992.016337, -10.069863, 1.386392, -0.493654, 2.761592, -0.704750, -3.889742, -26.094666, -78.272400, -650.330078
1733469992.026395, -8.643517, 0.399083, -0.363170, 2.593999, -0.544874, -4.081212, -25.220657, -78.719452, -649.640442
1733469992.036340, -6.923882, -0.976236, -1.019780, 2.490989, -0.398939, -4.259980, -24.009369, -78.749710, -648.947632
1733469992.046339, -4.662109, -1.858200, -1.120187, 2.427208, -0.424441, -4.325043, -22.866898, -78.978149, -647.391418
1733469992.056342, -2.670283, -2.400337, -0.793977, 2.379597, -0.513508, -4.438200, -21.599487, -78.918686, -647.129089
1733469992.066339, -0.890793, -3.391985, -0.777517, 2.333673, -0.656945, -4.502597, -20.457947, -78.772247, -646.384583
1733469992.076390, 1.583615, -4.409222, -0.705092, 2.291336, -0.824569, -4.476310, -19.508453, -78.499237, -645.837891
1733469992.086334, 4.674978, -5.181202, -0.902614, 2.253975, -0.890603, -4.406839, -18.808884, -78.213470, -645.362732
1733469992.096341, 8.251466, -5.816563, -1.393425, 2.193728, -0.723252, -4.194862, -17.778458, -77.796890, -644.630859
1733469992.106336, 12.070517, -5.880608, -1.831864, 1.988500, -0.158736, -3.903987, -17.370987, -77.266510, -643.904297
1733469992.116344, 16.052972, -5.638046, -2.155979, 1.673027, 0.837890, -3.661336, -16.924088, -76.875336, -642.922852
1733469992.126344, 21.035456, -5.957821, -2.123208, 1.233176, 1.758129, -3.314816, -16.552460, -76.435898, -642.604004
1733469992.136341, 28.137556, -6.655731, 0.015562, 0.648549, 2.269157, -2.815500, -16.094299, -75.766449, -642.160339
1733469992.146355, 35.749770, -7.505074, 2.614767, 0.268698, 2.459440, -2.200735, -15.711777, -75.717407, -640.584778
1733469992.156340, 42.089916, -8.413524, 4.035876, 0.120046, 2.217743, -1.575930, -15.607559, -75.154282, -640.802490
1733469992.166348, 46.601489, -9.227552, 5.739650, 0.013958, 1.835392, -1.064121, -15.096619, -75.057037, -640.194580
1733469992.176341, 49.004968, -8.279449, 7.583035, -0.182011, 1.626622, -0.573476, -14.442886, -74.786545, -639.447021
1733469992.186337, 50.347517, -5.823147, 9.401731, -0.583237, 1.357189, 0.001271, -13.873917, -74.646072, -639.195007
1733469992.196348, 51.922902, -4.097975, 11.592724, -0.937407, 0.896541, 0.794450, -13.680130, -74.678024, -639.018066
1733469992.206348, 52.717178, -3.408595, 12.123489, -1.113136, 0.426224, 1.732183, -13.312378, -74.927612, -639.112061
1733469992.216344, 51.106180, -1.660379, 11.407922, -1.210641, -0.094861, 2.798940, -13.695419, -75.463608, -639.955383
1733469992.226346, 47.928775, 0.005686, 10.983699, -1.385130, -0.479843, 3.727008, -14.438553, -76.411163, -640.047668
1733469992.236338, 43.306469, -1.425897, 9.734375, -1.513324, -0.592000, 4.484921, -15.154495, -77.111160, -640.699951
1733469992.245999, 37.520133, -1.652747, 7.610569, -1.446437, -0.532266, 5.261224, -16.037033, -78.176041, -640.616943
1733469992.255353, 30.620343, -0.447566, 6.245125, -1.326460, -0.540540, 5.850082, -16.974792, -79.487579, -641.673523
1733469992.266334, 22.640918, -0.544681, 6.657676, -1.293649, -0.701634, 6.293195, -18.664276, -80.486877, -641.861084
1733469992.276331, 14.981717, 0.160262, 7.374590, -1.335349, -0.887431, 6.601130, -20.570602, -81.526611, -642.703918
1733469992.286344, 7.063942, 1.541417, 7.428160, -1.496303, -1.062183, 6.630323, -22.701584, -82.175934, -642.986450
1733469992.296334, -1.319055, 2.547730, 7.551162, -1.821606, -1.307591, 6.311316, -24.734848, -82.349579, -643.237610
1733469992.306329, -9.699509, 3.525013, 7.706935, -2.320908, -1.416244, 5.602166, -26.845184, -82.206329, -644.386230
1733469992.316331, -17.195156, 4.419547, 6.537517, -2.906744, -1.122564, 4.702762, -28.303101, -81.909912, -645.417725
1733469992.326333, -21.963658, 5.558738, 3.840150, -3.338760, -0.556784, 3.956427, -29.254791, -80.977982, -646.756104
1733469992.336337, -24.578575, 6.377405, 0.729783, -3.553033, -0.066249, 3.454864, -29.944885, -79.951630, -647.908447
1733469992.346346, -25.510518, 5.936722, -2.418742, -3.465918, 0.409618, 3.192177, -30.953125, -78.994385, -648.857178
1733469992.356344, -26.118645, 5.163694, -6.037877, -3.196612, 1.075504, 2.925929, -31.799622, -77.901428, -650.886902
1733469992.366354, -27.424682, 3.778649, -9.068637, -2.999202, 1.880988, 2.341184, -32.353500, -77.017609, -652.318726
1733469992.376333, -29.082368, 1.970727, -10.260202, -2.773512, 2.142108, 1.405803, -32.810242, -76.397675, -653.235596
1733469992.386327, -29.986328, 1.069011, -9.710882, -2.200967, 1.917897, 0.222215, -32.720642, -75.654541, -654.286011
1733469992.396348, -28.806286, 0.319476, -10.269629, -1.202853, 1.495327, -0.921599, -32.217789, -75.356186, -654.572510
1733469992.406336, -25.360431, -0.192883, -11.261726, 0.020990, 0.966247, -1.829852, -31.384155, -75.519440, -654.587341
1733469992.416329, -20.989667, 0.111330, -11.019912, 1.186921, 0.440849, -2.446409, -30.487823, -75.796173, -654.200562
1733469992.426324, -16.684144, 0.882114, -9.701305, 2.084778, 0.007779, -2.810099, -29.415680, -76.433350, -653.558838
1733469992.436326, -13.076232, 1.558925, -7.691373, 2.645142, -0.235999, -3.009820, -28.513824, -77.286987, -652.431213
1733469992.446338, -10.246435, 1.908179, -5.647622, 2.897082, -0.260725, -3.037001, -27.779968, -77.812363, -650.288330
1733469992.456325, -7.750929, 2.226458, -3.821445, 2.903457, -0.230490, -2.948570, -27.002090, -78.436951, -650.075989
1733469992.466323, -5.771223, 2.226009, -2.024896, 2.713470, -0.246175, -2.852561, -26.362473, -78.860092, -649.112305
1733469992.476322, -4.274398, 1.574038, -0.693121, 2.362405, -0.252932, -2.861409, -25.908493, -79.201569, -648.348877
1733469992.486386, -3.185336, 0.419285, -0.164003, 1.948196, -0.148134, -2.996018, -24.777573, -79.454956, -648.264404
1733469992.496333, -2.124704, -0.721403, -0.342820, 1.605734, -0.000166, -3.166068, -23.837189, -79.301636, -647.700195
1733469992.506344, -0.929250, -1.558775, -0.527024, 1.390427, 0.067198, -3.338758, -22.859558, -79.282669, -647.320984
1733469992.516345, 0.657957, -2.290204, -0.454000, 1.263061, 0.092723, -3.480475, -21.876694, -78.994827, -646.421387
1733469992.526329, 2.531719, -2.980631, -0.501585, 1.217222, 0.108794, -3.551123, -20.568542, -78.778458, -646.382446
1733469992.536323, 4.545990, -3.314024, -0.230442, 1.221884, 0.009731, -3.594359, -19.968887, -78.232086, -645.901794
1733469992.546324, 7.092074, -3.862745, 0.708983, 1.146343, -0.158187, -3.587722, -19.128891, -77.800156, -645.266235
1733469992.556322, 9.987562, -4.942680, 1.472135, 0.973608, -0.316607, -3.473892, -18.486038, -77.263397, -646.009583
1733469992.566331, 13.149704, -5.679346, 2.194435, 0.786672, -0.397990, -3.355339, -18.148438, -76.760971, -645.608459
1733469992.576320, 15.907824, -6.161478, 3.218705, 0.425575, -0.296187, -3.269887, -18.083054, -75.890640, -646.052002
1733469992.586320, 19.187731, -7.506271, 4.511723, -0.258436, -0.273878, -3.227812, -18.041580, -74.870697, -646.659180
1733469992.596334, 23.264308, -9.431060, 6.018275, -0.943854, -0.281241, -3.217107, -17.382721, -74.003571, -647.175110
1733469992.606342, 28.559235, -11.237934, 5.199159, -1.179447, -0.442799, -2.867696, -17.217209, -73.070618, -648.118347
1733469992.616328, 34.952950, -12.583924, 2.316689, -0.766582, -0.577575, -2.217695, -17.239349, -72.251984, -648.539001
1733469992.626329, 39.857173, -14.061146, -1.154604, -0.093054, -0.587695, -1.491841, -16.866348, -71.912201, -648.058533
1733469992.636327, 42.664973, -14.987553, -1.807622, 0.158805, -0.806473, -0.657745, -16.875427, -71.745346, -648.266357
1733469992.646328, 44.265946, -15.300595, 0.933888, -0.067840, -0.835290, 0.276780, -17.118790, -71.889221, -647.613525
1733469992.656322, 43.477505, -13.673585, 2.547580, -0.560418, -0.232116, 1.198792, -17.923004, -72.097656, -649.082214
1733469992.666320, 41.532964, -11.782315, 2.409614, -1.326297, 0.577025, 1.776478, -17.977982, -72.244308, -649.063660
1733469992.676329, 39.359029, -11.748647, 3.352631, -2.053296, 1.079756, 2.059332, -18.234375, -72.177902, -649.084045
1733469992.686344, 37.634456, -10.939257, 3.770269, -2.405241, 1.217233, 2.306098, -18.448975, -72.147293, -650.286316
1733469992.696360, 37.185842, -9.409512, 2.568230, -2.400402, 0.933099, 2.616763, -17.996048, -71.922028, -650.298218
1733469992.706441, 36.693535, -8.456470, 1.607258, -2.139762, 0.354707, 3.159444, -17.979782, -72.062820, -650.415649
1733469992.716395, 35.052010, -6.127510, 0.688932, -1.799992, -0.082913, 3.944755, -17.750946, -72.484467, -650.820679
1733469992.726339, 31.349976, -3.290232, -0.597353, -1.530305, -0.114163, 4.870608, -17.750946, -72.484467, -650.820679
1733469992.736322, 17.572093, 1.032200, -1.167622, -1.464157, 0.245482, 5.716925, -18.555161, -73.195328, -650.764465
1733469992.746319, 8.635736, 2.165256, 0.019453, -1.660860, 0.741251, 6.305565, -20.395599, -74.593918, -650.562073
1733469992.756323, 8.635736, 2.165256, 0.019453, -2.062042, 1.169917, 6.403264, -20.395599, -74.593918, -650.562073
1733469992.766333, -10.570400, 3.239355, 2.120814, -2.563268, 1.358942, 5.816753, -22.653778, -74.738327, -652.447754
1733469992.776323, -17.797298, 3.804237, 2.039261, -3.034979, 1.197937, 4.615682, -22.757812, -74.081329, -653.272888
1733469992.786313, -20.937892, 6.919093, 0.463577, -3.322782, 0.780066, 3.337901, -22.757812, -74.081329, -653.272888
1733469992.796316, -20.607792, 10.610054, -2.176180, -3.284225, 0.009924, 2.462547, -22.832642, -73.296677, -654.065430
1733469992.806322, -19.820847, 11.491869, -5.976227, -2.742531, -1.133542, 2.018879, -23.388931, -72.269104, -655.099609
1733469992.816310, -20.199281, 10.865785, -10.748170, -1.714661, -1.961715, 1.859443, -24.310074, -71.730286, -655.579590
1733469992.826320, -21.168783, 8.767716, -14.386159, -0.604195, -2.047614, 1.729778, -25.440292, -71.485504, -655.854431
1733469992.836315, -22.350321, 5.969493, -15.987282, 0.348771, -1.373760, 1.442223, -26.972900, -71.545929, -656.522827
1733469992.845706, -22.350321, 5.969493, -15.987282, 1.062913, -0.363505, 0.940495, -27.816925, -72.224747, -656.274048
1733469992.856320, -23.006632, 3.556138, -12.106730, 1.588931, 0.531508, 0.273498, -28.088760, -73.040268, -655.842529
1733469992.866318, -21.270686, 2.747197, -9.108441, 2.044820, 1.048583, -0.527750, -28.526947, -74.017258, -655.520508
1733469992.876321, -18.271799, 2.767697, -6.179883, 2.493650, 1.069949, -1.292740, -27.944641, -74.839859, -654.482056
1733469992.886311, -14.812626, 3.517232, -3.673902, 2.934467, 0.672946, -1.840074, -27.045227, -75.756607, -653.708069
1733469992.896310, -12.034904, 4.127005, -1.679981, 3.268425, 0.030664, -2.156884, -26.557526, -76.702499, -652.594482
1733469992.906312, -10.068217, 4.112640, -0.577152, 3.427727, -0.573008, -2.342129, -25.674576, -77.471283, -651.446289
1733469992.916309, -8.244583, 4.048296, -0.308852, 3.412080, -0.900486, -2.401879, -24.925247, -78.310837, -650.090454
1733469992.926304, -6.293458, 3.699490, -0.425569, 3.260674, -0.870425, -2.334748, -24.732574, -79.040421, -648.650513
1733469992.936312, -4.712387, 2.454356, -0.383671, 2.995883, -0.570195, -2.243297, -24.256210, -79.661789, -647.826538
1733469992.946316, -3.149273, 0.864606, -0.218022, 2.676436, -0.169479, -2.187160, -23.727753, -80.393677, -647.035767
1733469992.956308, -1.255011, -0.302717, 0.250942, 2.378707, 0.176327, -2.089832, -23.364960, -80.550980, -645.947998
1733469992.966303, 0.264260, -1.588104, 0.957681, 2.096806, 0.350372, -1.971800, -23.128357, -80.941223, -645.445068
1733469992.976323, 1.866430, -3.789572, 1.651101, 1.884336, 0.329825, -1.965598, -22.810074, -81.140594, -644.746460
1733469992.986316, 4.309563, -6.243180, 2.484283, 1.751870, 0.163327, -2.007994, -22.538345, -81.286285, -644.349915
1733469992.996314, 6.855796, -8.939799, 3.374478, 1.627539, -0.184603, -2.040730, -22.523804, -81.340256, -644.036987
1733469993.006315, 9.540295, -11.542596, 3.818153, 1.492435, -0.501719, -2.057416, -21.694839, -81.268723, -643.442139
1733469993.016324, 12.035951, -12.945149, 4.162768, 1.283229, -0.656895, -2.027539, -21.640152, -81.098557, -643.089600
1733469993.026317, 14.335731, -13.261333, 4.526837, 0.956589, -0.614469, -1.934336, -21.202087, -80.729752, -642.659607
1733469993.036309, 16.538846, -14.369849, 4.925920, 0.513374, -0.639383, -1.812351, -21.422791, -80.717453, -643.160156
1733469993.046306, 19.156007, -17.029358, 3.575291, 0.123349, -0.749391, -1.797327, -21.372620, -80.317673, -643.368469
1733469993.056306, 22.282087, -20.230256, 0.604985, 0.128249, -0.787883, -1.686477, -21.155136, -80.041168, -643.898193
1733469993.066331, 23.837869, -22.644509, -1.485602, 0.518959, -0.685274, -1.542809, -21.509323, -79.922485, -643.996094
1733469993.076308, 24.087315, -23.951893, -1.412429, 0.998687, -0.430377, -1.753348, -21.278107, -79.841293, -643.498657
1733469993.086305, 26.063429, -23.885903, 0.884508, 1.328166, -0.315499, -1.912763, -20.938461, -79.679367, -643.222961
1733469993.096307, 27.414208, -23.209241, 3.295020, 1.378303, -0.238195, -2.010546, -20.203934, -79.667923, -642.787720
1733469993.106306, 27.554867, -22.613534, 5.200954, 1.206280, 0.060074, -2.175432, -19.351166, -79.341690, -642.557800
1733469993.116311, 28.229583, -20.329166, 7.902661, 0.784758, 0.438858, -2.292657, -18.601791, -79.253647, -641.816406
1733469993.126302, 29.781175, -17.605912, 11.880478, 0.233888, 0.296906, -2.379039, -18.070007, -78.669876, -641.676636
1733469993.136335, 31.547497, -15.794399, 13.690793, -0.334434, -0.520523, -2.447411, -17.130768, -78.092819, -642.033752
1733469993.146305, 32.723499, -13.445088, 11.598261, -0.699199, -1.442937, -2.393410, -16.161865, -77.287338, -641.790894
1733469993.156318, 33.079936, -10.224139, 7.479785, -0.866711, -1.869085, -2.186704, -15.157654, -76.239990, -642.550415
1733469993.166303, 33.520320, -6.895151, 3.616442, -0.897369, -1.603952, -1.739530, -14.273590, -75.395416, -643.047791
1733469993.176356, 33.875110, -3.168576, 1.023671, -0.714650, -0.989886, -0.870296, -13.447815, -75.114899, -643.699768
1733469993.186301, 33.205033, -0.644788, -0.378433, -0.411776, -0.190071, 0.304098, -12.878540, -74.994553, -643.304199
1733469993.196312, 30.975583, 1.562516, 0.096067, -0.126110, 0.499698, 1.652094, -12.500687, -75.157379, -643.000061
1733469993.206314, 26.640132, 3.473089, 1.863138, 0.068377, 0.942352, 2.992947, -12.637878, -76.332352, -642.699341
1733469993.216388, 20.858435, 4.920384, 4.701913, 0.086905, 0.956730, 4.175442, -13.101685, -77.608032, -641.950989
1733469993.226298, 13.320590, 6.518364, 7.539491, -0.163225, 0.693834, 5.038441, -14.299149, -78.640457, -641.757812
1733469993.236295, 4.916643, 7.411401, 9.627983, -0.748343, 0.084527, 5.435227, -15.285675, -79.870880, -641.863159
1733469993.245843, -4.135385, 8.405892, 9.716718, -1.435629, -0.859149, 5.372767, -17.020264, -80.724091, -642.314331
1733469993.256302, -13.200730, 8.994567, 7.448661, -2.037698, -1.762809, 4.848741, -18.695709, -80.979721, -643.773926
1733469993.266305, -20.155886, 9.224260, 3.550003, -2.525578, -2.359313, 4.032714, -19.913651, -80.638992, -644.662415
1733469993.276301, -23.146842, 9.513660, -2.212991, -2.882767, -2.234834, 3.334108, -20.904312, -80.140747, -646.192200
1733469993.286296, -23.255330, 8.697536, -8.833706, -3.024778, -1.176638, 2.943697, -22.295288, -79.716324, -647.737549
1733469993.296379, -23.019351, 6.377106, -13.815441, -2.738016, 0.356879, 2.677322, -23.357468, -79.135284, -648.757141
1733469993.306296, -22.963985, 4.233397, -15.270069, -1.967774, 1.658947, 2.345880, -23.758408, -79.095444, -649.426758
1733469993.316302, -23.346908, 3.112163, -13.103017, -1.058387, 2.153045, 1.828851, -24.600891, -79.072357, -649.223022
1733469993.326298, -23.774422, 1.851167, -9.921272, -0.227701, 1.700600, 0.949794, -24.949722, -79.382462, -649.995728
1733469993.336347, -22.311865, 0.905308, -8.539668, 0.662297, 0.790067, -0.062081, -24.556046, -79.675293, -649.540771
1733469993.346320, -18.973150, 0.845752, -8.185476, 1.567773, -0.020631, -0.900036, -24.036209, -80.093582, -648.070862
1733469993.356295, -15.089306, 1.409586, -7.346159, 2.285508, -0.538800, -1.418554, -23.914352, -80.446976, -647.663208
1733469993.366296, -11.595119, 1.896806, -6.030994, 2.744715, -0.753924, -1.604744, -23.573776, -81.219116, -646.753479
1733469993.376332, -8.935759, 2.044499, -4.586692, 2.920936, -0.672198, -1.553676, -23.134399, -81.742340, -645.387939
1733469993.386290, -7.471555, 1.784877, -2.970157, 2.834041, -0.442075, -1.384419, -23.224121, -82.274200, -644.440369
1733469993.396300, -6.795941, 0.550068, -1.840243, 2.568486, -0.093762, -1.336118, -23.021927, -82.653900, -643.643555
1733469993.406304, -5.739949, -0.963068, -1.265784, 2.233099, 0.347390, -1.430293, -22.586288, -83.168915, -642.620361
1733469993.416293, -3.928137, -1.840094, -0.470461, 1.891624, 0.732219, -1.525966, -22.324234, -83.516479, -641.953064
1733469993.426302, -1.777844, -2.868403, 1.002422, 1.622885, 0.692569, -1.670879, -22.233124, -83.697906, -641.709595
1733469993.436300, 0.528969, -4.043657, 1.876605, 1.465203, 0.264547, -1.826711, -21.321823, -83.797424, -641.559937
1733469993.446294, 2.595913, -4.697424, 2.211045, 1.434992, -0.342357, -1.925259, -21.212311, -83.647278, -639.936768
1733469993.456302, 4.363732, -4.929362, 2.644396, 1.486637, -1.051439, -1.983567, -20.959137, -83.425262, -639.983765
1733469993.466305, 6.044162, -5.513846, 2.462586, 1.541830, -1.660114, -2.001716, -20.459152, -83.300812, -640.156006
1733469993.476339, 7.952191, -6.734291, 1.830816, 1.483564, -1.828352, -1.956200, -20.644852, -83.253952, -639.988647
1733469993.486301, 10.283695, -7.959224, 1.362899, 1.145523, -1.460257, -1.892044, -20.486557, -82.889267, -639.252563
1733469993.496292, 12.859706, -8.240842, 0.680253, 0.715406, -0.722768, -1.822659, -20.891708, -82.608093, -639.594116
1733469993.506305, 15.573085, -8.187421, -0.381127, 0.488607, 0.417510, -1.835019, -21.079071, -82.604797, -639.725830
1733469993.516303, 19.889980, -9.208548, 0.287603, 0.440990, 1.674699, -2.079465, -20.903351, -82.215042, -639.041626
1733469993.526293, 26.891374, -9.903615, 4.000561, 0.465093, 2.299370, -2.157120, -20.217743, -82.014542, -638.563110
1733469993.536302, 33.917308, -10.982053, 8.513931, 0.573538, 1.936144, -1.869613, -19.860245, -81.775818, -638.107910
1733469993.546297, 38.728456, -12.628666, 11.817480, 0.714225, 0.862492, -1.229618, -19.106018, -81.854340, -637.432251
1733469993.555986, 41.120862, -14.543129, 13.117981, 0.764041, -0.274926, -0.397563, -18.844940, -81.722153, -637.908630
1733469993.566296, 40.948929, -15.876999, 12.922255, 0.628028, -1.005685, 0.540644, -18.837173, -81.889114, -637.786804
1733469993.575750, 37.585973, -15.976358, 11.749844, 0.265644, -0.918100, 1.401014, -19.352081, -82.258377, -637.722717
1733469993.586296, 32.857275, -14.753819, 11.613225, -0.423602, 0.003646, 2.029011, -20.200409, -82.512543, -637.622742
1733469993.596296, 30.057705, -14.903307, 13.447034, -1.669716, 1.162775, 2.360158, -20.824738, -82.608826, -638.506897
1733469993.606294, 28.846838, -15.535825, 14.070274, -3.058331, 1.806847, 2.548621, -21.156769, -82.378311, -639.450378
1733469993.616289, 27.281479, -14.407258, 11.422437, -3.990211, 1.963086, 2.750733, -21.571518, -82.048401, -640.942566
1733469993.626300, 24.867974, -11.602152, 8.066065, -4.355514, 1.804343, 2.986957, -22.184174, -81.812088, -642.425354
1733469993.636286, 22.629994, -11.376049, 5.212027, -4.218644, 1.298917, 3.228784, -22.949020, -81.430084, -643.934814
1733469993.645881, 19.449896, -12.247838, 2.640954, -3.693193, 0.498756, 3.419508, -23.003082, -81.232285, -644.168335
1733469993.656282, 14.327651, -10.863989, 0.546477, -2.997193, -0.208915, 3.583016, -23.564926, -80.841263, -645.449707
1733469993.666281, 7.166444, -9.163208, -0.598401, -2.341646, -0.596648, 3.657362, -24.678192, -80.635178, -646.222839
1733469993.676342, -1.107019, -8.850017, -0.331597, -1.882021, -0.832866, 3.415373, -25.574371, -80.393341, -646.832092
1733469993.686282, -8.473529, -8.323592, 0.621894, -1.693888, -1.222654, 2.783461, -26.187302, -80.142639, -647.218506
1733469993.696299, -13.409624, -5.938368, 0.801010, -1.791959, -1.770231, 1.956796, -26.536865, -79.565475, -647.811951
1733469993.706290, -15.632640, -2.914941, -1.448941, -1.975014, -2.104760, 1.248738, -26.879166, -78.921310, -648.727905
1733469993.716295, -15.894806, -0.967856, -5.492299, -1.994241, -1.896868, 0.837454, -27.046494, -78.509186, -649.813477
1733469993.726281, -15.665261, -0.141408, -8.737938, -1.835196, -1.161953, 0.675565, -27.395142, -77.954773, -650.359497
1733469993.736335, -15.965734, 0.326060, -9.985617, -1.625710, -0.333860, 0.575358, -27.810822, -77.510345, -650.788879
1733469993.745963, -16.666636, 0.634912, -10.143784, -1.386851, 0.182354, 0.401900, -27.988113, -77.538391, -650.731873
1733469993.756296, -17.331626, 0.517148, -10.412832, -1.032493, 0.397110, 0.083421, -27.966614, -76.991074, -651.768311
1733469993.766292, -17.426346, 0.388609, -10.905439, -0.553489, 0.515167, -0.391253, -27.883163, -76.966278, -652.015625
1733469993.776285, -16.750733, 0.405219, -11.026496, 0.008981, 0.640820, -0.997549, -27.429153, -77.130539, -652.013550
1733469993.786337, -14.981118, 0.830040, -10.439318, 0.627785, 0.679742, -1.619349, -26.621872, -77.238907, -651.277832
1733469993.796279, -12.325649, 1.595436, -9.437943, 1.267412, 0.648438, -2.125468, -25.435776, -77.586746, -650.609863
1733469993.806280, -9.454852, 2.569128, -7.738958, 1.873182, 0.541617, -2.421455, -24.628479, -78.289383, -649.856873
1733469993.816286, -7.029077, 3.233519, -5.657199, 2.343506, 0.294328, -2.509511, -23.890106, -78.734802, -648.760803
1733469993.826289, -5.152172, 3.356820, -3.857508, 2.628487, 0.028358, -2.486501, -22.715500, -79.148834, -647.950073
1733469993.836278, -3.550152, 3.343054, -2.470068, 2.718250, -0.131420, -2.367297, -21.909607, -79.643326, -646.801331
1733469993.845548, -2.590077, 3.252822, -1.178396, 2.623436, -0.307111, -2.175330, -21.652359, -80.111649, -645.149780
1733469993.856285, -2.116025, 2.706196, -0.597503, 2.412535, -0.475155, -2.020916, -21.356049, -80.351349, -644.812378
1733469993.866277, -1.920150, 1.926584, -0.818667, 2.210672, -0.523197, -1.941171, -20.893753, -80.764755, -644.229980
1733469993.876276, -1.569698, 1.225682, -1.311424, 2.074821, -0.348305, -1.906261, -20.270691, -80.760788, -643.440674
1733469993.886305, -0.671125, 0.547374, -1.369334, 1.985237, 0.001238, -1.909077, -19.593628, -80.960938, -642.761658
1733469993.896338, 0.873584, 0.081403, -0.556652, 1.956696, 0.284355, -1.867924, -18.965744, -81.162308, -641.914917
1733469993.906290, 2.472612, -0.245705, 0.467767, 1.948047, 0.411608, -1.719806, -18.825317, -81.540024, -641.329834
1733469993.916283, 4.365228, -0.839317, 1.521515, 1.926435, 0.398368, -1.521018, -18.378937, -81.633469, -640.309021
1733469993.926273, 6.865224, -1.468992, 4.002058, 1.889240, -0.927222, -0.690441, -18.393433, -81.852112, -640.042114
1733469993.936285, 9.277831, -2.158223, 6.421847, 1.480386, -1.783362, -0.216692, -19.275330, -82.240295, -640.000610
1733469993.946268, 11.060015, -4.287716, 7.761104, 0.866333, -2.438528, -0.020298, -20.761169, -82.482056, -639.921448
1733469993.956273, 11.769746, -7.370999, 7.840113, 0.326714, -2.190527, -0.315235, -23.218857, -82.697220, -641.487366
1733469993.966281, 13.154492, -11.182568, 4.671686, -0.011134, -1.142544, -1.016350, -23.795227, -82.374832, -641.785889
1733469993.976278, 17.310527, -15.715390, 1.616385, -0.023250, -0.033319, -1.516247, -24.036469, -82.267563, -642.177185
1733469993.986273, 23.385365, -16.542138, 0.588525, 0.353702, 0.568183, -1.713804, -23.719421, -82.129852, -641.904297
1733469993.996284, 29.582756, -15.459061, 1.519271, 0.899267, 0.258566, -1.476558, -23.359436, -82.198090, -641.839966
1733469994.006336, 36.056677, -14.978126, 4.557213, 0.899267, 0.258566, -1.476558, -23.888565, -82.195953, -641.653809
1733469994.016272, 40.094049, -15.259893, 7.661146, 1.405444, -1.723852, -0.637349, -24.297089, -82.428436, -641.292542
1733469994.026280, 42.104131, -18.211495, 8.456021, 1.188970, -2.180879, -0.285975, -23.551971, -82.341095, -641.156982
1733469994.036268, 42.941354, -19.810522, 7.823204, 0.580933, -2.170578, 0.392468, -23.477295, -82.397919, -640.906128
1733469994.046272, 42.670210, -16.691775, 7.999477, -0.363744, -1.795107, 1.421443, -24.105743, -82.374664, -640.365234
1733469994.056277, 41.524585, -14.060249, 7.056909, -1.273311, -1.004938, 2.435919, -24.486923, -82.472382, -641.753662
1733469994.066278, 38.538716, -13.438355, 3.888483, -1.937900, -0.085495, 3.246540, -25.794434, -82.597687, -642.370605
1733469994.076271, 34.527231, -13.385682, 0.678756, -2.180171, 0.627638, 3.841057, -26.443787, -82.910507, -643.212280
1733469994.086288, 30.398580, -12.988544, -1.833210, -1.940085, 1.015692, 4.390850, -27.003983, -82.943512, -643.942749
1733469994.096270, 26.114455, -12.076353, -3.155707, -1.498414, 1.175982, 4.885327, -28.283478, -83.330963, -644.138611
1733469994.106269, 20.742615, -10.422109, -2.849100, -1.098420, 1.215642, 5.252611, -29.349380, -83.614777, -644.469604
1733469994.116268, 14.476840, -8.627057, -1.578677, -0.815428, 1.259459, 5.440783, -30.554398, -83.889160, -644.251221
1733469994.126277, 7.529465, -7.016208, 0.068534, -0.698536, 1.247493, 5.385947, -31.904205, -84.195587, -644.449951
1733469994.136292, 0.717063, -5.439028, 2.019808, -0.812152, 1.086991, 5.001701, -33.110733, -84.241455, -644.034729
1733469994.146269, -5.793818, -3.906290, 3.566912, -1.086537, 0.929933, 4.274606, -34.704178, -84.181488, -644.042297
1733469994.156273, -12.365303, -2.710685, 3.850924, -1.475862, 0.765610, 3.064098, -35.188797, -83.859573, -645.212646
1733469994.166266, -18.179921, -2.398392, 3.258209, -1.825305, 0.474122, 1.767637, -34.781723, -83.392868, -645.690002
1733469994.176274, -19.624224, 0.139612, 1.495478, -1.808369, 0.211009, 1.026642, -34.714874, -82.827209, -646.246033
1733469994.186269, -16.409559, 3.348441, -2.029535, -1.445526, 0.070010, 0.936993, -34.751862, -82.534393, -646.628784
1733469994.196268, -12.248287, 4.857386, -5.071368, -0.964008, -0.000851, 1.280618, -35.226898, -82.305267, -646.879639
1733469994.206269, -9.660304, 5.386505, -6.549937, -0.548901, -0.030572, 1.738305, -36.678421, -82.042877, -647.168091
1733469994.216271, -9.487473, 4.773589, -6.728455, -0.371856, -0.110701, 1.895121, -37.866806, -82.180267, -647.611877
1733469994.226266, -11.988516, 3.238607, -5.774066, -0.427551, -0.256479, 1.579079, -38.593262, -82.027817, -648.006226
1733469994.236269, -15.053842, 1.816152, -4.950311, -0.471474, -0.474883, 0.864331, -39.317062, -81.749084, -648.309448
1733469994.246266, -17.027113, 1.046865, -5.008071, -0.336929, -0.670602, 0.067570, -39.634094, -81.949249, -647.614380
1733469994.256282, -16.776919, 1.417667, -5.901557, 0.038950, -0.713700, -0.620687, -39.453125, -81.856888, -648.283569
1733469994.266265, -15.005509, 1.714997, -7.087286, 0.551916, -0.613220, -1.158893, -39.493073, -82.376892, -648.076233
1733469994.276260, -12.810475, 1.990030, -7.331345, 1.020054, -0.495988, -1.532822, -38.618698, -82.714127, -647.551758
1733469994.286259, -10.711359, 2.625242, -6.267571, 1.318203, -0.413161, -1.779683, -38.618698, -82.714127, -647.551758
1733469994.296268, -9.085696, 3.176507, -4.778228, 1.463489, -0.268145, -1.937084, -38.163223, -82.896637, -646.863464
1733469994.306292, -7.894431, 3.386000, -3.747524, 1.494819, -0.017070, -2.015367, -37.282013, -83.373428, -646.225586
1733469994.316261, -6.894403, 3.456778, -2.925565, 1.415246, 0.205789, -2.046307, -36.496994, -83.809525, -645.339600
1733469994.326277, -6.293907, 3.602525, -1.862090, 1.267226, 0.269446, -2.103224, -35.727234, -84.022949, -644.572144
1733469994.336266, -6.064064, 3.817405, -0.901118, 1.160288, 0.185403, -2.245548, -34.807831, -84.523788, -644.295959
1733469994.346322, -6.053739, 3.561076, -0.498443, 1.136916, 0.131897, -2.486015, -34.027420, -84.753601, -644.235413
1733469994.356263, -6.067356, 2.788796, -0.819715, 1.170956, 0.315594, -2.784424, -32.881210, -84.889969, -642.597046
1733469994.366270, -5.572355, 2.031480, -1.684171, 1.228166, 0.696898, -2.961782, -31.334381, -85.037003, -643.025208
1733469994.376267, -4.055179, 1.914164, -1.995567, 1.266901, 1.027532, -2.998920, -29.967178, -84.830795, -642.387878
1733469994.386268, -2.261473, 1.888127, -1.275361, 1.328266, 0.948256, -2.954859, -28.646759, -84.892273, -641.829834
1733469994.396275, -0.185102, 1.647660, 0.149039, 1.451951, 0.368822, -2.871486, -27.790771, -84.976898, -641.208557
1733469994.406255, 1.873912, 0.281768, 1.707814, 1.558494, -0.427974, -2.938292, -27.330887, -85.019165, -641.011292
1733469994.416267, 3.944597, -2.879327, 2.540547, 1.604576, -1.262364, -3.176419, -26.769302, -84.954010, -640.396606
1733469994.426308, 6.349124, -6.634782, 2.695273, 1.512514, -1.620081, -3.388771, -26.051865, -84.737274, -640.343384
1733469994.436284, 9.411457, -8.967782, 1.697339, 1.246940, -1.277062, -3.307687, -25.063217, -84.395447, -639.827576
1733469994.446263, 13.557017, -9.159767, -0.075866, 1.022759, -0.152187, -2.991922, -24.608093, -84.172836, -639.210449
1733469994.456254, 18.847006, -10.392481, -1.968333, 0.892270, 1.052171, -2.458601, -23.997391, -84.003479, -639.151306
1733469994.466259, 24.300399, -13.712341, -0.771831, 0.658987, 1.642526, -2.019529, -24.223541, -83.878418, -639.521118
1733469994.476261, 28.517935, -17.541567, 2.471415, 0.584771, 1.942340, -1.865546, -24.129623, -83.876740, -639.380981
1733469994.486254, 31.392024, -22.148161, 5.351490, 0.457966, 1.786900, -2.051550, -23.808411, -83.749374, -638.908875
1733469994.496264, 33.029059, -25.423429, 9.974394, 0.064518, 1.744241, -2.509671, -23.507553, -83.322891, -638.576904
1733469994.506267, 34.245763, -25.278729, 13.417705, -0.381372, 1.920102, -2.938047, -22.554581, -82.780594, -638.245178
1733469994.516262, 40.156448, -23.479936, 16.548572, -0.797415, 1.196148, -2.501603, -20.906662, -82.034271, -637.507751
1733469994.526265, 50.735527, -19.203892, 21.372739, -1.215446, 0.156224, -1.235030, -19.998108, -81.288239, -637.775024
1733469994.536259, 57.413854, -15.322891, 22.696882, -1.668153, -0.479901, 0.338755, -19.096970, -80.854660, -638.147461
1733469994.546266, 57.649682, -12.507459, 21.766136, -2.322192, -0.865609, 1.885140, -19.176773, -80.736465, -639.259033
1733469994.556252, 54.355860, -11.090391, 20.725107, -3.093627, -1.019477, 3.323769, -19.391922, -80.513657, -639.960754
1733469994.566254, 48.585085, -9.849596, 17.315016, -3.623421, -0.899411, 4.518166, -20.196625, -80.568863, -641.328796
1733469994.576248, 40.723724, -8.522759, 11.270106, -3.736007, -0.381796, 5.493393, -21.119720, -80.582336, -643.276001
1733469994.586261, 30.971393, -6.270863, 5.462072, -3.682699, 0.124771, 5.890107, -22.368744, -80.811127, -644.437561
1733469994.596268, 19.749021, -5.307795, 2.755726, -3.553168, 0.497691, 5.800683, -23.714096, -80.860184, -645.638184
1733469994.606255, 9.400384, -4.342334, 1.487099, -3.485483, 0.518280, 5.235776, -25.188766, -80.734482, -646.547302
1733469994.615711, 0.606481, -3.236362, 1.320701, -3.491316, 0.082873, 4.464855, -26.203812, -80.268875, -647.528381
1733469994.626249, -4.558710, -0.672022, 0.512658, -3.234490, -0.409513, 3.938745, -26.994202, -79.713974, -648.716797
1733469994.636251, -7.248894, 3.547758, -2.462137, -2.580818, -0.542992, 3.384715, -28.116486, -79.254379, -649.684692
1733469994.646250, -12.010962, 5.485116, -5.595100, -1.852872, -0.468475, 2.612414, -28.524384, -78.746857, -649.702759
1733469994.656250, -16.439786, 6.295703, -6.347777, -1.398035, -0.505881, 1.893791, -29.012726, -78.233017, -650.218628
1733469994.666305, -17.717242, 7.800758, -5.192574, -1.330817, -0.629144, 1.501465, -29.427979, -78.098160, -650.811035
1733469994.676274, -15.671995, 9.263465, -4.077176, -1.560588, -0.728939, 1.499833, -29.635986, -77.699402, -651.253357
1733469994.686259, -12.714857, 9.979332, -3.670311, -1.799015, -0.735878, 1.785744, -30.689026, -77.178864, -652.027466
1733469994.696258, -11.546038, 10.055348, -4.604948, -1.977870, -0.505899, 2.002786, -31.906906, -76.617722, -652.613831
1733469994.706259, -12.715755, 8.642918, -6.199187, -2.019812, -0.177834, 1.924054, -32.867920, -76.120224, -653.792542
1733469994.716252, -14.704738, 6.639271, -7.582586, -1.836389, 0.167993, 1.565373, -33.993561, -75.614487, -654.807190
1733469994.726249, -16.163854, 4.615572, -8.832360, -1.444205, 0.422462, 1.063749, -34.122147, -75.037369, -655.176575
1733469994.736259, -16.293590, 3.083283, -9.639355, -0.882490, 0.470115, 0.559555, -34.355133, -74.858780, -655.966797
1733469994.746316, -15.803826, 2.190395, -9.826851, -0.196445, 0.357396, -0.000510, -34.522995, -74.793579, -655.291870
1733469994.756256, -15.368530, 1.344494, -9.887754, 0.530581, 0.271480, -0.545206, -34.036041, -74.780746, -655.639465
1733469994.766278, -14.453795, 1.242740, -9.829245, 1.232729, 0.282574, -1.018821, -33.843506, -75.196381, -655.535889
1733469994.776260, -12.981361, 1.488296, -9.248202, 1.860650, 0.359472, -1.386997, -33.348236, -75.903381, -654.641113
1733469994.786256, -11.048193, 1.748815, -7.963564, 2.364183, 0.388353, -1.565658, -32.585724, -76.656052, -654.508240
1733469994.796245, -9.135226, 2.494459, -6.001366, 2.688260, 0.381204, -1.611602, -31.856186, -77.427078, -653.205139
1733469994.806247, -7.492504, 3.039439, -3.939210, 2.780840, 0.395456, -1.584862, -31.141754, -78.396500, -651.786255
1733469994.816254, -6.382193, 3.051560, -2.108394, 2.700315, 0.418568, -1.490939, -30.331451, -79.111282, -650.952332
1733469994.826324, -5.868488, 3.089568, -0.424672, 2.451581, 0.440547, -1.422102, -29.882675, -79.724533, -650.078613
1733469994.836258, -5.634754, 2.800767, 1.096993, 2.040962, 0.320067, -1.387430, -29.727112, -80.141266, -649.104858
1733469994.846252, -5.324854, 2.456152, 2.448819, 1.574551, -0.042673, -1.426473, -29.311157, -80.681732, -647.975525
1733469994.856243, -5.301211, 2.138770, 3.015347, 1.248326, -0.526781, -1.557544, -28.933411, -80.867874, -647.783875
1733469994.866249, -5.482572, 1.681478, 1.878850, 1.284613, -0.813994, -1.752628, -28.858734, -81.123154, -647.982666
1733469994.876297, -5.504868, 0.298976, -0.825102, 1.603920, -0.593741, -1.997156, -28.349731, -81.125961, -647.313599
1733469994.886242, -5.135413, -1.382951, -3.364452, 1.958273, -0.020624, -2.318284, -28.088638, -81.490005, -646.872314
1733469994.896236, -4.106505, -3.106477, -4.001609, 2.194173, 0.232068, -2.683189, -27.214340, -81.680313, -645.927551
1733469994.906241, -1.341052, -4.771794, -2.408717, 2.330215, -0.033313, -2.915793, -26.748810, -81.891251, -644.980042
1733469994.916294, 2.001253, -6.652140, -0.554856, 2.393872, -0.641066, -2.990702, -25.793701, -82.381836, -644.487793
1733469994.926240, 5.794866, -8.317457, 0.966809, 2.353976, -1.491104, -2.783292, -24.788788, -82.416611, -643.691284
1733469994.936261, 9.573664, -8.997111, 2.050933, 2.137025, -2.022230, -2.327378, -24.976929, -82.328491, -643.058960
1733469994.946251, 12.489952, -10.928483, 1.679084, 1.700373, -1.907382, -1.888377, -25.613708, -82.591263, -642.406677
1733469994.956254, 15.172954, -14.446912, 0.050129, 1.242932, -0.819523, -1.708808, -26.647598, -82.653275, -643.203430
1733469994.966248, 18.084602, -18.098818, -2.846855, 0.991438, 0.896900, -1.826470, -27.207901, -82.859360, -642.922058
1733469994.976241, 22.979847, -23.171981, -3.561824, 0.862122, 1.959882, -2.078591, -27.341614, -82.975296, -642.644470
1733469994.986243, 29.205819, -26.396073, 0.555305, 0.861073, 2.117508, -2.296246, -26.787231, -83.077469, -642.466187
1733469994.996244, 36.082115, -26.766426, 6.097283, 0.693914, 1.365431, -2.315597, -26.085312, -82.719757, -641.783203
1733469995.006259, 42.651057, -25.664495, 12.454637, 0.277770, 0.453974, -2.175185, -25.113815, -82.177963, -641.051392
1733469995.016255, 47.739783, -24.242938, 15.445893, -0.242059, -0.085065, -1.602319, -23.654297, -81.917709, -641.372681
1733469995.026269, 50.969261, -21.456985, 14.931289, -0.811952, -0.240296, -0.658158, -22.887878, -81.402359, -641.401489
1733469995.036232, 52.191202, -18.038663, 13.607894, -1.245399, -0.215720, 0.576458, -22.331131, -80.947006, -641.452332
1733469995.046260, 51.411141, -15.530737, 11.462091, -1.438743, -0.199048, 1.991143, -21.696106, -81.190521, -640.736084
1733469995.056257, 47.483154, -13.148507, 9.078663, -1.455640, -0.102778, 3.415842, -22.315887, -81.338562, -641.831787
1733469995.066234, 40.290972, -10.634744, 6.550236, -1.433212, 0.240618, 4.480785, -23.394012, -81.767288, -642.555054
1733469995.076232, 30.571411, -9.848399, 5.192874, -1.559747, 0.652725, 5.043796, -24.105988, -82.196823, -642.751099
1733469995.086234, 21.469255, -9.689334, 4.769399, -1.696294, 1.026954, 5.305035, -25.239059, -82.737808, -642.860107
1733469995.096252, 13.701268, -8.289774, 4.323779, -1.837899, 1.240457, 5.276750, -26.782944, -83.098068, -643.638672
1733469995.106236, 6.186168, -6.877344, 4.753538, -2.122360, 1.179492, 4.850937, -27.902115, -83.121902, -644.552551
1733469995.116293, -0.504578, -5.600187, 5.552752, -2.443247, 0.830794, 4.127532, -28.293686, -82.883102, -645.120300
1733469995.126251, -5.429750, -3.413234, 4.977994, -2.531616, 0.472244, 3.317695, -29.448090, -82.593735, -645.794312
1733469995.136241, -9.195380, -0.754174, 2.869750, -2.362191, 0.136358, 2.408783, -29.913620, -82.034744, -646.607483
1733469995.146247, -12.545168, 1.273266, 1.634492, -2.112047, -0.359022, 1.513420, -29.740372, -81.593506, -645.971069
1733469995.156226, -14.440178, 7.010821, -0.209642, -1.825896, -0.855989, 0.990833, -29.880402, -80.978165, -647.315125
1733469995.166225, -14.149582, 8.905981, -1.326837, -1.597680, -1.209390, 0.787376, -29.890533, -80.512482, -647.614685
1733469995.176269, -14.044985, 9.544784, -2.507777, -1.521985, -1.392099, 0.836066, -30.506195, -80.113220, -648.135254
1733469995.186242, -15.235203, 9.145102, -4.073584, -1.549352, -1.249383, 0.978600, -31.636429, -79.562561, -648.855591
1733469995.196235, -17.661277, 7.633463, -5.315577, -1.600336, -0.886932, 0.903680, -32.263077, -79.023483, -649.576416
1733469995.206240, -19.689316, 5.955277, -6.437559, -1.603486, -0.501202, 0.524942, -32.796005, -78.613052, -650.661377
1733469995.216234, -20.143466, 4.837933, -7.924807, -1.430475, -0.060212, 0.017680, -32.847137, -78.071259, -650.996216
1733469995.226224, -19.404855, 3.725378, -9.137620, -1.052678, 0.483138, -0.550191, -32.792297, -77.759125, -651.485352
1733469995.236230, -17.780239, 2.576760, -9.522638, -0.519675, 1.025244, -1.173061, -32.147110, -77.736771, -651.808472
1733469995.246225, -15.505598, 2.068291, -8.920197, 0.138181, 1.438999, -1.773620, -31.010529, -77.911392, -651.028503
1733469995.256229, -13.185916, 2.221819, -7.143250, 0.833617, 1.536305, -2.264051, -29.671265, -78.091064, -651.681946
1733469995.266252, -11.015273, 2.825008, -5.068525, 1.439049, 1.283967, -2.608854, -28.152313, -78.458649, -650.731628
1733469995.276243, -9.059958, 3.455880, -3.294870, 1.900121, 0.778213, -2.788424, -27.079834, -78.725830, -649.666687
1733469995.286233, -7.498041, 3.438223, -2.362778, 2.210285, 0.272735, -2.869290, -26.148941, -79.152130, -648.994263
1733469995.295978, -7.498041, 3.438223, -2.362778, 2.393504, -0.103417, -2.897209, -25.424179, -79.548431, -647.978149
1733469995.306250, -5.455039, 2.640655, -1.025616, 2.441037, -0.347149, -2.937926, -24.154449, -79.899323, -646.994324
1733469995.315397, -5.455039, 2.640655, -1.025616, 2.332604, -0.456168, -3.006889, -23.580505, -80.091354, -646.395874
1733469995.326241, -4.082114, 0.685191, -0.947356, 2.128867, -0.414768, -3.147657, -22.868759, -80.158371, -646.039673
1733469995.336237, -1.937208, -0.260519, -1.391181, 1.935065, -0.160770, -3.353909, -21.863541, -80.032532, -645.390198
1733469995.346228, 1.062128, -1.388487, -1.434127, 1.758652, 0.062446, -3.503051, -21.080063, -79.947235, -644.418030
1733469995.356228, 4.524592, -3.257910, -1.461510, 1.610424, 0.166422, -3.590119, -20.171783, -79.803345, -644.312744
1733469995.366235, 8.574983, -4.756231, -1.051952, 1.585507, 0.005410, -3.599568, -19.186676, -79.382248, -643.948364
1733469995.376225, 13.102568, -5.037101, -1.011101, 1.762813, -0.205078, -3.368910, -19.136276, -79.310654, -643.317810
1733469995.386251, 17.890971, -5.276072, -0.066140, 1.945402, -0.139271, -3.022180, -18.899704, -78.992203, -642.322266
1733469995.396230, 23.863008, -6.462100, 2.344821, 1.744557, 0.010278, -2.606256, -18.479706, -78.849564, -641.908081
1733469995.406239, 30.244304, -8.277653, 4.211700, 1.087448, -0.053470, -1.823934, -18.933151, -78.753693, -642.300598
1733469995.416246, 33.908330, -10.663774, 3.173664, 0.491767, 0.287751, -1.088840, -19.698120, -78.777451, -641.859558
1733469995.426247, 36.653432, -13.003657, 3.838055, 0.174234, 0.781896, -0.613887, -19.912384, -78.794754, -642.423096
1733469995.436236, 40.221989, -15.374067, 6.155492, -0.150174, 0.876474, -0.204487, -20.380005, -78.891602, -642.149780
1733469995.446219, 42.662728, -16.923115, 7.495497, -0.392909, 0.839674, 0.152639, -20.195328, -78.847824, -641.375183
1733469995.456213, 44.590510, -17.174656, 9.388712, -0.692686, 0.667341, 0.603033, -19.823715, -78.534790, -642.084595
1733469995.466241, 44.273128, -15.317204, 11.379341, -1.250499, 0.263336, 1.331280, -19.822769, -78.602890, -643.046387
1733469995.476240, 40.359656, -12.597691, 11.267861, -2.071993, 0.144067, 2.076852, -20.387604, -78.467056, -643.637939
1733469995.486201, 36.261830, -12.001834, 9.419089, -3.045149, 0.409678, 2.521280, -21.007156, -78.202957, -644.334473
1733469995.496224, 33.730112, -11.324275, 6.591985, -3.787601, 0.695206, 2.838301, -21.143524, -77.601593, -645.648804
1733469995.506247, 31.237598, -9.504532, 3.911228, -4.042009, 0.649701, 3.197405, -21.403656, -77.303116, -647.129822
1733469995.516225, 27.228208, -7.630919, 2.035221, -3.766359, 0.254996, 3.672974, -22.171722, -76.824127, -647.902649
1733469995.526232, 21.640141, -6.004358, 1.166724, -3.238221, -0.253968, 4.093004, -23.119583, -76.655060, -649.198120
1733469995.536238, 16.731579, -6.587646, 0.545429, -2.861624, -0.679227, 4.362488, -23.907364, -76.513962, -649.878601
1733469995.546224, 10.998962, -6.450279, 0.144251, -2.616650, -1.051807, 4.576125, -24.857437, -76.331467, -650.144043
1733469995.556219, 2.999785, -4.936545, -0.164302, -2.471720, -1.281834, 4.687867, -26.149658, -75.876450, -651.400513
1733469995.566222, -5.159953, -4.109049, -0.324564, -2.547945, -1.480450, 4.490267, -27.475067, -75.222168, -652.460938
1733469995.575550, -11.882124, -2.695721, -1.457620, -2.778767, -1.685968, 4.050441, -28.469391, -74.607574, -653.353516
1733469995.585294, -17.240497, -1.271471, -4.419996, -2.884372, -1.739230, 3.499569, -29.360062, -73.614914, -654.096619
1733469995.596228, -21.113567, -0.384868, -8.449587, -2.649500, -1.515661, 2.961564, -30.146179, -72.764786, -654.705933
1733469995.605373, -23.813179, -0.007183, -12.137405, -2.097997, -0.806143, 2.547418, -30.319458, -72.147919, -654.987915
1733469995.616214, -25.835232, -0.624737, -13.597120, -1.480969, 0.225198, 2.186325, -31.128235, -71.935013, -655.799927
1733469995.625633, -27.567885, -1.996465, -12.445659, -1.114558, 1.119298, 1.691235, -31.238815, -71.638260, -656.037720
1733469995.636226, -28.822297, -3.472341, -10.849624, -0.942023, 1.501284, 0.906393, -31.330276, -71.577698, -655.819397
1733469995.646232, -28.685529, -4.302530, -11.291654, -0.630778, 1.606679, -0.167438, -30.512177, -71.575592, -655.699707
1733469995.656234, -26.546160, -4.016124, -12.671761, 0.036886, 1.715735, -1.259183, -29.311523, -71.837296, -656.056152
1733469995.666221, -23.191135, -2.815581, -13.026103, 0.995099, 1.847129, -2.201102, -28.052963, -72.538681, -655.105469
1733469995.676229, -19.382708, -0.827496, -11.326370, 2.000293, 1.827602, -2.876127, -26.410553, -73.230667, -654.441895
1733469995.686229, -16.078112, 0.857274, -8.439411, 2.831482, 1.548925, -3.356863, -25.282440, -74.056351, -653.574097
1733469995.696309, -13.164069, 1.761235, -5.970690, 3.434412, 1.138865, -3.726347, -23.438843, -75.132675, -651.928772
1733469995.706230, -10.329484, 2.426074, -4.281431, 3.847736, 0.764276, -3.993406, -22.165283, -76.047348, -650.809082
1733469995.716223, -7.506720, 3.050363, -2.987066, 4.115199, 0.503595, -4.143471, -21.028580, -76.786606, -648.866638
1733469995.725254, -4.885219, 3.467552, -1.698836, 4.276845, 0.296391, -4.192080, -21.028580, -76.786606, -648.866638
1733469995.735767, -2.499846, 3.583671, -0.518045, 4.337678, 0.115027, -4.142365, -19.499512, -77.556808, -647.032166
1733469995.746215, -0.349404, 3.322104, 0.523432, 4.277838, -0.007432, -4.034196, -17.424072, -78.517151, -643.472900
1733469995.756230, 1.820341, 2.880524, 1.735647, 4.122856, -0.164115, -3.917931, -15.867279, -78.511490, -642.980957
1733469995.766236, 3.699790, 2.556409, 2.933047, 3.870714, -0.371475, -3.734467, -15.104523, -78.643845, -641.689880
1733469995.776230, 4.725705, 2.059462, 4.036325, 3.493517, -0.698871, -3.545192, -14.211472, -78.534821, -641.163147
1733469995.786216, 5.113117, 1.715445, 4.805312, 3.038840, -1.083115, -3.448365, -14.211472, -78.534821, -641.163147
1733469995.796222, 5.589264, 1.609502, 4.884171, 2.630691, -1.397818, -3.466618, -13.829132, -78.335892, -640.233643
1733469995.806218, 7.292589, 1.240795, 4.250755, 2.244183, -1.312230, -3.597633, -13.233353, -77.831726, -640.162720
1733469995.816206, 10.245238, 0.909647, 4.079271, 1.754555, -0.897617, -3.753233, -12.502151, -77.175369, -639.656616
1733469995.826245, 13.687352, 1.609352, 4.441992, 1.207649, -0.507140, -3.761080, -11.836014, -76.441666, -639.682861
1733469995.836206, 17.489045, 3.590255, 4.134487, 0.784547, 0.092553, -3.752464, -11.450516, -75.582047, -638.787415
1733469995.846225, 24.027310, 5.752518, 4.761169, 0.470258, 0.760522, -3.517502, -10.142853, -74.600006, -638.970703
1733469995.856224, 31.763125, 7.170335, 6.927623, 0.200067, 0.752106, -2.651210, -10.171082, -73.882965, -637.667297
1733469995.866224, 38.357804, 7.426664, 7.660398, 0.022728, 0.433969, -1.491151, -9.864639, -73.278275, -638.143799
1733469995.876218, 43.042060, 7.302614, 7.549217, -0.033224, -0.077385, 0.007131, -10.258133, -73.380417, -638.705811
1733469995.886221, 44.256818, 5.067926, 6.541408, 0.034302, -0.572409, 1.485644, -11.777466, -73.786682, -638.849426
1733469995.896211, 43.284772, 2.111985, 5.371092, 0.101976, -0.665429, 2.624802, -12.726669, -74.724228, -639.261780
1733469995.906213, 41.883865, 0.988207, 5.790526, 0.103581, -0.484454, 3.589697, -14.108276, -75.827011, -639.421875
1733469995.916212, 40.943692, 0.676811, 7.801955, -0.184952, -0.334195, 4.444553, -15.697510, -77.041901, -639.291077
1733469995.926275, 40.526053, 0.870891, 8.719234, -0.674028, -0.337123, 5.387754, -17.225372, -78.409500, -639.815063
1733469995.936208, 38.572833, 1.408838, 7.803302, -1.169627, -0.333842, 6.477583, -18.628784, -79.659195, -640.432373
1733469995.946213, 32.129288, 2.066046, 6.711845, -1.664875, -0.120918, 7.519102, -21.283722, -80.882629, -641.065308
1733469995.956212, 22.834100, 0.070180, 6.335656, -2.325967, 0.334710, 7.989788, -23.907990, -81.645447, -641.739136
1733469995.966210, 14.806940, -2.305467, 5.454590, -3.048864, 0.736783, 7.981158, -26.140961, -82.227112, -643.044678
1733469995.976203, 8.018331, -4.279336, 3.361908, -3.393767, 0.804909, 7.784610, -28.132812, -82.371964, -643.967529
1733469995.986218, 0.515502, -6.630891, 1.630152, -3.246210, 0.324391, 7.476050, -29.794724, -82.240189, -645.362427
1733469995.996206, -8.985738, -8.829666, 0.195127, -2.718208, -0.890512, 7.020494, -31.732849, -81.790833, -646.476990
1733469996.005701, -20.780922, -12.766183, -3.021034, -1.848720, -2.164972, 6.136211, -33.873657, -81.254959, -646.978210
1733469996.016214, -31.221138, -17.032051, -6.523002, -0.895980, -2.519468, 4.777935, -35.175003, -81.029419, -647.103760
1733469996.026216, -37.277869, -17.898453, -7.263858, -0.446103, -1.875841, 3.168067, -36.709381, -80.482620, -646.705139
1733469996.036218, -38.460455, -17.727118, -6.019622, -0.492532, -0.898887, 1.641077, -37.255386, -80.521255, -647.049194
1733469996.046211, -37.598543, -17.303045, -4.251204, -0.703899, -0.257261, 0.303757, -37.743439, -80.307205, -647.153992
1733469996.056213, -35.336022, -16.579846, -4.090045, -0.872230, 0.186618, -1.008664, -37.757858, -80.189331, -647.968750
1733469996.066216, -30.827441, -15.604060, -4.827608, -0.844709, 0.537441, -2.196895, -37.020035, -80.259811, -648.628235
1733469996.076209, -25.333497, -14.592509, -4.964676, -0.644692, 0.697892, -3.184639, -35.672241, -80.303040, -648.786804
1733469996.086214, -20.397401, -12.093262, -4.139425, -0.377127, 0.555226, -3.898917, -34.111984, -80.216919, -649.019897
1733469996.096197, -16.896180, -9.459491, -3.091513, -0.154905, 0.199799, -4.397345, -32.687271, -80.092850, -649.428467
1733469996.106224, -14.859164, -7.512257, -2.675520, -0.043825, -0.137317, -4.827215, -30.749878, -79.976898, -649.164917
1733469996.116225, -13.044658, -5.268441, -3.055301, 0.007866, -0.280170, -5.202448, -28.921082, -79.727524, -648.983398
1733469996.126265, -10.980856, -2.814085, -3.671059, 0.106955, -0.247526, -5.464130, -27.058792, -79.291443, -648.854919
1733469996.136200, -8.629152, -0.602591, -4.119374, 0.300666, -0.129306, -5.610913, -24.865738, -78.950043, -648.692017
1733469996.146197, -6.275502, 1.205780, -4.297742, 0.575356, 0.013417, -5.654350, -23.130081, -78.333893, -648.558167
1733469996.156197, -4.036325, 2.547879, -3.939360, 0.878508, 0.137567, -5.626410, -20.895538, -78.035538, -648.054688
1733469996.166202, -2.214936, 3.637391, -3.088520, 1.121171, 0.180548, -5.544689, -18.823807, -77.387634, -647.625244
1733469996.176216, -0.635810, 4.417452, -2.199822, 1.276219, 0.144049, -5.437061, -16.969009, -76.766724, -647.184326
1733469996.186202, 1.035343, 4.966622, -1.280000, 1.382868, -0.046016, -5.308897, -15.789886, -76.206970, -646.980164
1733469996.196213, 3.009661, 5.520730, -0.481235, 1.467602, -0.378230, -5.146488, -14.519714, -75.243912, -646.497070
1733469996.206210, 5.540781, 6.721422, -0.034716, 1.523463, -0.631084, -4.859416, -12.810287, -74.531662, -645.587646
1733469996.216215, 8.450185, 8.287529, 0.556502, 1.487801, -0.752760, -4.339817, -11.969971, -73.835007, -645.585938
1733469996.226196, 10.508450, 8.905981, 1.274015, 1.311094, -0.944559, -3.722842, -11.436844, -73.358887, -645.301880
1733469996.236198, 11.405378, 8.582016, 1.374421, 1.041506, -1.079522, -3.167105, -11.260208, -72.635132, -645.294739
1733469996.246259, 11.779323, 8.422353, 1.035193, 0.694533, -0.936723, -2.792998, -11.260086, -71.823502, -645.018250
1733469996.256208, 13.091195, 8.806622, 1.093252, 0.216125, -0.498522, -2.570315, -10.763596, -71.177826, -645.771851
1733469996.266209, 15.781530, 10.098593, 1.517176, -0.392796, 0.041289, -2.314079, -10.416611, -70.457275, -645.721619
1733469996.276196, 19.733309, 12.202348, 1.263091, -0.968933, 0.552935, -1.897495, -10.199448, -69.601852, -645.829102
1733469996.286288, 24.885631, 13.386430, 0.365265, -1.216488, 0.731157, -1.156484, -10.075089, -69.100067, -646.043579
1733469996.296216, 29.912557, 13.071743, -0.778564, -1.020931, 0.382977, -0.020580, -10.583115, -68.895844, -646.268433
1733469996.306228, 32.910397, 11.465532, -2.617910, -0.552319, -0.184146, 1.293321, -11.124863, -69.426239, -646.517151
1733469996.316237, 33.015592, 10.654347, -4.314351, -0.069650, -0.400160, 2.542894, -12.526810, -70.327499, -646.686401
1733469996.326248, 31.724818, 10.493786, -4.660613, 0.293129, -0.257158, 3.677379, -14.386719, -71.782043, -646.905518
1733469996.336206, 30.365660, 8.614038, -4.085555, 0.524329, 0.046890, 4.477149, -16.437057, -73.398483, -646.791443
1733469996.346264, 30.506020, 6.000468, -3.208529, 0.716182, 0.258722, 5.004115, -18.261810, -74.801071, -645.770630
1733469996.356253, 31.717785, 3.975273, -1.365144, 0.940779, 0.066177, 5.518973, -19.625549, -76.488113, -645.597534
1733469996.366306, 32.637308, 3.350386, 0.675015, 1.183312, -0.527064, 6.369083, -21.439865, -78.239120, -645.313660
1733469996.376274, 30.227395, 3.635446, 2.277484, 1.227149, -0.990631, 7.573576, -24.040421, -79.668015, -645.241882
1733469996.386199, 22.419903, 3.012355, 4.009390, 0.770801, -0.786556, 8.739155, -26.625656, -80.669479, -645.463135
1733469996.396195, 12.229133, -0.908001, 5.243900, -2.167219, 1.581128, 9.704544, -29.080582, -81.148361, -645.555969
1733469996.406200, 0.945261, -4.845864, 4.290260, -4.003725, 3.233205, 9.303286, -31.426041, -80.646439, -646.979309
1733469996.416191, -10.812664, -8.295759, 1.854010, -5.311453, 4.008568, 8.245010, -33.270676, -79.613098, -648.859009
1733469996.426194, -20.862026, -12.293627, -1.105223, -5.560528, 3.464451, 6.641981, -34.950531, -78.325073, -651.342468
1733469996.436196, -28.193520, -15.647006, -5.466112, -4.753050, 2.315007, 4.621714, -36.564804, -76.355240, -653.321472
1733469996.446189, -31.619473, -20.501250, -11.538256, -4.753050, 2.315007, 4.621714, -36.990433, -75.171661, -654.378052
1733469996.456184, -31.647455, -25.147946, -16.589723, -1.230326, -0.168630, 0.821178, -37.203293, -74.284943, -655.427734
1733469996.466191, -30.343513, -25.340230, -18.932748, 0.418534, -0.796688, -0.662589, -36.939484, -74.210037, -655.445435
1733469996.476195, -28.285697, -23.324462, -17.383251, 1.431503, -1.126304, -1.796283, -36.910965, -74.503464, -654.457031
1733469996.486197, -25.381231, -20.502596, -13.147609, 1.823350, -1.035228, -2.630894, -36.793640, -75.066376, -653.545349
1733469996.496209, -22.398954, -18.061558, -9.225607, 1.625278, -0.712894, -3.258958, -35.972900, -75.920685, -652.793579
1733469996.506192, -19.541624, -15.567548, -5.637746, 1.029030, -0.346654, -3.734722, -34.829941, -76.368515, -652.371277
1733469996.516199, -17.095947, -13.311163, -3.179051, 0.300233, -0.013604, -4.155384, -33.804947, -76.495087, -651.900330
1733469996.526195, -14.991443, -10.890625, -2.441936, -0.245000, 0.174058, -4.477284, -31.948364, -76.359222, -651.931641
1733469996.536188, -13.250260, -7.998728, -3.219154, -0.428698, 0.322730, -4.640236, -30.200790, -75.981262, -652.302124
1733469996.546149, -11.190648, -5.527164, -5.001338, -0.280676, 0.504515, -4.671974, -28.613815, -75.889694, -651.587769
1733469996.556194, -9.174132, -3.834464, -6.732645, 0.133607, 0.793120, -4.661420, -26.791748, -75.439346, -652.058472
1733469996.566192, -7.411551, -2.539350, -7.760206, 0.662512, 1.142727, -4.705663, -25.103287, -75.328918, -652.187073
1733469996.576195, -5.863998, -1.537077, -7.662493, 1.161715, 1.330897, -4.798463, -23.228287, -75.128601, -651.689758
1733469996.586188, -4.487931, -0.266804, -6.330120, 1.628835, 1.173790, -4.957122, -21.535324, -74.784042, -650.883362
1733469996.596192, -3.009661, 1.019032, -4.410119, 2.053873, 0.750884, -5.083496, -19.474854, -74.591476, -650.037354
1733469996.606193, -1.349582, 2.511218, -2.721459, 2.405891, 0.230673, -5.140798, -17.629700, -74.462784, -648.716187
1733469996.616194, 0.264709, 4.048745, -1.729811, 2.646631, -0.167608, -5.168324, -16.249451, -74.195160, -648.357910
1733469996.626203, 1.818396, 5.170877, -1.364545, 2.771089, -0.442925, -5.124949, -14.626251, -73.768463, -647.184692
1733469996.636242, 3.543568, 6.258144, -0.983867, 2.804921, -0.490063, -4.934898, -13.189423, -73.302414, -646.193604
1733469996.646184, 5.739350, 7.374291, -0.847547, 2.717806, -0.157018, -4.562797, -11.660477, -72.927170, -644.928528
1733469996.656184, 8.252364, 8.540417, -0.544681, 2.435582, 0.213352, -4.080892, -10.916748, -72.525803, -644.737427
1733469996.666186, 10.746374, 9.112182, 1.036390, 1.987382, 0.370445, -3.595179, -9.896896, -72.079239, -644.120239
1733469996.676202, 12.920459, 8.782231, 2.939780, 1.488141, 0.322819, -3.138135, -9.246063, -71.531082, -643.591309
1733469996.686192, 14.625879, 8.711752, 4.279935, 1.059124, 0.187670, -2.810985, -9.084900, -71.052124, -643.091797
1733469996.696193, 15.635633, 9.386168, 5.039196, 0.695534, 0.034981, -2.656800, -8.401047, -70.364746, -642.980225
1733469996.706187, 16.948105, 9.864410, 5.723040, 0.323296, -0.215121, -2.470544, -7.947495, -69.677368, -642.695312
1733469996.716191, 19.500473, 10.394875, 6.276250, -0.045021, -0.572847, -1.988266, -7.695389, -68.745621, -642.852539
1733469996.726192, 23.959823, 11.269507, 5.779304, -0.251912, -0.936890, -0.976865, -7.510406, -68.552933, -643.528198
1733469996.736204, 29.147909, 11.195586, 3.374777, -0.229596, -0.983938, 0.384679, -7.725143, -68.449997, -643.692871
1733469996.746185, 32.790687, 10.138845, 0.255880, -0.112323, -0.705147, 1.892059, -8.830872, -69.019348, -643.609497
1733469996.755487, 34.786852, 9.191789, -1.779939, -0.002839, -0.211332, 3.268262, -10.996750, -69.996826, -644.536499
1733469996.766200, 34.231248, 8.609400, -2.507028, -0.012017, 0.286179, 4.076579, -12.628082, -71.472778, -644.411011
1733469996.776205, 32.487521, 7.182156, -1.556381, -0.092284, 0.327679, 4.712440, -13.815536, -72.909775, -644.915894
1733469996.786195, 33.058388, 6.045509, -0.081702, 0.054786, -0.164671, 5.528790, -15.482666, -74.483688, -644.449097
1733469996.796192, 33.803883, 5.597793, 0.476296, 0.391381, -0.782605, 6.566339, -16.876694, -76.145432, -644.247192
1733469996.806200, 33.146226, 5.516690, 0.303465, 0.725131, -1.142770, 8.045836, -18.118500, -77.850128, -643.900757
1733469996.816186, 31.336209, 6.339098, 0.442927, 0.756193, -1.159352, 9.966665, -20.718475, -79.785965, -643.787231
1733469996.826187, 23.746141, 8.679879, 2.795081, -0.012448, -0.508503, 11.416736, -24.541901, -81.031998, -643.835693
1733469996.836178, 8.945037, 6.950068, 5.499182, -1.858502, 0.876612, 11.661258, -28.688263, -81.515182, -644.658142
1733469996.846173, -8.959701, 0.082899, 6.432322, -4.056885, 2.882251, 10.561153, -31.012009, -81.025360, -645.430237
1733469996.856176, -25.495255, -6.945579, 3.192818, -5.627640, 4.331229, 8.546643, -33.954300, -79.719437, -648.830200
1733469996.866235, -37.049523, -11.903522, -1.677288, -5.796844, 4.009355, 5.825206, -35.315445, -78.046173, -650.931152
1733469996.876178, -40.872614, -18.449119, -7.958326, -4.217755, 2.500713, 3.138443, -36.011398, -76.886307, -652.841187
1733469996.886177, -39.410205, -20.408923, -16.123003, -1.427043, 0.818656, 0.734415, -36.249695, -76.353363, -653.188843
1733469996.896177, -35.114708, -22.050597, -22.577621, 1.577176, -0.465398, -1.134717, -36.039352, -76.768738, -652.526123
1733469996.906230, -28.527811, -23.576153, -23.564631, 3.823986, -1.261992, -2.475253, -35.111435, -78.184341, -650.770020
1733469996.916175, -22.572384, -21.899463, -17.949031, 4.932230, -1.546768, -3.437116, -34.367630, -79.988297, -648.890564
1733469996.926174, -18.413955, -18.346917, -9.414599, 4.955643, -1.658976, -4.061271, -32.982727, -81.412018, -646.649109
1733469996.936176, -14.858116, -15.739482, -0.762254, 4.133200, -2.056708, -4.378759, -31.759384, -82.425842, -644.996582
1733469996.946171, -12.269835, -13.916596, 5.835418, 2.994827, -2.362597, -4.563782, -30.569565, -83.051544, -643.013855
1733469996.956227, -11.180024, -12.468404, 7.235277, 1.919409, -2.041606, -4.748101, -29.073624, -83.217743, -643.028748
1733469996.966176, -10.433183, -10.951228, 5.388300, 0.959548, -1.288167, -4.883075, -27.212830, -83.065338, -642.815857
1733469996.976165, -9.130737, -9.144504, 3.903147, 0.125270, -0.538699, -4.840068, -25.335846, -82.743484, -643.075134
1733469996.986168, -6.648249, -6.806566, 3.154061, -0.549932, 0.098922, -4.647375, -23.651749, -81.974106, -643.147339
1733469996.996208, -3.763535, -4.838981, 2.325069, -1.064175, 0.622309, -4.332685, -21.457458, -81.195282, -643.656189
1733469997.006175, -1.469890, -3.241450, 1.574487, -1.428382, 1.065659, -4.006076, -19.925201, -80.190903, -644.004517
1733469997.016179, 0.072724, -1.923142, 1.082927, -1.672102, 1.296627, -3.763375, -18.634048, -78.894608, -644.528809
1733469997.026174, 1.054496, -1.013346, 1.345092, -1.823165, 1.150420, -3.638772, -16.957886, -77.858582, -645.257874
1733469997.036174, 1.431882, -0.129736, 2.064999, -1.877046, 0.590189, -3.603658, -15.808533, -76.535431, -645.955811
1733469997.046187, 1.131709, 0.720954, 2.209399, -1.799067, -0.015023, -3.666620, -14.421951, -75.115585, -645.886658
1733469997.056183, 0.802506, 1.178546, 1.161188, -1.591150, -0.487490, -3.800342, -13.694489, -73.539581, -646.961426
1733469997.066163, 0.743549, 1.839345, -0.280271, -1.275843, -0.764295, -3.917990, -12.609543, -72.069626, -647.806213
1733469997.076221, 1.384447, 3.164985, -1.656788, -0.885086, -0.795361, -3.971967, -11.841293, -70.688889, -648.117615
1733469997.086171, 2.636166, 4.472518, -2.910451, -0.539458, -0.526062, -4.041772, -10.960175, -69.499603, -648.220581
1733469997.096170, 4.647594, 5.622633, -3.654300, -0.289736, -0.206485, -3.987713, -9.753372, -68.262360, -648.575439
1733469997.106168, 7.581240, 6.849362, -3.489549, -0.040511, -0.102982, -3.693107, -8.951920, -67.258545, -648.585693
1733469997.116166, 10.857106, 8.216152, -2.802563, 0.309401, -0.341424, -3.112706, -8.598633, -66.397766, -648.116821
1733469997.126169, 14.216620, 9.485827, -2.229002, 0.753831, -0.797193, -2.196786, -8.306793, -66.116837, -648.302246
1733469997.136166, 17.006314, 10.237756, -1.993622, 1.165805, -1.332301, -1.157226, -9.014664, -66.277206, -648.816772
1733469997.146200, 17.730111, 10.119542, -1.380407, 1.370811, -1.547800, -0.328296, -9.832611, -66.491333, -648.126282
1733469997.156167, 16.701801, 9.591471, -1.105972, 1.190907, -1.051399, 0.224586, -10.627380, -66.748459, -648.520264
1733469997.166183, 16.207249, 9.704448, -1.145476, 0.592658, -0.325501, 0.607837, -11.771988, -67.147018, -648.431396
1733469997.176179, 17.401058, 10.663924, -0.010175, -0.129511, 0.343206, 0.906787, -12.167999, -67.494980, -648.603394
1733469997.186175, 20.747254, 11.182717, 0.138864, -0.665971, 0.673116, 1.568764, -12.487411, -67.884308, -648.855347
1733469997.196173, 26.676644, 11.557260, -0.734421, -0.929915, 0.727414, 2.651281, -14.200546, -68.488495, -649.316528
1733469997.206176, 31.843331, 10.671555, -2.470816, -0.926694, 0.768515, 3.665654, -15.880096, -69.544907, -649.790894
1733469997.216173, 33.874811, 7.168689, -4.840178, -0.620137, 0.852708, 4.451658, -17.075378, -70.702362, -649.356628
1733469997.226168, 34.565389, 2.712032, -6.676531, -0.055685, 0.688091, 5.183319, -17.888641, -72.303772, -649.132385
1733469997.236166, 34.596663, -0.503231, -6.978350, 0.681611, 0.405307, 5.979433, -19.183838, -74.021820, -648.951294
1733469997.246165, 32.849045, -1.606809, -6.151602, 1.252183, 0.258295, 6.815872, -20.966461, -75.849884, -647.426086
1733469997.256177, 28.610111, -1.960851, -2.967164, 1.183656, 0.149151, 7.490729, -23.062607, -77.228287, -648.381592
1733469997.266184, 22.452225, -3.638588, 2.342128, 0.417958, 0.206308, 7.908502, -25.109894, -78.198410, -648.160156
1733469997.276164, 15.707310, -6.479458, 6.163423, -0.917178, 0.714407, 8.038692, -25.109894, -78.198410, -648.160156
1733469997.286179, 8.515277, -10.428544, 6.901137, -2.569989, 1.447597, 7.819891, -26.983261, -78.686401, -648.260559
1733469997.296160, 0.434248, -13.609091, 5.627122, -4.040262, 2.130050, 7.247723, -28.670914, -78.190994, -649.570923
1733469997.306166, -7.018602, -13.437906, 2.126051, -4.862815, 2.543812, 6.628351, -30.066605, -77.022720, -651.002136
1733469997.316158, -11.378593, -12.876914, -3.760543, -4.936009, 2.771068, 5.783643, -31.143860, -75.824356, -652.495789
1733469997.326167, -15.587300, -15.951069, -9.991752, -4.293939, 2.751618, 4.484786, -32.326614, -74.611588, -654.175049
1733469997.336173, -20.274100, -19.280057, -14.424616, -3.062161, 2.276562, 2.876739, -32.683258, -73.530914, -655.398010
1733469997.346162, -23.059005, -20.607343, -16.382175, -1.512568, 1.399597, 1.247005, -32.678070, -72.975510, -655.690796
1733469997.356166, -23.161656, -20.282180, -16.565930, 0.012774, 0.473368, -0.149221, -31.782639, -72.721375, -655.264526
1733469997.366174, -21.229087, -18.569428, -15.568745, 1.196620, -0.184118, -1.223726, -31.401962, -72.931305, -655.666870
1733469997.376182, -19.297714, -15.738584, -13.298743, 1.897430, -0.453045, -2.111671, -31.024063, -73.319290, -654.813171
1733469997.386169, -17.652748, -13.108703, -10.419117, 2.165252, -0.496889, -2.776691, -30.291199, -74.155670, -653.912354
1733469997.396215, -15.401899, -10.556035, -7.580042, 2.152224, -0.454358, -3.229445, -29.415039, -74.769775, -653.440674
1733469997.406163, -13.116484, -8.267178, -5.421819, 2.017700, -0.348032, -3.552408, -28.318085, -75.518738, -652.605286
1733469997.416149, -11.106851, -6.729203, -4.185364, 1.864861, -0.274169, -3.801924, -27.118332, -75.889328, -652.214783
1733469997.426171, -9.377789, -5.525069, -3.461118, 1.747158, -0.273914, -4.011555, -26.123337, -76.218964, -651.190613
1733469997.436176, -8.228871, -4.218134, -2.980033, 1.685482, -0.304330, -4.210653, -24.671814, -76.428284, -651.022461
1733469997.446155, -7.329100, -3.102885, -2.760066, 1.665662, -0.357509, -4.412487, -23.342804, -76.423386, -650.369202
1733469997.456230, -6.720374, -2.197279, -2.556558, 1.693013, -0.449978, -4.646245, -21.696548, -76.461533, -649.359253
1733469997.466153, -6.197990, -1.326687, -2.519448, 1.792630, -0.435248, -4.856744, -20.322388, -76.193359, -649.148132
1733469997.476161, -5.039346, -0.330699, -2.880674, 1.923934, -0.329630, -5.018293, -18.691986, -75.944305, -648.362305
1733469997.486218, -3.521721, 0.720655, -2.857480, 2.043268, -0.224215, -5.105128, -17.113586, -75.620667, -647.818542
1733469997.496155, -1.931672, 1.865981, -2.502689, 2.148387, -0.145196, -5.086469, -15.480118, -75.210831, -647.051758
1733469997.506176, -0.194080, 3.036297, -2.113631, 2.239919, -0.026842, -4.944606, -13.922974, -74.524811, -645.720459
1733469997.515706, 1.674744, 4.182670, -1.691653, 2.286827, 0.045340, -4.699332, -12.300568, -74.068558, -645.103027
1733469997.526171, 3.610306, 5.068974, -1.015441, 2.269920, 0.021426, -4.351761, -11.099243, -73.584991, -644.198059
1733469997.536154, 5.990592, 5.552902, -0.201412, 2.166874, -0.002727, -3.876486, -9.861572, -73.146835, -643.593628
1733469997.546156, 8.570045, 5.902755, 0.358382, 1.957838, 0.230365, -3.366937, -8.972885, -72.536072, -643.070862
1733469997.556195, 10.866982, 6.575974, 0.698957, 1.572611, 0.663987, -2.832732, -8.410370, -72.068588, -642.239258
1733469997.566155, 13.187113, 7.761852, 1.615936, 1.093965, 1.001300, -2.214010, -7.972794, -71.633591, -641.573364
1733469997.576162, 15.793202, 8.936208, 2.890101, 0.620409, 1.364968, -1.567481, -7.701920, -71.475830, -641.051514
1733469997.586157, 22.145916, 10.112509, 4.488679, 0.163944, 1.594359, -0.776190, -7.020477, -71.184952, -640.451538
1733469997.596315, 22.145916, 10.112509, 4.488679, -0.247431, 1.433605, 0.165968, -7.028931, -71.227142, -639.924683
1733469997.606242, 24.523957, 10.685472, 5.881656, -0.583109, 0.990790, 1.066408, -7.516556, -71.457169, -640.266724
1733469997.616221, 25.532066, 10.515483, 6.317101, -0.841801, 0.549887, 1.826812, -8.274399, -72.011841, -640.313538
1733469997.626210, 26.232519, 9.705645, 5.683685, -0.964535, 0.109974, 2.538880, -9.287949, -72.503876, -640.702271
1733469997.636232, 27.248110, 8.312967, 4.666299, -0.880268, -0.461762, 3.374179, -10.283279, -73.163208, -641.428833
1733469997.646151, 28.058248, 6.901137, 3.548057, -0.591994, -0.950509, 4.240131, -12.096771, -74.395828, -641.725952
1733469997.656157, 25.678112, 4.427777, 0.361076, -0.202960, -1.097255, 4.876821, -14.535812, -75.581009, -641.953125
1733469997.666153, 25.106496, 2.158822, -0.353145, 0.090657, -0.924726, 5.293014, -16.472977, -77.216675, -642.753235
1733469997.675226, 25.106496, 2.158822, -0.353145, 0.196759, -0.855032, 5.792470, -18.354263, -78.406418, -642.796936
1733469997.686152, 24.847324, -0.289549, 1.724873, 0.211474, -1.021082, 6.539190, -20.532974, -79.859528, -642.403931
1733469997.696158, 20.392463, -1.166724, 2.564190, 0.115375, -0.971199, 7.400945, -22.531570, -80.942276, -642.951477
1733469997.706147, 12.023531, -3.065626, 4.068796, -0.373688, -0.433205, 8.148232, -24.687759, -81.944153, -642.416992
1733469997.716144, 1.164031, -5.803246, 5.758055, -1.536210, 0.514099, 8.517228, -27.570236, -82.325287, -643.345154
1733469997.726165, -9.621099, -9.579051, 6.468834, -3.247116, 1.186772, 8.170468, -29.471222, -82.039795, -644.369385
1733469997.736155, -19.009512, -10.562320, 2.897882, -4.617152, 1.407155, 7.511957, -31.439957, -81.076721, -646.174316
1733469997.746148, -27.445033, -12.722488, -4.171447, -5.277555, 1.528967, 6.391039, -33.806091, -79.687851, -648.385681
1733469997.756167, -31.509489, -18.035970, -13.295600, -4.947105, 1.656058, 4.730547, -35.444580, -78.061768, -650.945312
1733469997.766163, -30.369850, -22.370822, -21.364210, -3.529196, 2.059573, 2.959309, -36.427521, -77.121078, -652.097900
1733469997.776147, -26.748021, -25.488072, -23.649176, -1.544695, 2.172146, 1.247157, -36.788025, -76.699478, -652.799805
1733469997.786150, -22.160132, -25.379435, -21.298369, 0.587688, 1.689478, -0.261994, -36.454575, -77.116531, -652.912720
1733469997.796151, -17.984495, -21.866543, -15.975161, 2.622034, 0.820508, -1.498902, -35.686707, -78.261719, -651.719360
1733469997.806160, -14.553005, -17.623120, -8.366687, 4.124064, -0.289522, -2.464593, -34.646194, -79.396820, -649.536743
1733469997.816158, -11.690737, -14.186243, -1.108366, 4.710972, -1.397064, -3.113548, -33.374680, -80.857880, -647.528564
1733469997.826167, -9.765350, -12.586917, 3.368043, 4.388832, -2.296397, -3.554637, -32.766907, -81.951263, -645.995361
1733469997.836144, -8.291270, -11.834090, 4.025102, 3.546989, -2.568623, -3.906143, -31.909042, -82.511353, -644.038330
1733469997.846150, -7.170933, -10.654197, 3.158551, 2.596174, -2.214544, -4.140089, -30.520920, -83.246979, -642.251709
1733469997.856142, -5.917868, -9.382727, 2.339584, 1.702937, -1.624526, -4.303123, -29.310059, -83.261185, -642.195862
1733469997.866140, -4.335450, -7.911490, 1.496077, 0.958553, -1.002566, -4.381478, -27.608871, -83.225296, -642.192932
1733469997.876152, -2.697816, -6.279542, 0.854880, 0.422712, -0.442613, -4.355615, -26.103561, -82.908325, -642.203918
1733469997.886142, -0.984615, -4.739173, 0.610372, 0.043690, 0.015467, -4.227882, -24.134064, -82.401352, -641.872559
1733469997.896141, 0.871789, -3.246238, 0.678158, -0.230655, 0.341550, -3.975244, -22.710876, -81.965607, -641.978333
1733469997.906140, 2.308010, -2.371307, 0.918775, -0.457015, 0.507010, -3.700849, -21.216156, -81.174866, -641.810547
1733469997.916141, 3.232023, -1.832612, 1.299902, -0.653515, 0.426702, -3.464261, -20.071472, -80.424164, -642.302002
1733469997.926140, 3.639785, -1.135899, 1.203086, -0.800778, 0.156630, -3.282193, -18.843842, -79.752914, -642.804321
1733469997.936150, 3.723732, -0.552462, 0.581043, -0.837979, -0.183115, -3.179352, -17.626663, -78.836868, -643.098877
1733469997.946138, 4.102016, 0.053421, -0.695516, -0.734399, -0.363558, -3.077695, -16.829575, -77.933960, -642.810486
1733469997.956142, 4.924125, 0.850241, -2.013973, -0.533365, -0.172464, -2.902844, -15.666214, -77.266373, -643.400818
1733469997.966142, 5.944653, 1.449689, -2.233790, -0.304854, 0.163463, -2.670045, -14.712723, -76.430923, -643.532471
1733469997.976138, 7.199963, 1.924489, -1.794305, -0.052537, 0.426742, -2.406090, -14.145538, -75.802689, -643.621277
1733469997.986138, 8.647407, 2.486229, -1.261595, 0.214594, 0.602580, -2.121374, -13.510376, -75.405136, -643.314209
1733469997.996149, 9.926809, 3.069815, -0.438737, 0.478902, 0.636975, -1.841123, -12.817841, -75.174515, -643.079712
1733469998.006148, 11.132589, 3.432836, 0.604237, 0.740941, 0.500615, -1.565900, -12.427658, -74.973053, -642.699158
1733469998.016154, 12.283302, 3.688567, 1.468992, 0.943091, 0.330289, -1.279977, -12.283936, -74.896515, -642.116028
1733469998.026150, 13.493122, 4.031836, 2.543540, 1.024744, 0.144327, -1.001028, -12.048843, -74.850281, -641.863403
1733469998.036140, 14.887744, 4.661361, 3.775057, 0.981342, -0.114811, -0.673087, -12.363434, -74.916504, -641.803955
1733469998.046136, 16.691775, 5.292383, 4.726603, 0.799463, -0.451417, -0.275418, -12.278687, -75.124695, -640.955811
1733469998.056144, 19.119795, 5.561581, 4.594024, 0.495742, -0.743485, 0.224735, -12.751938, -75.232986, -641.852356
1733469998.066144, 21.779155, 5.287894, 3.231274, 0.212154, -0.843454, 0.910384, -13.778137, -75.582535, -641.771606
1733469998.076144, 23.957280, 4.400243, 1.677438, 0.046039, -0.725318, 1.689632, -15.073578, -76.364700, -642.411072
1733469998.086138, 25.338584, 2.822764, 0.778265, 0.023665, -0.648581, 2.454205, -16.660904, -77.058395, -642.707153
1733469998.096136, 25.649681, 1.421707, 0.079458, 0.161511, -0.637143, 3.131986, -18.284592, -78.031952, -642.766296
1733469998.106136, 25.543588, 0.280720, -0.268899, 0.340040, -0.510701, 3.629907, -20.242294, -78.873306, -643.027771
1733469998.116136, 26.137051, -0.857274, 0.695516, 0.390328, -0.460203, 4.037398, -21.937698, -79.825577, -642.703125
1733469998.125705, 27.255143, -1.411083, 1.512238, 0.308398, -0.650340, 4.538167, -23.490585, -80.788513, -643.026611
1733469998.136148, 27.589732, -0.563984, 1.197400, 0.397904, -0.940321, 5.435338, -24.895187, -81.721741, -642.350159
1733469998.146144, 24.285435, 0.532111, 1.483358, 0.571994, -0.937201, 6.668196, -26.534149, -82.608078, -641.504761
1733469998.156135, 16.089185, 0.459986, 3.066224, 0.299788, -0.285449, 7.922683, -29.169067, -83.086151, -641.963501
1733469998.166184, 4.418499, -2.097620, 5.840356, -0.867621, 0.958095, 8.712535, -32.494278, -83.216461, -643.122742
1733469998.176132, -7.915979, -7.810634, 8.553884, -2.978951, 2.055955, 8.465038, -33.931046, -82.557785, -644.898071
1733469998.186132, -18.246360, -11.193791, 6.637176, -4.920590, 2.410960, 7.469350, -36.850632, -80.965897, -646.815308
1733469998.196135, -26.288783, -12.493692, 0.444274, -5.776481, 1.899715, 5.975361, -38.484818, -79.289291, -649.942932
1733469998.206198, -29.700969, -16.443676, -8.844630, -5.466869, 1.084492, 4.050795, -39.484131, -77.544891, -651.277100
1733469998.216131, -27.477355, -18.978687, -18.178425, -4.085930, 1.030554, 2.120148, -39.428070, -76.327972, -652.283691
1733469998.226133, -22.101175, -19.163040, -21.925800, -2.225541, 1.176791, 0.694548, -39.080170, -75.973740, -653.049255
1733469998.236134, -15.379903, -19.845687, -21.677401, -0.340034, 1.342871, -0.160617, -38.713058, -76.259842, -652.827026
1733469998.246207, -11.423933, -17.862241, -17.334020, 1.260655, 1.296619, -0.656009, -38.221283, -77.209778, -651.455688
1733469998.256140, -10.434978, -14.933833, -10.710012, 2.424718, 1.003853, -1.053523, -37.418198, -78.181519, -651.143799
1733469998.266152, -10.315119, -13.795839, -4.474913, 2.993920, 0.470177, -1.492615, -36.802917, -79.017227, -649.707397
1733469998.276128, -10.190770, -13.520356, -0.340426, 2.961368, -0.174325, -1.977844, -36.121140, -79.788559, -648.798401
1733469998.286190, -10.570700, -12.981960, 1.223437, 2.571174, -0.745230, -2.476016, -35.348480, -80.725494, -647.730347
1733469998.296137, -10.808324, -12.246341, 0.644938, 2.102522, -1.031912, -3.045868, -33.909866, -81.260376, -646.675171
1733469998.306124, -10.038738, -10.648212, -0.712574, 1.762862, -1.005784, -3.521324, -32.910980, -81.522263, -645.789062
1733469998.316129, -8.467992, -9.034819, -1.499070, 1.562615, -0.769250, -3.875335, -31.072784, -81.702576, -645.349487
1733469998.326135, -6.315904, -7.143250, -1.508946, 1.425309, -0.535572, -4.039417, -29.716965, -81.972336, -644.985474
1733469998.336133, -3.893122, -5.209484, -1.244536, 1.321131, -0.383770, -3.963939, -28.168381, -81.883484, -644.054565
1733469998.346135, -2.465579, -4.261080, -0.996736, 1.211136, -0.259382, -3.792645, -26.940857, -82.201614, -643.473999
1733469998.356127, -2.476353, -4.011784, -0.309600, 1.078512, -0.226621, -3.683013, -25.528931, -81.981842, -643.726929
1733469998.366141, -2.721459, -3.897910, 0.267402, 0.902369, -0.365883, -3.721153, -23.996094, -81.666458, -643.546753
1733469998.376125, -2.666841, -3.526210, 0.025139, 0.711952, -0.459284, -3.836203, -22.627991, -81.344223, -643.505493
1733469998.386189, -2.186355, -2.722656, -0.253336, 0.528477, -0.424868, -3.964233, -21.024643, -80.713638, -642.945862
1733469998.396134, -0.947505, -1.546954, -0.255581, 0.371685, -0.418778, -4.042288, -19.355515, -80.100235, -642.775940
1733469998.406121, 0.537199, -0.309301, -0.485424, 0.287935, -0.491079, -3.984860, -17.998672, -79.368607, -643.163513
1733469998.416125, 2.081309, 0.708983, -0.944961, 0.300119, -0.563259, -3.803160, -17.120087, -78.805908, -643.210327
1733469998.426123, 3.557035, 1.599476, -1.030405, 0.425685, -0.704709, -3.535138, -16.081161, -78.307693, -643.030518
1733469998.436119, 4.713734, 2.233042, -1.176002, 0.635660, -0.885809, -3.217852, -15.436188, -77.696167, -642.915710
1733469998.446123, 6.092495, 2.503886, -1.382651, 0.853717, -0.899322, -2.858401, -14.777969, -77.335724, -641.560791
1733469998.456174, 8.128464, 2.893842, -0.717213, 0.949554, -0.745150, -2.404106, -14.579300, -76.916855, -642.370605
1733469998.466116, 10.387693, 3.425504, 0.596605, 0.789910, -0.620585, -1.827670, -14.491287, -76.712402, -642.497375
1733469998.476120, 12.456882, 4.042011, 1.399261, 0.394583, -0.474259, -1.146212, -14.865372, -76.553284, -642.458252
1733469998.486120, 13.913903, 4.951059, 1.368586, -0.093498, -0.088415, -0.540478, -15.304855, -76.592468, -642.626465
1733469998.496135, 15.725416, 5.628170, 1.190367, -0.526616, 0.461329, -0.044704, -16.069077, -76.582901, -643.338013
1733469998.506135, 18.240974, 4.648492, 1.006163, -0.879701, 0.942429, 0.430697, -16.808640, -76.441757, -643.614868
1733469998.516125, 20.506636, 2.310105, 0.732027, -1.098385, 1.299550, 0.706443, -17.306763, -76.384674, -643.517700
1733469998.526128, 23.250990, 0.295235, 0.672920, -1.143988, 1.466164, 0.880473, -17.823318, -76.395935, -643.801514
1733469998.536129, 26.055797, -0.502483, 0.957381, -1.000357, 1.215571, 1.204877, -18.538040, -76.743683, -644.117859
1733469998.546129, 28.085931, -1.321300, 0.982371, -0.700990, 0.827312, 1.546865, -19.311462, -77.192276, -643.500488
1733469998.556120, 30.358627, -3.290082, 1.382801, -0.410733, 0.338260, 1.887638, -20.204681, -77.518723, -644.429688
1733469998.566120, 32.541989, -5.764639, 1.493383, -0.167057, -0.380301, 2.397992, -21.257980, -78.157074, -644.849182
1733469998.576119, 33.113904, -7.130232, 0.562787, 0.066684, -0.949259, 3.076307, -22.421570, -78.787964, -644.546265
1733469998.586119, 32.261119, -7.710078, -0.457442, 0.273267, -1.143304, 3.843390, -23.589066, -79.737656, -644.236450
1733469998.596133, 30.449008, -6.801478, -0.994192, 0.462156, -1.029894, 4.856610, -24.834457, -80.763641, -644.043335
1733469998.606135, 26.150518, -5.065383, -0.871340, 0.612460, -0.498163, 6.078773, -26.928421, -81.540573, -643.866577
1733469998.616118, 18.512865, -4.941183, 1.323096, 0.444830, 0.481715, 7.159028, -28.791061, -82.328598, -643.613525
1733469998.626133, 9.209446, -5.005827, 4.777181, -0.309053, 1.616990, 7.812780, -30.571976, -82.530640, -643.392822
1733469998.636118, -0.811485, -4.077625, 7.821857, -1.571293, 2.597049, 8.010975, -32.919708, -82.196014, -644.414734
1733469998.646113, -11.949760, -4.314351, 10.320805, -3.114087, 2.999076, 7.546897, -34.693970, -81.151382, -646.241699
1733469998.656111, -21.400422, -4.767155, 10.456227, -4.533763, 2.351746, 6.265540, -36.626495, -79.526672, -648.870605
1733469998.666114, -24.796148, -6.027552, 3.747075, -5.290269, 1.052368, 4.642979, -37.408249, -77.895279, -650.865417
1733469998.676134, -22.760179, -11.496208, -9.271247, -4.834366, 0.220691, 3.123158, -37.934402, -76.924789, -652.353760
1733469998.686116, -18.097621, -15.172206, -20.629938, -3.239161, 0.402546, 2.042826, -38.278549, -76.470139, -652.521423
1733469998.696115, -13.068899, -17.381605, -25.538500, -0.869167, 0.986534, 1.515304, -38.327835, -76.976959, -652.103149
1733469998.706115, -9.803358, -18.452561, -22.136340, 1.263166, 1.204956, 1.333503, -38.611542, -78.052094, -651.033020
1733469998.716118, -9.857976, -18.215386, -15.145570, 2.638304, 1.084863, 1.161335, -38.702698, -79.198257, -649.863220
1733469998.726124, -11.768698, -17.159692, -8.098686, 3.397592, 0.856488, 0.809762, -38.713058, -80.500412, -647.881409
1733469998.736127, -13.740024, -15.534179, -1.053000, 3.540216, 0.184725, 0.209950, -38.444260, -81.396423, -646.833008
1733469998.746165, -14.633809, -14.288745, 3.016096, 3.169371, -0.662065, -0.572827, -38.131729, -82.161179, -645.317383
1733469998.756122, -14.282760, -13.056479, 3.733757, 2.536759, -1.256460, -1.329708, -38.131729, -82.161179, -645.317383
1733469998.766149, -13.245771, -11.905916, 1.997961, 1.836898, -1.326307, -1.945279, -37.615723, -82.694275, -644.395630
1733469998.776121, -11.165060, -10.480618, -0.443675, 1.206932, -0.849815, -2.299941, -36.538849, -82.947510, -643.930908
1733469998.786118, -8.447641, -8.926631, -2.025644, 0.671553, -0.031924, -2.386204, -35.958176, -83.192963, -643.761230
1733469998.796117, -6.251111, -7.684789, -2.148497, -0.024617, 0.975536, -2.436550, -35.183975, -83.360596, -643.956909
1733469998.806119, -4.740220, -6.771102, -1.679383, -0.168169, 0.866468, -2.581066, -34.064819, -83.492081, -643.930115
1733469998.816119, -3.354277, -5.867889, -1.208922, -0.157035, 0.415443, -2.787029, -33.029648, -83.507751, -644.333984
1733469998.826114, -2.234987, -5.012261, -1.111957, 0.030023, -0.270886, -3.059346, -31.928818, -83.440598, -644.370667
1733469998.836114, -0.935534, -4.185513, -1.031751, 0.333337, -1.131065, -3.230056, -30.823563, -83.198456, -643.871948
1733469998.846113, 0.574908, -2.822165, -0.673968, 0.610570, -1.837614, -3.185868, -29.792343, -83.143112, -643.819946
1733469998.856117, 2.311602, -1.518522, -0.663792, 0.666509, -2.178287, -2.873559, -28.236893, -82.959717, -643.211121
1733469998.866116, 4.026149, -0.637157, -0.560094, 0.463290, -2.235958, -2.331712, -27.520538, -82.692566, -643.256409
1733469998.876117, 5.096208, -0.072724, -0.206650, 0.107444, -2.135469, -1.709488, -27.162201, -82.437958, -643.455261
1733469998.886115, 5.151125, 0.348207, 0.013767, -0.260657, -1.885584, -1.156708, -26.954407, -82.363831, -643.641968
1733469998.896112, 4.279187, 0.286706, -0.292691, -0.554752, -1.542050, -0.787695, -26.923233, -82.329727, -644.049500
1733469998.906108, 2.615216, -0.221464, -0.691026, -0.729473, -1.231805, -0.676264, -27.547913, -82.162704, -644.836365
1733469998.916122, 0.934337, -0.878223, -0.720954, -0.785514, -1.025390, -0.821900, -28.004761, -81.754364, -645.030396
1733469998.926108, 0.051775, -1.555034, -0.575057, -0.794387, -0.749389, -1.130132, -28.062683, -81.339844, -645.701233
1733469998.936106, -0.211887, -1.970278, -0.887800, -0.772049, -0.528169, -1.494298, -28.118820, -80.985245, -646.204712
1733469998.946105, 0.381576, -2.081010, -0.682347, -0.711447, -0.467255, -2.011272, -28.274307, -80.738800, -646.665710
1733469998.956113, 1.507000, -2.545934, -0.544831, -0.529673, -0.574682, -2.702588, -27.983734, -80.556305, -646.570679
1733469998.966117, 3.543718, -3.290082, -0.994940, -0.105915, -0.960188, -3.226798, -27.280350, -79.925888, -647.338074
1733469998.976103, 6.971915, -3.197007, -1.333570, 0.491663, -1.403224, -3.601190, -26.951157, -79.533142, -648.146790
1733469998.986109, 10.643723, -2.795979, -2.390760, 1.150772, -1.773234, -3.828821, -26.267960, -79.260712, -647.716431
1733469998.996109, 15.418210, -1.940351, -3.009362, 1.704240, -2.273616, -3.504996, -25.199677, -78.953430, -647.593079
1733469999.006119, 21.647174, -0.631171, -2.549825, 2.070369, -2.773573, -2.652682, -24.726151, -79.099136, -647.248047
1733469999.016130, 27.232847, -0.736816, -2.396147, 2.229627, -2.961657, -1.485202, -24.646637, -79.100571, -647.027222
1733469999.026117, 30.592361, -1.169418, -2.617311, 2.161899, -2.662872, -0.188189, -25.501877, -79.584686, -646.010132
1733469999.036113, 31.978005, -1.406145, -3.124134, 1.829238, -1.756080, 1.008915, -26.359314, -80.115601, -646.002686
1733469999.046105, 32.962920, -3.364901, -3.789722, 1.356940, -0.626940, 2.187810, -27.710678, -80.733398, -645.432495
1733469999.056111, 33.312922, -4.204966, -4.001609, 1.077115, 0.371264, 3.253881, -29.038849, -81.734421, -645.464050
1733469999.066114, 32.462232, -4.358046, -3.696797, 1.061314, 0.991558, 4.290016, -29.968948, -82.411743, -644.994019
1733469999.076106, 30.699651, -3.879205, -1.759888, 0.861446, 1.324550, 5.353305, -30.875961, -83.244110, -644.102661
1733469999.086106, 27.056873, -2.873491, 2.114679, 0.120975, 1.856925, 6.344015, -32.178741, -83.614349, -643.672852
1733469999.096102, 20.322283, -1.990928, 5.912780, -1.399850, 2.681778, 6.825095, -33.822800, -83.809036, -643.548218
1733469999.106100, 10.948235, -3.075651, 9.200318, -3.371630, 3.088205, 6.497718, -35.454971, -83.383057, -644.600830
1733469999.116106, -0.318578, -5.325004, 11.511770, -5.007515, 2.687184, 5.285084, -37.343643, -82.259018, -646.557556
1733469999.126101, -11.169998, -6.597821, 10.282797, -5.874614, 1.596455, 3.510338, -38.188126, -80.674942, -648.435669
1733469999.136107, -16.297929, -9.160814, 4.049942, -5.616543, 0.756310, 1.832676, -38.599884, -78.734253, -651.428101
1733469999.146111, -15.569344, -11.581502, -7.227197, -4.435771, 0.990895, 0.769894, -38.297211, -76.939240, -652.832886
1733469999.156103, -10.967688, -12.294226, -17.451785, -2.756357, 1.502300, 0.489244, -37.466400, -75.441208, -653.981934
1733469999.166116, -5.673510, -12.461969, -21.982662, -1.003731, 1.902765, 0.639661, -37.046555, -74.751526, -654.710205
1733469999.176099, -3.215562, -11.850550, -21.824345, 0.541521, 2.119912, 0.900550, -36.139374, -74.831299, -654.423340
1733469999.186099, -3.416077, -11.365425, -17.757195, 1.489046, 1.902304, 1.059431, -35.778122, -75.274902, -654.048584
1733469999.196113, -5.956774, -11.649886, -10.908581, 1.807534, 1.351561, 0.836977, -36.075836, -75.844131, -653.307861
1733469999.206099, -9.981277, -12.875867, -4.964676, 1.699589, 0.638559, 0.159908, -35.706543, -76.586395, -652.724365
1733469999.216108, -13.743017, -13.446285, -1.205780, 1.424398, -0.083738, -0.802170, -35.447479, -77.185608, -652.108826
1733469999.226114, -16.140959, -12.681637, 0.451756, 1.140715, -0.640249, -1.764684, -34.781128, -77.547577, -651.170227
1733469999.236106, -16.558149, -11.661258, 0.133028, 0.902306, -0.878175, -2.515402, -33.971939, -77.687332, -650.885742
1733469999.246096, -15.143774, -10.517878, -1.690606, 0.752347, -0.577888, -2.946496, -32.858047, -77.744522, -650.444702
1733469999.256106, -12.839804, -8.983942, -4.453065, 0.674249, 0.020951, -3.197007, -32.376129, -77.979294, -650.366211
1733469999.266101, -9.947160, -7.654712, -5.940014, 0.678424, 0.433089, -3.278118, -30.972748, -78.275848, -650.156555
1733469999.276109, -6.484546, -6.642713, -5.953931, 0.782029, 0.514053, -3.170038, -29.798508, -78.400925, -649.407410
1733469999.286091, -3.814412, -5.629516, -5.557990, 0.974970, 0.351556, -3.021712, -28.673584, -78.388199, -649.266357
1733469999.296092, -2.226608, -4.972308, -5.043236, 1.225569, -0.032185, -2.905673, -27.814484, -78.566040, -648.915222
1733469999.306142, -1.386243, -4.521450, -4.214543, 1.437194, -0.398825, -2.895967, -26.970901, -78.583328, -648.611572
1733469999.316106, -1.131260, -4.524892, -3.884443, 1.540145, -0.501966, -2.977167, -26.022354, -78.833496, -648.022644
1733469999.326093, -1.073799, -4.614375, -4.279486, 1.518146, -0.166793, -3.114906, -25.101898, -78.968460, -647.836792
1733469999.335729, -0.356586, -4.816834, -4.840328, 1.398319, 0.442394, -3.228421, -24.059418, -78.945419, -647.187134
1733469999.346131, 1.475127, -4.352958, -4.960337, 1.277796, 1.110647, -3.187586, -22.531631, -78.998016, -645.922607
1733469999.356092, 4.094833, -3.199252, -4.407276, 1.243797, 1.473067, -3.020466, -21.422867, -78.736908, -645.535583
1733469999.366090, 6.771999, -2.047491, -2.830695, 1.328915, 1.487265, -2.846809, -20.420181, -78.771698, -644.944336
1733469999.376102, 9.139416, -1.015890, -1.229273, 1.500581, 1.198177, -2.626364, -19.377609, -78.740707, -643.795288
1733469999.386121, 11.609633, 0.016460, 0.401029, 1.676162, 0.695902, -2.358665, -18.640915, -78.629105, -643.403870
1733469999.396092, 13.460202, 0.610970, 2.019509, 1.734015, 0.269708, -2.183211, -18.059296, -78.633728, -642.546631
1733469999.406086, 14.709376, 0.809390, 3.184438, 1.644504, -0.085292, -1.938576, -16.999344, -78.533813, -641.850769
1733469999.416092, 16.066440, 1.426046, 4.331410, 1.440569, -0.316748, -1.536823, -16.753525, -78.468124, -640.833984
1733469999.426145, 17.246033, 1.902044, 5.060295, 1.134483, -0.300964, -1.140086, -16.554672, -78.505005, -641.007568
1733469999.435704, 18.308310, 1.734150, 5.035455, 0.812417, -0.164220, -0.603223, -16.262482, -78.417099, -640.956055
1733469999.446092, 19.796456, 1.618630, 4.893599, 0.504930, 0.032656, -0.019585, -16.120560, -78.733612, -640.391418
1733469999.456098, 20.873548, 0.776619, 4.958691, 0.185293, 0.094544, 0.611720, -16.773346, -78.998138, -640.544312
1733469999.466099, 21.903354, -0.137068, 5.382465, -0.108778, -0.045212, 1.240636, -17.275681, -79.193665, -640.846436
1733469999.476100, 22.047904, -1.306486, 5.294927, -0.246010, -0.205539, 1.722268, -18.080811, -79.487381, -641.048157
1733469999.486095, 21.206940, -2.731335, 4.612579, -0.241469, -0.454062, 2.109053, -19.277466, -79.952194, -640.979858
1733469999.496096, 20.527286, -3.579182, 4.000262, -0.115391, -0.690055, 2.482208, -20.275208, -80.528519, -641.288635
1733469999.506090, 20.135685, -4.117279, 2.974347, 0.071405, -0.724723, 2.786217, -21.245987, -80.966080, -641.159729
1733469999.516093, 20.079571, -4.420145, 1.782633, 0.334002, -0.668891, 3.203578, -22.343918, -81.554413, -641.113159
1733469999.526103, 20.134937, -4.168754, 0.401777, 0.774565, -0.431101, 3.938858, -22.845993, -82.317200, -640.527283
1733469999.536095, 19.736152, -2.965518, -0.668132, 1.256921, -0.009742, 5.089943, -23.843292, -83.335602, -639.676208
1733469999.546084, 18.159421, -0.030975, -0.822408, 1.421637, 1.043453, 6.699359, -23.841354, -83.914337, -638.139526
1733469999.556084, 14.052767, 3.091214, -1.443105, 0.835961, 2.728130, 8.551177, -26.139374, -84.731918, -636.977295
1733469999.566093, 2.132485, 5.361366, -0.085144, -0.915497, 3.585860, 9.064297, -30.606827, -85.253189, -638.781494
1733469999.576165, -17.476325, -0.145448, 4.419696, -2.634640, 3.319599, 7.142278, -35.102432, -85.480988, -640.465332
1733469999.586080, -37.209335, -12.469750, 3.282750, -2.855437, 2.692300, 3.108420, -36.163803, -85.057281, -641.432251
1733469999.596098, -48.334742, -20.579510, -3.969736, -1.467046, 1.818191, -0.868100, -34.665634, -84.736038, -642.320007
1733469999.606095, -42.672455, -18.418593, -11.890803, 1.172973, 1.196345, -3.107491, -33.083603, -84.995804, -641.524841
1733469999.616102, -25.493609, -15.061474, -18.387319, 4.044147, 1.100721, -3.506081, -30.842422, -85.650406, -639.879639
1733469999.626157, -6.774543, -16.386365, -17.240347, 5.421751, 0.064035, -2.570273, -30.020218, -86.528000, -636.626831
1733469999.636089, 4.539706, -15.434670, -3.449895, 5.042805, -1.133529, -1.691347, -29.888794, -87.320389, -634.100891
1733469999.646085, 4.778827, -13.771298, 8.516475, 3.942611, -1.017741, -1.252546, -29.903030, -87.725220, -633.364441
1733469999.656080, 1.932420, -14.557494, 12.037747, 2.361240, -0.629455, -1.176136, -29.831604, -88.330704, -631.619202
1733469999.666090, -0.038008, -16.543634, 14.607623, 0.958910, -0.280929, -1.322132, -28.960602, -88.235474, -632.341431
1733469999.676085, -0.475399, -17.197102, 13.687651, -0.140842, 0.004418, -1.380425, -28.379562, -88.166794, -631.640564
1733469999.686082, 1.268628, -16.031874, 11.757775, -1.071052, 0.304788, -1.254398, -27.840149, -87.755539, -631.799561
1733469999.696080, 3.183989, -14.545224, 9.712977, -1.794296, 0.630368, -1.102782, -27.466797, -87.463593, -633.605835
1733469999.706096, 3.519626, -13.234249, 7.364415, -2.302458, 0.781827, -1.139281, -26.779587, -87.053284, -633.462524
1733469999.716100, 2.430564, -12.182297, 5.206940, -2.512305, 0.749320, -1.393779, -26.371384, -86.466354, -635.201355
1733469999.726094, 1.485303, -11.230302, 2.899528, -2.373319, 0.468036, -1.707244, -25.411102, -85.812668, -635.343201
1733469999.736081, 1.659930, -9.537751, 1.365443, -1.976894, -0.191586, -1.950552, -24.638962, -85.277237, -636.293396
1733469999.746078, 1.901744, -7.757363, 1.139790, -1.541835, -1.009188, -2.255112, -23.734802, -84.468887, -637.745117
1733469999.756096, 1.519570, -6.854899, 0.937031, -1.192019, -1.797436, -2.595348, -22.816452, -83.870911, -637.842346
1733469999.766104, 1.385345, -6.056133, 0.582090, -0.969961, -2.340425, -2.837557, -21.751434, -82.849701, -639.181396
1733469999.776081, 1.958158, -4.735132, -0.483778, -0.877993, -2.167127, -2.839383, -20.865509, -82.133286, -639.510986
1733469999.786088, 3.283199, -3.356072, -2.757971, -0.901768, -1.439158, -2.652421, -19.987091, -81.421143, -639.589111
1733469999.796086, 5.219060, -2.456152, -4.209007, -0.936433, -0.715024, -2.360480, -19.485367, -80.741928, -640.741760
1733469999.806079, 6.895151, -1.948431, -4.125509, -0.897449, -0.278788, -2.061280, -19.043411, -80.390579, -640.431763
1733469999.816087, 7.886201, -1.811962, -3.527258, -0.750528, -0.041891, -1.891904, -18.635223, -79.717880, -641.511963
1733469999.826080, 8.148067, -1.699434, -3.129670, -0.478861, 0.125582, -1.833252, -18.115463, -79.413879, -641.615723
1733469999.836151, 8.750657, -1.411083, -2.652327, -0.148543, 0.105464, -1.805029, -17.884613, -79.131607, -641.025269
1733469999.846077, 9.715072, -1.154604, -1.502511, 0.166316, -0.090755, -1.819410, -16.932327, -78.698273, -641.484131
1733469999.856096, 10.655843, -1.023970, 0.119560, 0.333368, -0.378414, -1.762087, -16.649612, -78.155640, -641.651978
1733469999.866085, 12.289138, -0.606930, 1.893215, 0.212325, -0.657726, -1.539127, -16.409760, -77.999069, -641.371460
1733469999.876126, 13.836241, 0.222960, 3.247136, -0.176161, -0.803295, -1.284011, -16.414597, -77.524277, -642.050659
1733469999.886079, 15.194502, 0.438438, 3.692009, -0.669270, -0.809932, -0.933117, -16.644012, -77.077866, -642.939087
1733469999.896072, 17.120936, 0.220117, 3.710115, -1.073995, -0.827199, -0.472080, -16.790848, -77.008667, -643.075134
1733469999.906068, 19.241151, -0.062549, 3.591452, -1.313567, -1.032981, 0.010895, -17.614243, -76.545807, -644.231689
1733469999.916086, 20.576517, -0.327557, 4.478653, -1.565770, -1.646705, 0.481311, -18.304062, -76.225067, -645.380981
1733469999.926081, 21.007474, -0.938677, 6.308871, -1.976217, -2.556642, 0.917336, -19.185715, -75.839676, -646.920227
1733469999.936073, 20.960487, -1.797746, 7.417536, -2.431455, -3.509513, 1.486899, -20.421310, -74.943100, -647.425537
1733469999.946072, 20.302381, -1.081880, 6.703316, -2.927871, -3.786790, 2.258889, -21.546661, -74.279694, -650.008118
1733469999.956082, 19.552996, 0.030376, 2.990508, -3.374101, -3.176424, 3.246917, -23.124405, -73.633835, -651.267822
1733469999.966082, 19.357869, 1.322497, -2.441487, -3.472929, -1.979541, 4.634898, -24.413681, -72.918625, -652.196594
1733469999.976072, 18.626739, 3.226336, -7.519439, -3.435486, -0.533895, 6.163164, -26.115936, -72.505432, -652.515015
1733469999.986074, 14.086585, 5.052065, -9.720908, -3.632367, 1.041057, 7.307005, -27.340408, -71.506027, -654.194946
1733469999.996076, 5.486612, 5.168333, -8.867075, -4.261005, 2.369625, 7.809201, -28.771759, -70.480225, -655.486328
1733470000.006076, -4.837484, 3.510049, -5.762245, -5.180387, 2.767922, 7.318419, -29.738708, -68.914215, -657.443237
1733470000.016083, -16.704345, 0.287005, -2.207155, -5.736737, 1.916863, 5.914955, -30.840118, -66.618118, -659.019043
1733470000.026117, -25.859922, -3.568408, -3.838504, -5.164153, 0.975883, 4.077363, -31.053680, -65.136459, -659.347656
1733470000.036110, -30.563032, -8.264634, -13.417106, -3.503360, 0.924165, 2.107107, -31.496582, -63.950577, -660.981812
1733470000.046192, -31.550490, -11.614871, -23.092374, -1.343890, 1.237826, 0.232944, -32.105515, -64.176483, -661.450073
1733470000.056107, -27.988816, -14.723592, -26.625917, 0.781703, 1.298226, -1.619106, -31.108902, -64.499405, -660.899231
1733470000.066111, -15.387384, -19.167978, -20.262578, 2.704860, 0.961134, -3.159331, -29.845062, -65.942368, -659.484985
1733470000.076070, -10.520122, -14.911836, -13.410223, 4.284406, 0.425990, -4.193035, -28.209305, -67.701828, -658.426147
1733470000.086065, -5.591957, -12.215965, -5.315726, 5.079316, -0.170465, -4.715009, -27.122070, -69.231369, -655.984253
1733470000.096063, -1.469890, -11.326519, 1.980603, 4.945785, -0.822097, -4.844564, -26.120377, -70.433258, -655.421143
1733470000.106066, 1.601871, -11.437251, 6.437260, 4.121596, -1.307355, -4.752530, -25.802765, -71.148987, -654.698242
1733470000.116069, 3.774160, -12.132467, 7.730129, 2.951129, -1.661979, -4.606184, -25.331833, -71.433670, -654.264343
1733470000.126065, 5.157260, -12.472145, 5.362563, 1.835071, -1.709727, -4.484299, -24.489639, -71.255463, -653.840088
1733470000.136064, 6.689399, -11.190947, 1.456423, 1.041436, -1.318739, -4.320375, -23.545090, -70.916718, -653.761047
1733470000.146063, 9.213187, -8.646061, -1.231667, 0.536494, -0.685304, -4.011243, -22.302109, -70.394516, -653.056763
1733470000.156063, 12.062437, -5.939266, -2.121712, 0.221036, -0.119103, -3.439328, -21.701645, -69.915863, -653.571289
1733470000.166063, 13.851354, -3.891027, -2.054375, 0.002698, 0.168807, -2.707578, -20.992737, -69.545883, -653.425842
1733470000.176079, 14.593557, -2.684648, -2.330755, -0.190398, 0.324070, -2.008513, -20.809158, -69.090164, -653.491455
1733470000.186067, 15.127015, -1.848773, -2.849699, -0.400446, 0.518171, -1.336263, -20.393631, -68.869843, -653.724365
1733470000.196061, 15.020922, -1.112256, -3.403058, -0.623570, 0.579807, -0.734820, -19.953354, -68.335678, -653.687683
1733470000.205534, 14.345009, -0.221613, -5.182549, -0.739762, 0.637521, -0.219411, -19.953354, -68.335678, -653.687683
1733470000.216065, 13.605500, 0.310348, -7.357082, -0.651056, 0.824219, 0.214823, -19.608871, -68.107178, -653.358582
1733470000.226059, 12.997822, 0.640748, -9.005191, -0.360953, 1.078590, 0.580238, -19.647491, -68.293655, -652.745972
1733470000.236059, 12.278813, 0.331447, -10.203788, 0.115592, 1.374632, 0.825236, -19.660294, -68.689713, -652.646790
1733470000.245973, 11.662007, -0.308852, -10.826281, 0.742026, 1.826826, 0.890521, -19.217514, -69.542221, -652.166504
1733470000.256082, 11.657518, -0.298228, -9.595212, 1.428005, 2.162448, 0.841517, -18.864426, -70.408127, -651.309204
1733470000.266071, 11.970260, -0.013018, -6.570438, 2.112685, 2.041074, 0.764712, -18.499908, -71.576523, -649.993774
1733470000.276066, 12.347646, 0.658854, -3.361908, 2.745613, 1.558829, 0.688037, -18.499908, -71.576523, -649.993774
1733470000.286064, 13.017125, 0.842759, -0.310648, 3.177195, 0.807421, 0.666854, -18.037369, -72.784393, -648.680420
1733470000.296068, 13.365780, 0.383521, 1.368586, 3.324044, 0.085905, 0.724978, -18.219604, -73.847214, -647.529053
1733470000.306063, 13.381792, 0.320673, 1.578826, 3.327255, -0.172094, 0.881431, -18.239761, -75.006638, -646.740479
1733470000.316069, 13.544747, 0.237475, 2.001403, 3.251035, 0.114592, 1.097843, -18.527359, -76.408112, -645.248047
1733470000.326060, 13.902381, -0.503531, 4.286818, 3.005506, 0.465896, 1.337408, -19.181870, -77.619659, -643.988220
1733470000.336068, 14.443171, -1.325789, 7.192780, 2.536268, 0.593332, 1.541606, -19.804688, -78.706833, -643.263794
