SamplingTime, AccelerationX, AccelerationY, AccelerationZ, GyroX, GyroY, GyroZ, MagneticFieldX, MagneticFieldY, MagneticFieldZ
1733470147.830867, 3.678691, -12.236016, -0.505625, 0.310297, 0.110175, -0.492614, -7.540787, -72.349838, -641.697815
1733470147.840795, 3.380762, -12.719196, -0.462081, 0.514825, -0.019200, -0.687184, -7.062057, -72.254333, -642.723877
1733470147.850865, 3.074305, -13.593529, -0.031424, 0.793996, -0.427374, -0.944402, -7.001038, -72.078323, -642.650452
1733470147.860878, 2.247557, -14.434193, 0.090680, 1.010858, -0.864232, -1.221785, -6.767029, -72.079819, -642.459839
1733470147.870475, 2.247557, -14.434193, 0.090680, 1.159009, -1.198387, -1.449994, -6.153305, -71.878662, -642.472900
1733470147.880859, 2.507777, -13.702764, -1.583465, 1.316819, -1.388024, -1.569053, -5.630951, -71.545273, -641.789124
1733470147.890861, 2.302175, -13.298294, -2.571373, 1.459513, -1.366135, -1.617227, -5.472885, -71.391724, -641.299072
1733470147.900078, 2.302175, -13.298294, -2.571373, 1.561411, -1.192392, -1.646493, -5.089737, -71.300751, -641.811157
1733470147.910013, 2.452411, -12.986449, -3.196409, 1.663272, -0.971453, -1.650660, -5.040222, -71.187576, -641.167236
1733470147.920869, 2.635268, -11.848605, -3.232472, 1.784920, -0.815765, -1.637446, -4.728500, -71.095886, -641.615662
1733470147.930869, 1.781436, -11.397447, -2.035520, 1.855773, -0.811401, -1.679688, -4.503281, -70.983566, -641.474915
1733470147.940889, 0.656759, -10.869227, -1.193210, 1.822442, -0.937081, -1.824892, -4.037201, -71.087723, -640.383545
1733470147.949917, 0.656759, -10.869227, -1.193210, 1.714334, -1.018488, -2.054974, -3.681412, -70.575943, -641.271851
1733470147.960874, -0.203358, -9.390657, -2.044349, 1.619506, -0.941042, -2.310950, -2.729034, -70.267624, -640.309326
1733470147.970146, -0.203358, -9.390657, -2.044349, 1.604672, -0.801099, -2.555718, -2.109314, -69.848221, -640.607056
1733470147.980869, 0.270395, -7.780856, -2.530073, 1.651554, -0.692006, -2.843810, -1.570343, -69.162552, -640.153625
1733470147.990872, 0.902764, -6.616825, -2.323573, 1.727824, -0.661117, -3.133952, -0.821655, -68.420120, -639.254456
1733470147.999912, 0.902764, -6.616825, -2.323573, 1.844581, -0.719687, -3.368067, 0.046906, -67.520538, -640.068665
1733470148.010880, 2.921824, -3.994576, -1.836203, 2.004371, -0.852565, -3.514008, 0.950989, -66.679886, -639.236328
1733470148.020885, 4.257040, -2.308459, -1.369184, 2.157260, -0.982706, -3.519583, 2.092133, -65.744232, -639.298523
1733470148.030874, 5.728576, -0.749834, -0.715268, 2.271109, -1.158666, -3.258457, 1.562241, -65.179138, -639.651306
1733470148.040883, 4.678719, -3.212719, -0.209193, 2.360173, -1.328380, -3.244039, 2.175720, -64.459030, -638.996887
1733470148.049932, 4.678719, -3.212719, -0.209193, 2.361440, -1.542221, -3.462739, 2.797302, -63.352478, -639.421631
1733470148.060875, 4.999392, -0.702399, 2.534113, 2.182466, -1.843005, -3.622809, 3.318710, -62.468613, -639.451721
1733470148.070867, 6.198139, 0.144251, 2.472462, 1.896122, -2.119150, -3.656353, 3.998901, -61.067139, -639.980469
1733470148.080867, 6.866421, 1.335366, 1.686715, 1.566694, -2.059760, -3.492918, 4.415527, -59.809418, -640.500122
1733470148.090869, 7.532458, 2.370709, 0.738462, 1.231666, -1.594402, -3.178205, 4.011826, -58.901535, -640.054321
1733470148.100189, 8.768015, 2.775029, 1.269825, 0.929612, -1.121905, -2.898147, 4.177063, -57.974854, -640.846436
1733470148.110863, 8.892215, 3.286191, 1.794753, 0.678544, -0.775138, -2.607039, 4.228973, -57.108673, -640.869019
1733470148.120871, 9.116521, 3.227833, 2.209998, 0.452072, -0.653471, -2.404477, 4.276581, -56.006775, -641.602905
1733470148.130869, 9.816077, 3.802292, 2.412308, 0.306166, -0.671161, -2.259902, 4.128143, -55.251541, -641.903931
1733470148.140864, 11.066299, 4.649091, 2.840122, 0.234290, -0.821344, -2.058432, 4.143921, -54.540649, -641.713745
1733470148.150871, 11.632528, 5.011962, 3.080440, 0.146362, -1.144791, -1.844135, 3.959824, -54.045639, -643.231018
1733470148.160867, 12.145186, 5.604377, 2.238728, 0.111434, -1.533212, -1.662073, 4.022293, -53.392075, -643.465149
1733470148.170863, 12.974029, 5.844546, 0.588525, 0.209732, -1.778779, -1.474543, 3.567429, -52.768250, -644.281494
1733470148.180838, 13.550882, 6.016778, -0.419883, 0.398795, -1.830814, -1.275862, 2.686096, -52.283768, -645.083008
1733470148.190868, 14.562432, 6.460155, -1.029058, 0.575598, -1.594790, -1.149872, 2.122131, -52.075043, -644.749390
1733470148.200867, 16.985813, 6.505046, -1.105822, 0.646222, -1.247494, -0.968851, 2.108475, -51.932648, -646.241821
1733470148.210866, 18.934394, 6.644807, -1.283891, 0.734685, -1.002428, -0.593882, 1.777252, -52.145233, -645.616821
1733470148.220866, 20.380642, 7.015609, -1.302446, 0.912372, -0.708797, -0.039434, 1.492508, -52.689911, -645.710205
1733470148.230877, 22.090850, 7.028778, -0.131382, 1.084046, -0.569031, 0.663422, 0.387619, -53.472778, -646.605713
1733470148.240871, 23.106440, 6.562956, 1.441160, 1.293887, -0.823411, 1.335454, -0.452881, -54.672394, -646.371948
1733470148.249962, 23.811832, 5.579088, 1.847127, 1.469308, -1.285585, 1.841555, -1.842468, -56.013779, -647.595154
1733470148.260868, 23.662793, 5.281609, 1.003919, 1.684939, -1.531836, 2.175765, -3.098923, -57.516129, -647.208313
1733470148.270864, 24.763976, 4.831200, 1.184831, 1.922585, -1.500876, 2.295001, -4.592728, -59.053726, -647.793152
1733470148.280872, 26.730214, 4.182521, 2.036269, 2.047585, -1.565001, 2.379738, -6.080734, -60.662735, -648.355164
1733470148.290862, 28.935423, 3.741090, 2.335095, 2.096020, -1.680696, 2.294110, -7.210815, -62.403214, -648.216309
1733470148.299990, 32.555456, 4.170400, 2.199374, 2.203776, -2.087003, 2.434175, -7.997284, -63.998444, -649.216003
1733470148.310865, 34.740165, 4.641758, 1.276409, 2.521987, -2.791681, 2.931291, -8.913223, -65.824219, -648.093872
1733470148.320861, 34.819773, 5.797859, -0.180912, 2.979121, -3.351164, 3.835468, -10.071793, -68.283142, -648.290527
1733470148.330860, 31.828218, 7.099257, -0.263213, 3.338516, -3.375151, 5.140387, -10.996384, -70.758896, -648.664185
1733470148.340862, 25.589826, 8.056339, 0.952593, 3.286944, -2.763592, 6.560088, -12.859512, -73.568558, -647.189819
1733470148.349990, 15.171607, 8.056339, 3.088221, 2.753465, -1.486210, 7.989362, -15.206390, -76.201782, -647.567566
1733470148.360850, 2.037915, 4.545990, 6.590489, 1.598258, -0.123905, 8.881036, -18.125107, -78.265106, -646.848755
1733470148.370865, -11.777377, -1.046116, 8.791508, 0.028699, 0.944083, 8.866590, -20.824005, -79.645920, -647.726074
1733470148.380857, -21.750424, -7.484873, 8.319551, -1.539303, 1.427318, 7.807239, -22.637680, -79.938416, -649.002380
1733470148.390856, -25.138369, -12.454338, 4.342633, -2.556195, 1.095402, 6.202655, -23.914581, -79.902130, -649.212341
1733470148.400866, -25.671977, -15.014787, -2.694973, -2.513578, 0.177901, 4.753437, -25.687607, -79.496338, -650.585693
1733470148.410916, -26.710013, -17.232865, -9.153631, -1.636373, -0.526409, 3.489564, -26.684540, -79.346008, -650.840027
1733470148.419880, -26.589255, -19.756204, -12.058696, -0.552915, -0.487973, 2.164965, -26.684540, -79.346008, -650.840027
1733470148.430858, -24.800039, -19.927090, -10.546758, 0.246416, -0.030643, 0.896785, -27.303741, -79.749115, -650.404480
1733470148.440001, -22.764518, -18.424280, -7.550414, 0.624230, 0.470390, -0.170921, -27.303741, -79.749115, -650.404480
1733470148.450864, -20.134787, -16.803555, -4.438551, 0.692438, 0.977464, -1.108011, -25.468155, -80.268585, -649.845215
1733470148.460911, -16.971149, -14.156316, -1.300949, 0.585582, 1.122353, -1.845770, -24.132370, -80.106110, -649.467346
1733470148.470841, -14.368502, -11.299734, 0.081552, 0.436343, 0.905775, -2.303773, -22.792923, -80.211151, -648.982666
1733470148.480848, -12.748525, -9.222315, 0.346112, 0.298850, 0.649111, -2.591119, -21.811600, -79.770752, -648.911987
1733470148.490856, -11.693131, -7.345560, 0.299425, 0.159590, 0.428742, -2.828641, -20.656387, -79.475021, -649.156250
1733470148.500847, -10.670358, -5.442619, -0.007183, 0.045184, 0.266291, -3.062346, -19.501785, -79.012497, -648.335571
1733470148.510845, -9.722254, -3.765930, -0.520589, -0.007535, 0.157847, -3.284427, -18.148453, -78.318588, -648.913208
1733470148.520845, -8.763077, -2.539051, -0.995240, -0.002547, 0.121524, -3.510875, -16.919373, -77.688110, -648.943054
1733470148.530854, -7.475895, -1.448043, -1.459715, 0.066620, 0.098688, -3.757577, -15.620575, -77.089676, -648.322571
1733470148.540853, -5.896320, -0.297330, -2.022352, 0.206112, 0.095706, -3.966347, -14.292099, -76.180771, -648.976074
1733470148.550852, -4.272752, 0.801609, -2.120814, 0.402891, 0.154573, -4.118683, -12.861679, -75.603363, -648.692383
1733470148.560850, -2.609081, 1.785775, -1.569399, 0.617764, 0.157550, -4.243716, -12.861679, -75.603363, -648.692383
1733470148.570852, -0.817770, 2.651578, -0.710779, 0.814913, -0.028855, -4.309397, -11.598358, -74.688690, -648.573914
1733470148.580857, 0.678457, 3.339462, 0.083947, 0.982983, -0.414252, -4.291811, -10.439224, -73.767273, -647.380371
1733470148.590939, 1.924040, 4.072986, 0.398784, 1.084972, -0.832723, -4.219115, -9.479965, -72.881699, -647.678711
1733470148.600840, 3.313725, 4.979341, 0.383222, 1.088630, -1.163535, -4.041156, -8.240112, -72.102127, -647.794434
1733470148.610840, 4.836138, 5.486014, 0.112827, 1.034821, -1.380623, -3.744688, -7.685013, -71.180939, -647.750244
1733470148.620836, 6.280889, 5.673360, -0.398635, 0.927843, -1.377168, -3.374492, -7.174835, -70.257736, -646.879883
1733470148.630840, 7.844751, 6.180632, -0.686986, 0.728687, -1.100131, -2.903584, -6.767807, -69.720001, -647.718628
1733470148.640907, 9.329306, 6.679972, -0.557400, 0.403731, -0.592704, -2.377249, -6.933762, -68.938477, -647.958679
1733470148.650846, 10.439168, 6.693739, -0.283414, -0.011031, 0.038432, -1.912315, -7.092377, -68.411728, -647.913696
1733470148.660840, 11.537807, 6.486790, 0.262913, -0.455958, 0.659433, -1.618744, -7.007248, -67.824448, -648.076782
1733470148.670843, 13.129503, 6.406884, 0.812532, -0.840426, 0.971753, -1.425013, -6.945953, -67.265137, -647.339050
1733470148.680883, 15.375713, 6.232705, 0.831536, -1.098881, 0.969696, -1.370540, -6.843689, -66.406982, -648.003479
1733470148.690836, 18.294544, 6.183624, -0.034716, -1.102730, 0.599081, -1.344638, -6.956802, -65.674423, -648.351196
1733470148.700841, 22.221932, 5.875072, -2.057667, -0.808368, 0.184407, -1.287248, -7.491562, -65.071045, -648.548889
1733470148.710885, 27.023953, 6.001665, -3.315221, -0.334311, -0.158450, -1.107235, -7.547501, -64.587128, -649.204285
1733470148.720832, 32.063747, 6.686407, -3.554492, 0.254696, -0.641271, -0.737514, -8.143890, -64.497208, -648.977539
1733470148.730857, 36.500951, 7.123947, -3.882647, 0.933764, -1.271127, -0.077004, -9.238739, -64.925812, -648.608276
1733470148.740845, 39.463925, 6.255301, -4.040365, 1.589021, -1.840712, 0.647166, -10.689590, -65.607376, -649.517517
1733470148.750835, 41.452310, 4.742465, -3.965546, 2.016242, -2.207402, 1.241831, -12.068283, -66.687912, -649.854431
1733470148.760523, 43.505038, 2.782511, -4.476409, 2.208397, -2.318842, 1.790380, -13.223511, -68.032791, -649.730652
1733470148.770849, 44.900858, 2.756025, -4.869507, 2.211918, -2.123819, 2.532315, -13.751892, -69.187180, -649.198364
1733470148.780847, 45.163023, 5.915773, -5.175366, 1.914054, -1.701722, 3.700883, -14.435211, -70.879990, -649.508545
1733470148.790847, 43.476458, 8.719084, -7.420080, 1.401958, -0.795675, 5.338037, -15.147095, -72.410400, -647.845703
1733470148.800840, 37.981615, 9.627085, -9.000702, 0.772519, 0.769192, 7.268477, -15.519760, -74.278442, -647.600525
1733470148.810845, 25.258678, 9.462035, -6.684012, 0.002302, 2.579820, 9.164772, -17.031418, -76.303970, -647.286499
1733470148.820845, 8.837597, 3.596390, -1.968632, -1.220075, 4.186434, 10.249249, -19.496429, -78.082382, -647.530640
1733470148.830848, -6.096984, -4.708646, 1.003619, -2.757675, 5.030638, 10.019859, -21.484726, -79.133347, -648.591125
1733470148.840835, -16.642545, -11.749545, 0.257676, -3.801662, 4.787014, 8.650418, -22.649750, -79.434235, -649.675232
1733470148.850832, -23.089980, -16.232987, -2.787898, -3.780706, 3.269844, 6.737480, -23.566437, -79.271515, -650.588867
1733470148.860879, -27.699118, -18.694076, -8.595034, -2.495128, 0.849067, 4.793010, -24.620880, -79.046555, -651.085999
1733470148.870850, -30.731374, -21.800702, -13.695731, -0.273753, -1.197887, 2.937129, -25.457489, -79.253967, -650.279968
1733470148.880834, -31.593885, -23.612814, -13.165266, 1.782708, -2.226561, 1.168848, -25.654816, -79.940216, -649.883606
1733470148.890844, -30.424767, -22.465093, -8.275857, 2.813961, -2.305345, -0.359805, -25.594116, -80.732986, -648.894897
1733470148.900840, -27.685650, -19.839552, -3.300407, 2.815649, -1.712536, -1.523250, -25.176071, -81.428940, -647.217102
1733470148.910841, -23.858070, -16.944663, 0.656011, 2.073005, -0.679128, -2.303422, -24.570099, -82.024780, -647.027527
1733470148.920832, -19.939959, -14.097957, 3.166781, 1.016292, 0.421489, -2.862768, -23.388092, -82.271851, -646.615723
1733470148.930842, -16.421231, -11.113585, 4.630685, 0.093086, 1.213169, -3.276086, -22.072845, -81.946289, -646.702026
1733470148.940838, -14.004883, -8.519767, 5.197064, -0.550676, 1.382691, -3.613211, -20.564545, -81.395569, -646.803528
1733470148.950841, -12.251579, -6.077531, 4.304026, -0.856633, 1.043444, -3.962253, -18.653534, -80.459412, -646.228027
1733470148.960831, -10.408792, -3.457078, 2.603545, -0.890900, 0.614523, -4.242103, -16.766769, -79.316711, -647.346191
1733470148.970880, -8.582914, -1.139640, 1.086968, -0.792256, 0.286872, -4.404098, -15.082123, -78.253448, -647.292542
1733470148.980826, -6.934655, 0.719607, -0.481534, -0.641239, 0.099418, -4.454377, -13.685471, -76.998901, -647.473328
1733470148.990832, -5.504719, 1.961450, -1.519420, -0.443243, 0.103531, -4.499239, -12.155136, -75.912460, -647.424194
1733470149.000826, -4.349965, 3.249829, -1.459864, -0.226434, 0.117134, -4.525781, -10.664154, -74.742813, -647.484985
1733470149.010879, -3.432836, 4.253000, -1.106121, -0.026637, -0.017571, -4.548061, -9.431610, -73.383682, -647.620239
1733470149.020837, -2.361281, 4.831649, -1.030853, 0.169812, -0.212522, -4.584635, -8.084549, -72.308182, -647.818054
1733470149.030528, -0.752228, 5.535394, -0.559196, 0.375092, -0.488120, -4.628017, -7.192810, -70.901062, -647.747681
1733470149.040835, 0.717812, 6.165518, 0.019004, 0.595223, -0.924039, -4.601746, -6.213776, -69.662933, -647.915283
1733470149.050836, 1.813608, 6.833800, 0.484826, 0.771957, -1.717886, -4.297510, -5.582367, -68.463699, -647.205750
1733470149.060844, 2.939032, 7.608025, 0.801609, 0.700602, -1.997253, -4.015243, -4.875275, -67.372406, -648.658997
1733470149.070828, 3.997569, 7.929446, 0.561291, 0.593740, -2.069255, -3.644630, -4.842865, -66.224747, -648.925964
1733470149.080832, 4.932504, 8.029703, -0.029179, 0.400099, -1.859572, -3.209869, -4.959915, -65.179871, -649.524658
1733470149.090834, 6.619818, 7.900417, -0.541389, 0.060862, -1.393584, -2.715811, -5.323929, -64.183472, -650.263306
1733470149.100843, 8.660276, 8.177994, -0.643591, -0.387911, -0.791496, -2.203454, -5.395081, -63.402557, -650.883301
1733470149.110827, 10.088268, 8.113052, -0.708684, -0.816801, -0.186891, -1.823735, -5.955139, -62.495651, -651.109802
1733470149.120826, 10.819697, 8.098686, -0.671274, -1.224407, 0.422166, -1.756664, -6.527130, -61.559265, -651.683655
1733470149.130688, 12.106131, 8.286930, -0.383820, -1.527360, 0.615859, -1.768985, -6.233978, -60.532013, -651.212952
1733470149.140825, 14.823400, 8.643367, -0.000748, -1.493032, 0.458992, -1.763353, -6.482101, -59.413437, -651.166260
1733470149.150405, 18.031182, 9.323321, -1.900098, -1.153542, 0.326923, -1.673167, -6.679672, -58.591110, -650.835449
1733470149.160826, 23.893235, 9.797223, -4.927267, -0.501271, -0.048367, -1.178898, -6.848984, -57.758545, -651.551270
1733470149.170825, 30.934582, 10.292224, -7.157167, 0.456103, -0.760107, -0.267002, -7.263580, -57.594391, -651.864929
1733470149.180827, 35.988442, 11.117775, -8.689306, 1.360362, -1.278543, 0.693937, -8.513168, -57.910034, -652.153076
1733470149.190829, 38.965333, 10.999561, -9.426570, 1.778989, -1.370345, 1.435953, -10.309036, -59.032867, -652.759277
1733470149.200833, 41.690682, 9.948506, -8.665813, 1.669433, -1.232897, 2.177599, -11.086685, -59.946899, -652.175415
1733470149.210832, 45.042116, 10.278607, -8.224083, 1.400306, -0.791297, 3.224905, -12.042908, -61.202362, -652.200500
1733470149.220828, 47.411478, 11.160721, -10.367492, 1.203404, 0.047680, 4.491771, -12.532547, -63.112625, -652.045166
1733470149.230834, 47.918300, 11.675474, -11.913099, 1.010876, 0.714669, 5.860921, -13.068344, -65.142227, -651.483765
1733470149.240829, 46.277674, 11.864915, -11.807454, 0.987627, 1.298949, 7.298731, -13.322083, -67.275238, -651.061707
1733470149.250831, 40.505702, 11.708843, -11.360786, 0.905757, 1.851667, 8.563245, -14.094467, -69.787186, -649.553040
1733470149.260826, 30.823401, 9.985467, -8.056638, 0.497371, 2.343091, 9.343015, -15.383026, -72.495316, -649.675049
1733470149.270829, 18.297088, 6.048502, -3.274520, -0.303010, 2.588021, 9.353559, -16.857544, -74.749680, -649.572021
1733470149.280829, 5.853973, -0.485424, 1.330877, -1.250822, 2.390769, 8.657825, -18.656036, -76.298615, -649.277039
1733470149.290829, -4.503643, -6.823774, 2.724153, -1.789499, 1.854209, 7.486926, -19.893661, -77.346939, -649.431763
1733470149.300827, -12.601432, -11.249306, 0.432153, -1.589474, 1.143429, 6.215400, -21.037354, -77.818710, -649.698608
1733470149.310831, -18.111687, -14.506169, -3.178303, -0.885048, 0.393449, 4.948263, -21.964935, -78.419540, -650.586975
1733470149.320818, -22.605154, -17.455226, -4.604798, -0.154821, -0.156914, 3.635809, -22.832397, -78.822845, -650.592957
1733470149.330836, -26.130018, -19.978416, -4.511424, 0.259013, -0.308685, 2.312964, -23.662445, -79.009674, -650.344666
1733470149.340829, -27.806707, -21.649718, -3.148674, 0.163823, -0.049623, 1.118101, -23.857620, -79.319397, -649.507202
1733470149.350819, -28.110322, -21.260960, -1.282843, -0.321172, 0.608569, 0.016762, -23.583466, -79.344208, -649.413696
1733470149.360841, -27.182120, -20.191949, -0.327108, -0.910412, 1.356136, -0.980334, -23.085754, -78.936768, -649.844360
1733470149.370823, -25.075821, -17.688512, 0.516100, -1.398022, 1.834642, -1.858420, -22.200317, -78.460403, -650.444702
1733470149.380818, -21.826440, -14.460529, 0.887501, -1.660855, 2.011731, -2.580871, -20.929428, -77.721985, -650.199707
1733470149.390817, -18.114979, -11.241974, 0.692074, -1.718967, 1.864898, -3.090796, -19.115997, -76.955429, -650.870056
1733470149.400818, -14.834324, -7.799561, 0.608277, -1.648673, 1.505695, -3.418599, -17.582764, -75.646744, -650.864563
1733470149.410816, -12.411092, -5.004929, 0.070180, -1.508165, 1.167689, -3.660225, -15.959518, -74.528122, -651.280396
1733470149.420816, -10.746075, -2.932448, -1.341950, -1.270561, 1.079551, -3.868271, -14.434311, -73.172882, -651.451721
1733470149.430817, -9.378537, -1.187524, -2.869151, -0.928133, 1.191966, -4.055207, -12.678223, -72.012726, -651.583191
1733470149.440817, -8.064419, 0.265906, -3.545813, -0.551110, 1.314078, -4.234098, -11.234207, -70.541748, -651.558838
1733470149.450820, -6.600515, 1.563713, -3.321356, -0.173809, 1.298500, -4.400531, -9.746689, -69.621429, -650.494202
1733470149.460822, -4.867412, 2.747047, -2.687641, 0.209860, 1.088898, -4.492870, -8.417450, -68.115479, -650.742737
1733470149.470826, -3.021482, 3.842095, -2.131588, 0.601211, 0.803985, -4.508531, -7.028915, -67.035263, -650.672668
1733470149.480816, -1.087117, 4.704756, -1.798943, 0.994676, 0.395623, -4.470594, -5.692093, -65.856293, -649.896240
1733470149.490815, 0.907103, 5.335778, -1.034145, 1.324200, -0.111682, -4.342831, -4.862793, -65.048508, -650.128174
1733470149.499859, 2.571223, 6.092495, -0.339378, 1.557468, -0.590896, -4.162558, -4.654495, -64.170959, -650.134705
1733470149.510819, 4.156783, 6.820033, 0.049979, 1.688173, -0.938214, -3.954916, -3.980988, -63.346664, -649.520142
1733470149.520808, 5.871480, 7.220014, 0.311994, 1.693518, -1.118080, -3.673232, -3.540848, -62.942261, -649.568970
1733470149.530829, 7.674763, 7.794922, 0.913837, 1.519352, -1.064590, -3.377259, -4.088547, -62.013641, -649.515076
1733470149.540814, 9.287856, 8.532187, 1.690007, 1.112881, -0.782904, -3.175951, -4.163818, -61.151413, -649.534241
1733470149.550816, 11.787104, 9.485827, 2.798522, 0.475516, -0.546894, -2.929716, -4.388763, -60.421570, -648.832886
1733470149.560130, 15.191808, 10.748918, 3.819350, -0.193717, -0.209259, -2.710617, -4.660110, -59.341049, -650.185425
1733470149.570812, 18.763358, 12.284200, 3.559879, -0.710613, -0.052231, -2.366349, -4.553162, -58.485352, -649.860168
1733470149.580812, 24.148816, 13.639617, 3.200599, -0.893223, -0.296254, -1.686714, -5.015991, -57.545868, -650.290283
1733470149.590815, 29.447932, 14.900015, 1.899949, -0.779357, -0.668421, -0.763884, -5.422440, -56.831985, -650.678772
1733470149.600828, 34.444182, 14.976180, -0.276081, -0.521287, -1.020825, 0.463989, -6.192368, -57.003860, -650.838501
1733470149.610822, 38.475120, 15.439608, -3.049614, -0.070612, -0.988712, 1.823883, -7.291687, -57.639496, -651.640686
1733470149.620833, 40.412777, 15.879842, -5.995081, 0.527296, -0.897149, 3.236962, -8.068726, -58.885559, -651.490234
1733470149.630798, 41.118019, 15.149610, -6.886472, 1.126698, -0.902274, 4.674904, -9.275757, -61.189407, -651.978943
1733470149.640796, 40.134302, 14.188039, -6.652140, 1.580973, -0.888995, 5.915235, -11.268585, -63.543121, -651.906616
1733470149.650817, 37.386506, 11.768848, -5.906047, 1.724463, -0.804303, 6.800489, -12.479752, -66.277344, -650.949585
1733470149.660307, 33.977612, 9.702951, -4.256142, 1.617955, -0.662664, 7.652164, -14.108963, -68.718674, -651.586670
1733470149.670820, 30.282910, 9.472060, -3.025672, 1.373223, -0.484204, 8.547508, -15.700531, -71.256638, -651.040771
1733470149.680815, 24.930223, 8.534730, -1.230470, 0.934233, -0.373907, 9.388572, -17.416428, -73.720871, -650.552979
1733470149.689877, 17.689858, 7.493851, 0.513856, 0.272146, 0.082665, 10.086580, -19.812332, -75.477219, -650.680054
1733470149.700084, 7.053019, 5.170877, 1.444452, -0.774780, 0.908464, 10.232995, -23.020340, -76.778137, -651.359253
1733470149.710867, -5.040992, -0.547823, 2.881122, -2.302277, 1.984166, 9.491062, -25.353088, -77.275650, -651.491821
1733470149.720472, -13.821726, -7.865551, 3.201945, -3.659390, 2.740866, 8.229255, -27.185394, -76.807632, -652.601868
1733470149.729936, -18.270602, -13.648745, 1.205630, -4.158695, 2.590397, 6.791113, -28.504913, -75.960648, -654.536865
1733470149.740813, -21.043835, -17.501913, -1.895160, -3.679066, 1.445658, 5.198331, -29.722504, -75.049316, -654.921326
1733470149.750082, -23.852384, -20.073585, -6.284330, -2.349560, 0.239961, 3.536146, -30.556274, -74.417664, -656.617554
1733470149.760812, -25.502587, -22.358701, -11.706748, -0.707883, -0.463524, 1.945064, -31.004120, -74.277466, -655.992310
1733470149.770490, -25.312248, -24.156447, -14.126987, 0.585374, -0.688694, 0.542297, -31.158859, -74.511673, -655.414917
1733470149.780806, -23.774722, -23.524827, -12.324303, 1.260458, -0.670519, -0.571333, -30.802200, -75.005981, -654.962463
1733470149.790811, -21.481376, -20.533422, -8.981997, 1.459884, -0.469898, -1.360548, -30.350830, -75.517914, -653.795715
1733470149.800090, -19.341408, -17.057639, -6.061670, 1.335939, -0.121794, -1.950988, -29.791992, -75.850357, -654.083862
1733470149.810815, -17.246781, -14.029423, -3.705326, 1.038744, 0.250559, -2.351838, -29.104202, -76.239288, -653.202454
1733470149.820811, -14.730475, -11.469872, -1.986140, 0.684349, 0.481136, -2.625026, -27.862885, -76.517761, -652.873901
1733470149.830805, -12.251280, -9.463381, -0.804751, 0.398721, 0.424392, -2.831137, -26.953979, -76.327148, -653.611694
1733470149.840820, -10.383204, -7.557298, -0.371101, 0.277326, 0.154392, -2.994254, -26.128433, -76.222702, -652.585388
1733470149.850102, -9.085846, -6.048950, -0.854580, 0.323565, -0.106335, -3.174246, -25.032242, -76.031815, -653.841492
1733470149.860808, -8.194006, -4.923825, -1.815104, 0.457900, -0.179972, -3.368205, -24.057068, -75.948425, -652.655029
1733470149.870803, -7.258471, -3.609409, -2.600702, 0.611705, -0.091212, -3.543409, -22.928665, -75.666306, -652.374390
1733470149.880800, -5.979668, -2.350358, -2.898181, 0.740741, 0.102273, -3.701545, -21.709702, -75.391663, -652.927246
1733470149.890799, -4.509928, -1.279252, -2.786701, 0.822774, 0.323278, -3.835290, -20.443756, -75.195312, -652.172729
1733470149.900101, -3.131167, -0.247052, -2.427421, 0.865209, 0.507397, -3.941820, -19.229156, -74.738159, -652.363586
1733470149.910164, -1.560271, 0.523732, -1.906533, 0.843490, 0.616477, -4.082011, -17.689789, -74.333267, -651.416382
1733470149.920802, 0.089334, 0.715717, -1.237054, 0.757739, 0.592519, -4.209461, -16.260086, -73.751190, -651.093872
1733470149.930802, 1.717241, 1.206678, -0.696563, 0.647261, 0.492543, -4.269027, -14.895065, -72.884460, -651.244629
1733470149.940816, 3.362806, 2.203264, -0.345663, 0.559758, 0.317924, -4.217046, -13.406372, -72.168396, -650.367188
1733470149.950103, 5.467459, 3.054702, -0.074968, 0.505402, -0.014742, -4.018497, -13.406372, -72.168396, -650.367188
1733470149.960807, 7.384915, 3.767426, 0.266654, 0.498508, -0.362030, -3.654325, -11.671799, -70.471710, -650.116882
1733470149.970802, 9.123554, 4.200477, -0.071078, 0.524607, -0.547050, -3.198533, -11.410461, -69.793259, -649.987305
1733470149.980804, 10.739640, 4.032135, -0.887501, 0.496973, -0.436505, -2.809338, -11.336197, -69.280090, -651.564270
1733470149.990802, 11.884218, 3.343652, -1.367089, 0.321400, -0.187080, -2.549548, -11.041229, -68.367279, -650.882690
1733470150.000119, 12.863896, 2.996792, -1.211915, 0.040055, 0.121742, -2.344401, -11.041229, -68.367279, -650.882690
1733470150.010808, 14.450503, 3.342904, -0.933739, -0.219278, 0.291306, -2.146428, -10.287384, -67.280823, -651.343628
1733470150.020818, 16.570569, 3.769671, -0.594061, -0.327597, 0.231552, -1.942413, -10.383575, -66.674194, -650.680725
1733470150.030812, 18.884415, 3.592051, -0.352247, -0.258671, -0.090009, -1.689325, -10.358780, -66.210587, -651.519348
1733470150.040803, 20.918589, 3.186682, -0.236128, -0.080922, -0.531861, -1.452257, -10.506500, -65.783661, -651.003662
1733470150.050143, 22.522105, 3.284096, 0.071227, 0.024327, -1.100296, -1.127121, -10.506500, -65.783661, -651.003662
1733470150.060806, 24.632744, 3.666271, 0.727688, -0.054666, -1.743358, -0.647745, -10.706680, -65.219055, -652.173096
1733470150.070810, 27.375900, 3.511097, 0.471508, -0.171081, -2.370959, 0.194110, -11.083740, -64.899979, -652.597473
1733470150.080805, 29.684360, 3.382558, -1.753304, -0.096041, -2.686060, 1.318794, -11.862808, -65.115021, -653.085693
1733470150.090807, 29.900736, 2.842815, -4.889858, 0.051238, -2.561872, 2.444640, -13.432281, -65.522583, -654.220947
1733470150.100145, 28.748077, 2.322675, -6.899191, 0.080831, -2.171633, 3.502770, -14.711975, -66.393570, -654.580444
1733470150.110808, 26.740240, 2.574365, -7.910293, 0.052496, -1.443860, 4.440447, -16.213089, -67.348785, -654.859131
1733470150.120810, 24.009354, 2.902072, -9.119963, 0.024952, -0.469416, 5.332498, -17.335449, -68.381760, -655.177429
1733470150.130793, 20.779426, 3.531298, -9.197775, 0.036556, 0.547899, 6.229712, -17.967682, -69.748032, -654.475403
1733470150.140800, 14.688876, 3.496432, -7.334487, -0.218078, 1.467388, 6.689089, -19.953262, -71.074478, -655.107361
1733470150.150145, 7.582137, -0.173729, -3.492841, -1.063264, 1.877033, 6.530787, -21.129745, -71.930298, -654.233826
1733470150.160798, 1.788469, -4.049044, 0.151733, -2.138001, 2.009757, 5.975832, -22.312683, -72.316589, -655.479126
1733470150.170801, -2.937835, -6.283133, 0.440234, -2.932250, 1.993014, 5.058760, -23.430466, -72.398651, -656.179443
1733470150.180799, -5.237166, -10.647763, -2.368763, -2.933083, 1.486618, 3.948403, -24.234695, -71.917664, -656.830017
1733470150.190814, -6.552331, -14.229938, -6.925528, -1.904587, 0.761298, 2.727748, -25.350281, -71.582413, -657.940369
1733470150.200161, -7.984962, -16.807894, -11.890803, -0.252159, 0.287702, 1.432243, -25.420349, -71.590958, -657.828186
1733470150.210801, -7.290344, -20.213945, -14.421324, 1.457080, -0.177472, 0.407555, -25.143967, -72.033691, -656.981812
1733470150.220800, -5.576694, -19.242797, -12.728324, 2.719707, -0.537432, -0.214429, -24.408218, -72.778687, -656.605957
1733470150.229869, -5.039794, -15.345636, -8.747665, 3.393089, -0.684817, -0.466091, -23.887970, -74.111465, -654.887939
1733470150.240820, -4.929960, -12.856863, -4.592378, 3.522248, -0.610334, -0.498300, -23.651184, -75.290573, -654.080566
1733470150.250173, -5.285948, -11.434408, -0.949600, 3.176240, -0.411418, -0.493488, -23.727341, -76.477417, -652.050720
1733470150.260787, -5.891831, -11.155483, 1.899500, 2.464299, -0.170992, -0.578657, -23.846909, -77.384674, -651.122314
1733470150.270806, -5.862801, -11.388768, 3.449446, 1.575754, 0.082097, -0.741626, -23.577774, -77.748199, -650.961670
1733470150.280798, -5.540482, -11.195886, 3.760243, 0.759028, 0.288362, -0.891866, -23.131363, -78.051315, -650.462219
1733470150.290788, -5.556044, -9.049783, 2.380285, 0.160862, 0.326641, -1.021922, -22.454910, -78.069778, -650.550903
1733470150.300176, -5.556044, -9.049783, 2.380285, -0.194328, 0.280059, -1.147771, -21.897415, -78.024628, -650.669067
1733470150.310787, -4.892401, -6.781875, -0.175525, -0.371429, 0.313376, -1.288910, -21.299683, -77.665359, -650.158569
1733470150.320783, -4.125060, -5.619640, -1.133654, -0.436632, 0.475976, -1.428552, -20.898972, -77.211975, -650.676270
1733470150.330800, -2.989909, -4.795885, -1.755099, -0.449671, 0.750697, -1.572509, -20.462387, -76.895874, -650.837830
1733470150.340784, -1.557727, -4.346374, -2.103157, -0.432368, 1.053818, -1.735392, -19.841599, -76.606720, -650.036377
1733470150.350784, -0.035464, -3.854814, -2.447772, -0.378262, 1.309726, -1.902657, -19.045074, -75.975449, -650.345398
1733470150.360787, 1.657835, -3.046472, -2.381034, -0.230597, 1.471783, -2.041113, -17.841705, -75.733810, -650.501587
1733470150.370794, 3.060388, -2.204162, -2.088043, 0.029587, 1.484962, -2.149911, -17.052094, -75.269684, -649.677307
1733470150.380795, 4.546439, -1.388787, -1.637784, 0.342662, 1.400353, -2.181128, -15.730743, -74.843903, -649.700562
1733470150.390787, 6.331766, -0.652719, -0.874333, 0.638869, 1.266629, -2.101150, -14.858231, -74.599045, -649.391968
1733470150.400779, 8.191911, -0.303166, -0.104148, 0.849120, 1.129263, -1.927934, -13.754807, -74.542038, -648.779358
1733470150.410784, 9.963171, -0.545279, 0.798616, 0.927994, 0.964950, -1.689734, -13.371368, -74.398483, -647.539551
1733470150.420781, 11.219528, -1.147870, 1.654094, 0.911181, 0.691219, -1.482147, -12.793930, -74.296188, -647.943115
1733470150.430779, 12.319065, -1.540070, 2.422932, 0.833911, 0.358747, -1.344344, -12.700089, -73.942612, -647.390015
1733470150.440781, 13.320291, -1.686266, 2.882619, 0.677207, -0.028378, -1.195970, -12.512146, -73.974045, -647.536743
1733470150.450783, 14.322863, -2.234089, 2.607884, 0.445044, -0.237183, -1.140817, -12.779739, -73.625671, -646.488892
1733470150.460778, 16.183008, -3.299210, 2.574665, 0.154801, -0.276644, -1.130314, -12.299164, -73.434326, -647.395386
1733470150.470778, 17.785477, -3.779397, 2.360384, -0.173117, -0.356511, -1.007827, -12.553726, -73.051666, -647.472900
1733470150.480776, 18.735675, -3.461716, 1.794305, -0.465236, -0.369400, -0.816985, -12.247803, -72.510788, -647.872070
1733470150.490780, 19.823242, -3.362058, 1.488146, -0.767300, -0.339557, -0.544154, -11.918976, -72.152267, -648.264038
1733470150.500777, 20.519505, -3.471892, 0.930447, -1.068006, -0.405974, -0.149817, -12.386780, -71.731155, -647.838379
1733470150.510778, 20.768802, -3.804985, -0.068684, -1.270747, -0.458777, 0.303161, -12.314255, -71.467972, -648.933716
1733470150.520783, 20.793492, -3.935918, -0.927753, -1.355530, -0.492101, 0.762459, -12.767654, -71.159744, -649.706421
1733470150.530794, 20.370167, -3.536236, -1.461361, -1.312604, -0.595993, 1.292010, -12.997955, -71.148987, -650.096191
1733470150.540780, 18.805855, -2.516306, -1.710807, -1.140163, -0.815978, 1.926260, -13.378479, -71.132950, -650.913879
1733470150.550779, 16.075568, -1.011251, -1.704223, -0.893040, -0.992364, 2.644597, -13.830078, -71.526672, -650.841553
1733470150.560775, 12.437129, 0.148590, -1.151461, -0.702234, -1.002875, 3.413982, -14.700500, -72.024353, -650.472168
1733470150.570779, 7.104345, 0.441281, 0.118962, -0.709227, -0.770332, 4.108370, -15.723633, -72.593872, -651.382324
1733470150.580783, 0.849942, -0.802207, 2.235735, -1.026063, -0.478752, 4.524028, -17.326111, -72.997787, -651.989319
1733470150.590775, -4.642956, -3.595043, 3.906888, -1.722647, -0.419749, 4.476150, -18.799835, -73.318100, -652.495056
1733470150.600784, -8.740332, -6.876147, 2.864812, -2.713482, -0.546741, 3.976612, -20.321121, -72.757706, -653.775513
1733470150.610776, -11.649287, -8.998457, -2.047342, -3.600433, -0.278217, 3.126742, -21.216431, -71.671600, -654.777954
1733470150.620780, -12.926295, -9.466973, -7.807492, -3.991189, 0.644325, 2.114055, -21.827118, -70.593719, -655.772461
1733470150.630782, -11.179126, -11.541099, -12.532898, -3.757445, 1.871242, 0.958279, -21.942276, -69.367035, -657.454285
1733470150.640772, -6.921787, -14.064887, -15.510835, -2.833324, 2.852349, -0.239691, -20.922562, -68.289917, -657.909851
1733470150.650778, -2.272995, -12.281357, -14.698303, -1.306069, 3.096703, -1.144908, -19.023331, -68.146103, -657.352661
1733470150.660774, 1.073051, -8.752303, -11.972505, 0.502927, 2.606303, -1.510947, -17.610611, -68.111130, -656.727234
1733470150.670772, 3.004424, -7.742100, -8.493879, 2.275934, 1.986591, -1.498784, -16.650208, -68.817032, -655.404541
1733470150.680782, 4.235792, -7.461679, -3.469946, 3.585329, 1.355590, -1.421341, -16.073578, -69.863983, -654.160217
1733470150.690769, 5.796661, -8.103325, 1.543512, 4.237367, 0.617793, -1.343268, -15.673050, -71.167908, -652.955933
1733470150.700795, 6.991069, -9.021950, 5.341763, 4.274672, -0.325814, -1.325551, -15.609055, -72.316315, -650.868469
1733470150.710774, 7.810634, -8.493131, 7.065289, 3.847337, -1.258955, -1.348447, -15.455215, -73.140335, -650.390503
1733470150.720775, 8.951621, -7.488315, 7.007679, 3.111222, -1.845357, -1.274732, -15.381104, -73.611404, -650.133667
1733470150.730767, 9.940426, -6.772897, 5.872677, 2.224104, -1.978342, -1.005589, -15.947601, -74.148911, -649.813110
1733470150.740787, 10.631602, -6.054786, 4.516661, 1.330554, -1.692235, -0.605253, -16.166519, -74.222580, -649.490356
1733470150.750771, 11.312603, -5.359121, 3.393182, 0.478039, -1.150009, -0.131552, -16.661179, -74.300415, -649.970337
1733470150.760786, 12.170924, -5.424064, 2.382380, -0.291742, -0.563029, 0.399860, -17.132233, -74.277664, -650.058411
1733470150.770084, 12.664878, -6.386533, 1.199046, -0.918890, -0.102708, 0.918801, -17.716843, -74.240036, -650.721680
1733470150.780776, 12.373384, -7.370251, -0.156671, -1.355189, 0.180120, 1.337355, -18.348877, -73.959427, -651.203369
1733470150.790815, 11.323975, -7.381922, -1.623119, -1.580291, 0.339909, 1.621253, -18.943481, -73.608948, -651.337158
1733470150.800769, 10.234763, -7.045238, -2.978537, -1.604052, 0.503792, 1.789142, -19.150192, -73.425079, -651.971802
1733470150.810765, 9.440487, -6.990620, -3.859902, -1.489958, 0.736212, 1.862477, -19.846710, -73.384689, -652.243164
1733470150.820786, 8.918102, -7.416489, -4.266318, -1.304526, 0.996325, 1.822304, -20.287872, -73.418915, -652.954834
1733470150.830766, 8.709208, -8.459912, -4.161122, -1.100922, 1.221138, 1.591383, -20.599472, -73.342575, -652.897644
1733470150.840831, 9.067590, -9.709386, -3.674950, -0.925916, 1.274270, 1.217982, -20.562561, -73.160751, -653.048462
1733470150.850768, 9.644443, -10.438719, -3.260304, -0.793032, 1.107641, 0.807656, -20.390717, -73.016876, -653.136353
1733470150.860773, 10.143784, -10.326192, -3.243096, -0.680126, 0.838744, 0.440245, -20.088730, -72.880005, -653.213501
1733470150.870768, 11.153239, -9.925911, -3.403507, -0.554202, 0.558572, 0.210569, -19.715866, -72.822220, -653.499573
1733470150.880765, 12.398673, -9.507225, -3.362806, -0.380268, 0.206804, 0.199505, -19.780960, -72.906891, -653.024170
1733470150.890756, 12.910284, -9.115175, -3.395427, -0.094150, -0.256011, 0.372667, -20.097580, -72.953568, -652.832092
1733470150.900770, 12.773964, -9.347263, -4.126107, 0.275804, -0.590976, 0.560088, -20.379654, -73.255692, -652.950684
1733470150.910775, 12.572851, -9.879374, -4.403685, 0.665969, -0.661570, 0.699670, -20.935486, -73.656967, -652.800537
1733470150.920788, 12.203695, -9.968558, -3.612701, 0.972492, -0.612793, 0.782651, -21.418213, -74.168427, -652.546082
1733470150.930766, 11.912350, -9.320926, -2.626140, 1.128308, -0.523223, 0.854257, -21.438828, -74.622131, -652.154541
1733470150.940762, 11.845612, -8.579322, -1.636437, 1.146231, -0.403211, 1.004540, -21.763611, -75.275452, -651.691956
1733470150.950795, 11.154885, -7.364714, -0.076764, 1.024331, -0.329062, 1.245719, -22.134888, -75.909073, -650.992310
1733470150.960769, 9.476849, -5.601833, 1.431882, 0.760514, -0.409571, 1.508143, -22.491241, -76.519943, -651.048645
1733470150.970762, 6.958298, -3.680786, 2.015170, 0.448454, -0.513216, 1.778976, -22.589264, -76.998520, -651.209595
1733470150.980756, 2.788197, -2.151639, 2.515109, 0.152035, -0.379879, 2.032859, -23.027679, -77.189514, -650.466553
1733470150.990762, -2.681207, -1.744026, 4.127903, -0.257542, -0.023118, 2.067544, -23.083298, -76.975647, -650.817200
1733470151.000798, -8.614786, -0.465672, 6.555175, -1.012426, 0.182759, 1.771574, -23.019363, -76.583435, -651.309814
1733470151.010758, -13.398701, 3.123835, 7.896825, -2.190594, -0.098398, 1.305369, -22.667938, -75.445816, -652.049316
1733470151.020763, -14.338126, 4.434510, 3.481169, -3.365577, -0.544664, 0.921743, -22.829697, -74.091919, -653.624695
1733470151.030771, -12.001983, 0.303615, -4.702362, -3.868780, -0.606995, 0.891767, -23.977493, -72.584717, -655.370728
1733470151.040812, -10.597634, -4.337246, -11.781866, -3.657191, -0.416784, 1.085007, -24.591644, -71.407547, -656.511841
1733470151.050755, -11.391013, -6.407033, -17.134703, -2.948777, 0.220308, 1.120575, -25.150131, -70.779663, -657.379761
1733470151.060769, -11.673529, -7.148488, -19.996522, -1.860221, 1.400462, 0.799409, -25.307922, -70.665695, -657.989807
1733470151.070756, -9.115474, -8.281394, -19.961656, -0.477968, 2.721091, 0.211973, -24.492233, -70.950775, -657.446838
1733470151.080764, -4.646547, -9.606884, -16.883312, 1.063569, 3.642780, -0.372694, -23.031708, -71.896103, -655.867554
1733470151.090757, -1.111658, -8.442853, -11.022904, 2.581557, 3.719174, -0.784333, -21.675735, -73.086182, -654.603577
1733470151.100788, 1.416320, -6.517915, -4.023905, 3.921773, 3.085941, -0.943991, -20.959167, -74.657486, -652.762207
1733470151.110607, 3.800346, -6.835146, 2.938284, 4.897006, 1.850325, -0.963600, -20.778534, -76.545486, -650.968811
1733470151.120775, 5.818359, -8.642769, 8.658331, 5.271015, 0.130836, -1.024024, -20.743637, -77.690811, -649.338867
1733470151.130764, 7.576750, -10.399963, 11.293150, 4.974073, -1.761826, -1.140371, -21.077087, -78.868347, -648.034302
1733470151.140765, 9.208399, -11.814487, 10.045621, 4.249293, -3.233317, -1.205447, -21.607773, -79.731369, -647.444763
1733470151.150754, 10.826430, -13.191153, 6.417209, 3.516480, -3.756207, -1.125682, -22.221039, -80.281342, -646.633423
1733470151.160754, 12.426954, -13.986328, 3.895216, 2.901282, -3.329751, -0.797558, -22.646729, -80.883514, -646.111816
1733470151.170764, 13.201478, -14.052467, 3.620931, 2.173089, -2.397502, -0.289640, -23.498352, -81.173370, -645.879822
1733470151.180762, 13.359346, -15.005958, 3.812766, 1.271579, -1.401623, 0.233863, -24.179993, -81.833557, -645.207397
1733470151.190764, 12.609512, -16.244958, 3.273771, 0.419853, -0.531576, 0.569776, -24.561813, -81.813568, -645.990601
1733470151.200753, 11.295245, -15.469685, 2.694375, -0.155521, 0.137970, 0.753455, -24.654343, -81.930786, -646.099243
1733470151.210755, 10.514885, -14.570213, 2.300977, -0.513712, 0.605545, 0.849987, -24.861954, -81.827133, -646.329834
1733470151.220819, 10.255862, -13.977050, 1.932270, -0.776496, 0.858427, 0.896883, -24.984360, -81.649582, -646.460571
1733470151.230290, 10.029760, -12.952930, 1.489493, -0.936127, 0.938909, 0.956547, -24.900330, -81.517700, -646.843811
1733470151.240752, 9.412953, -12.006622, 1.154753, -0.975940, 0.884984, 1.023585, -25.164383, -81.366852, -647.164490
1733470151.250754, 8.684368, -11.549030, 0.835726, -0.959222, 0.735595, 1.034461, -25.431351, -81.213898, -647.400085
1733470151.260799, 7.837120, -10.811018, 0.414496, -0.943866, 0.535546, 0.976521, -25.528107, -81.074188, -647.228394
1733470151.270754, 7.067683, -9.841665, -0.158616, -0.917392, 0.343431, 0.875882, -25.545563, -80.870102, -647.690552
1733470151.280473, 6.472724, -8.985738, -0.720655, -0.866595, 0.189941, 0.764972, -25.763107, -80.836868, -647.366211
1733470151.290805, 6.016778, -8.226178, -1.211765, -0.792925, 0.061486, 0.669344, -25.868042, -80.539871, -647.838745
1733470151.300751, 5.591957, -7.496096, -1.716194, -0.695099, -0.032847, 0.602110, -25.750122, -80.458847, -648.280579
1733470151.310751, 5.212027, -6.917597, -2.220472, -0.574117, -0.038612, 0.570028, -26.027634, -80.464188, -648.463562
1733470151.320759, 4.781819, -6.572532, -2.464531, -0.436421, 0.031015, 0.573236, -26.262894, -80.325882, -648.177002
1733470151.330764, 4.205565, -6.377555, -2.486977, -0.295853, 0.147893, 0.556216, -26.519836, -80.397003, -648.617615
1733470151.340754, 3.673154, -6.213701, -2.289605, -0.161031, 0.284088, 0.505395, -26.174973, -80.436737, -648.812012
1733470151.350749, 3.234866, -5.905598, -1.830218, -0.061815, 0.375807, 0.427276, -26.020035, -80.513245, -648.467468
1733470151.360748, 2.872294, -5.535394, -1.482609, -0.010316, 0.409310, 0.330118, -25.821243, -80.516724, -648.771362
1733470151.370747, 2.537704, -5.172373, -1.208174, 0.043293, 0.397277, 0.252577, -25.801376, -80.726471, -648.385620
1733470151.379832, 2.199224, -5.046229, -0.613963, 0.143972, 0.306499, 0.199052, -25.801376, -80.726471, -648.385620
1733470151.390748, 1.861342, -5.316026, 0.106692, 0.249209, 0.148046, 0.128537, -25.788895, -80.885422, -648.422058
1733470151.400743, 1.729960, -5.355530, 0.724545, 0.263857, -0.031561, 0.045027, -25.431839, -80.900955, -648.333435
1733470151.410742, 1.707215, -4.956297, 1.158494, 0.162105, -0.207846, 0.009448, -25.420197, -80.904572, -648.159058
1733470151.420757, 1.820341, -4.558710, 1.478270, -0.041753, -0.238438, 0.036791, -25.415115, -80.694504, -648.384033
1733470151.430755, 2.120963, -4.417901, 2.286014, -0.382340, -0.177913, 0.151810, -25.565277, -80.581284, -649.279663
1733470151.440744, 2.483086, -4.351910, 3.289483, -0.903965, -0.246971, 0.331087, -25.903351, -79.921844, -649.826965
1733470151.450754, 2.901473, -4.806210, 2.807052, -1.512860, -0.543669, 0.593857, -26.393768, -79.362198, -650.394165
1733470151.459886, 2.823512, -6.298247, 0.150087, -1.947431, -0.687622, 0.979402, -26.393768, -79.362198, -650.394165
1733470151.470755, 1.750760, -8.349479, -2.347215, -2.078135, -0.582996, 1.372299, -28.296021, -78.186646, -652.477356
1733470151.480745, -0.386514, -10.936115, -3.655946, -2.072732, -0.360636, 1.624069, -29.141785, -77.570419, -652.946289
1733470151.490748, -2.500744, -13.549236, -4.519056, -2.490750, 0.357762, 1.073002, -29.141785, -77.570419, -652.946289
1733470151.500745, -3.869479, -13.892804, -5.800103, -2.677361, 1.055610, 0.512439, -29.431656, -76.701187, -654.399780
1733470151.510748, -3.208081, -13.942933, -8.118887, -2.521912, 1.906271, -0.092567, -29.388077, -74.935547, -656.557983
1733470151.520761, -0.254982, -15.925930, -10.567408, -2.521912, 1.906271, -0.092567, -29.388077, -74.935547, -656.557983
1733470151.530752, 3.834164, -17.931523, -11.413459, -0.820804, 2.334020, -0.821124, -27.917526, -74.304642, -656.913452
1733470151.540169, 5.593154, -14.766837, -9.249848, -0.820804, 2.334020, -0.821124, -26.500031, -73.959702, -656.626526
1733470151.550543, 6.282535, -11.144410, -5.800702, 1.398478, 0.839616, -0.306513, -25.443161, -74.179886, -656.018494
1733470151.560743, 6.529886, -10.232968, -2.698714, 2.045238, -0.056390, 0.033908, -24.955704, -74.768555, -655.380249
1733470151.570744, 5.973832, -10.259753, -0.118363, 2.261328, -0.823547, 0.212800, -25.574860, -75.539215, -654.679321
1733470151.580741, 6.554875, -13.187263, 1.704971, 1.982661, -1.801037, 0.051430, -26.761215, -76.426407, -654.582031
1733470151.590737, 6.299145, -15.843929, 3.197606, 1.497077, -2.767865, -0.284309, -26.904160, -77.238907, -653.583557
1733470151.600753, 4.673931, -13.917943, 2.404377, 1.180433, -3.191966, -0.497335, -27.778473, -77.486481, -653.730164
1733470151.610741, 4.108899, -12.055554, -0.010924, 0.997912, -3.114707, -0.564845, -28.391891, -77.700714, -653.272705
1733470151.620751, 4.303129, -11.672032, -2.134431, 0.831115, -2.677893, -0.495084, -28.767502, -78.157379, -652.773804
1733470151.630740, 4.395156, -10.580127, -3.336021, 0.667256, -1.966817, -0.362905, -29.496170, -78.317139, -652.871826
1733470151.639923, 4.194492, -9.443928, -4.093187, 0.667256, -1.966817, -0.362905, -30.248383, -78.503372, -652.601440
1733470151.650742, 4.274697, -9.085397, -4.519804, 0.404061, -0.309706, -0.069174, -30.411667, -78.706268, -652.889282
1733470151.660750, 4.185813, -8.482208, -4.548235, 0.331576, 0.408520, 0.058943, -30.128113, -78.855728, -652.526245
1733470151.670738, 3.983652, -7.685836, -4.409521, 0.331144, 0.967533, 0.157886, -29.813080, -79.136917, -652.489624
1733470151.680515, 3.842394, -7.207744, -4.117279, 0.397308, 1.331790, 0.205704, -29.695312, -79.444366, -652.231262
1733470151.690737, 3.434183, -6.582409, -3.667318, 0.517911, 1.525130, 0.218945, -29.164322, -79.627106, -651.442505
1733470151.700753, 2.964471, -5.505616, -3.076699, 0.695601, 1.560885, 0.221784, -28.836014, -79.735260, -651.378052
1733470151.710743, 2.593220, -4.464887, -2.234089, 0.891969, 1.463373, 0.228123, -28.208618, -80.196991, -650.688721
1733470151.720736, 2.262820, -3.650260, -1.296909, 1.048349, 1.275872, 0.242001, -27.791153, -80.483948, -650.498230
1733470151.730745, 1.987636, -2.986318, -0.355240, 1.120397, 1.023442, 0.234990, -27.265625, -81.118729, -650.199890
1733470151.740736, 1.639130, -2.513912, 0.413598, 1.094342, 0.750976, 0.199341, -27.007446, -81.532822, -649.874023
1733470151.750734, 1.264138, -2.122759, 0.969352, 0.994365, 0.465213, 0.147625, -26.887924, -81.565033, -648.877014
1733470151.760735, 0.932242, -1.763180, 1.400907, 0.848099, 0.156514, 0.090473, -26.750397, -82.078537, -648.415588
1733470151.770751, 0.666187, -1.543811, 1.705120, 0.669587, -0.143580, 0.029806, -26.928604, -82.221970, -648.130493
1733470151.780748, 0.478391, -1.460164, 1.829469, 0.461172, -0.425823, -0.036822, -26.869766, -82.411087, -647.722412
1733470151.790797, 0.309600, -1.365593, 1.766921, 0.245260, -0.642475, -0.080139, -26.832642, -82.722229, -646.929810
1733470151.800737, 0.228796, -1.193659, 1.421408, 0.048221, -0.766672, -0.067214, -26.873581, -82.644470, -647.701355
1733470151.810750, 0.267103, -0.915483, 0.962619, -0.099862, -0.850444, 0.013668, -27.174286, -82.628937, -647.513977
1733470151.820745, 0.364816, -0.643442, 0.680552, -0.210209, -0.869671, 0.129100, -27.527618, -82.522903, -648.246155
1733470151.830743, 0.282665, -0.743400, 0.304812, -0.331496, -0.802475, 0.244978, -27.725754, -82.404922, -648.013000
1733470151.840738, 0.223559, -1.102380, 0.021847, -0.484464, -0.716612, 0.361694, -27.967133, -82.158859, -648.462341
1733470151.850739, 0.528370, -1.847276, -0.114922, -0.656202, -0.659075, 0.487838, -28.641571, -82.020615, -648.639954
1733470151.860738, 1.071256, -3.084330, -0.268450, -0.816975, -0.649601, 0.620136, -29.236908, -81.774887, -648.780823
1733470151.870465, 1.622670, -4.525640, -0.469264, -0.931574, -0.680341, 0.683003, -30.058167, -81.612137, -649.951050
1733470151.880744, 2.330157, -6.370821, -0.503979, -1.043225, -0.735314, 0.590752, -31.081573, -81.216446, -650.556519
1733470151.890735, 3.142689, -8.803180, -0.613813, -1.148922, -0.789674, 0.339933, -32.281921, -81.046768, -650.497070
1733470151.900746, 4.799177, -12.625224, -1.635389, -1.028392, -0.651897, -0.109536, -33.652054, -80.771927, -652.270996
1733470151.910731, 8.031798, -19.118598, -4.524592, -0.404122, -0.313575, -0.571784, -33.953079, -80.750122, -653.328979
1733470151.920739, 12.155960, -24.756644, -6.576273, 0.432236, -0.164293, -0.686407, -33.510178, -80.566879, -652.820679
1733470151.930739, 14.930690, -24.574834, -4.426280, 0.861717, -0.150811, -0.569396, -33.434113, -80.765198, -652.793457
1733470151.940784, 15.665710, -23.711724, -0.427365, 0.630785, -0.029216, -0.517651, -33.300369, -80.784744, -652.298340
1733470151.950743, 15.386038, -24.482657, 2.936189, -0.194651, 0.172123, -0.597148, -33.285172, -80.649139, -652.082825
1733470151.960729, 15.573234, -24.222288, 5.138106, -1.104063, 0.339430, -0.681366, -33.020432, -80.550613, -652.512085
1733470151.970730, 16.556503, -23.875877, 3.789273, -1.502156, 0.600642, -0.646451, -32.394104, -80.112213, -652.983826
1733470151.980730, 17.482311, -23.578248, 0.446668, -1.387205, 0.747270, -0.508118, -31.845108, -79.485489, -653.308838
1733470151.990729, 17.659482, -22.369774, -1.503259, -0.950750, 0.665116, -0.213285, -30.679276, -79.272095, -652.916016
1733470152.000726, 16.633866, -19.725379, -1.856404, -0.448364, 0.389009, 0.264245, -29.790939, -78.876846, -653.337280
1733470152.010766, 14.350994, -15.855301, -0.707038, -0.169169, -0.022532, 0.905833, -29.069824, -78.638977, -652.920532
1733470152.020730, 11.234941, -12.149825, 0.619200, -0.140388, -0.411075, 1.646463, -28.984375, -78.634964, -652.562927
1733470152.030733, 6.822727, -9.071331, 1.345990, -0.322147, -0.752500, 2.269192, -29.582794, -78.647446, -652.950867
1733470152.040730, 1.452383, -7.132177, 1.643619, -0.644609, -1.000501, 2.585588, -30.573868, -78.612045, -652.673828
1733470152.050769, -3.872172, -6.244527, 1.251868, -1.038292, -1.044466, 2.512680, -31.991440, -78.463745, -653.883484
1733470152.060722, -8.297255, -5.904101, 0.428562, -1.494151, -0.919130, 2.086647, -33.134033, -78.029816, -654.117981
1733470152.070721, -11.202320, -5.390096, -0.446818, -1.959617, -0.683739, 1.477246, -33.942368, -77.357300, -654.661987
1733470152.080723, -12.566416, -4.314651, -1.660229, -2.357753, -0.369175, 0.797548, -34.630661, -76.878189, -655.541809
1733470152.090725, -12.668768, -2.713678, -3.001730, -2.582798, 0.027436, 0.117017, -34.658569, -75.849030, -655.817749
1733470152.100793, -11.805659, -1.284190, -4.524293, -2.560833, 0.467069, -0.483265, -34.481125, -74.780960, -657.446045
1733470152.109742, -10.119093, -0.153379, -5.884199, -2.287900, 0.892998, -0.938571, -34.155640, -73.742020, -657.732727
1733470152.120277, -8.029105, 0.584185, -6.788011, -1.828611, 1.205599, -1.214296, -33.050629, -72.893921, -658.795288
1733470152.130723, -5.859210, 1.099687, -7.046884, -1.253392, 1.362528, -1.311474, -32.140915, -72.427994, -659.136902
1733470152.140743, -3.943699, 1.401356, -6.906075, -0.628638, 1.377242, -1.301587, -31.309433, -72.310593, -659.268677
1733470152.150725, -2.535460, 1.520019, -6.446538, -0.008324, 1.287918, -1.259600, -30.595367, -72.073227, -659.603516
1733470152.160720, -1.506402, 1.513884, -5.724835, 0.530411, 1.141069, -1.225083, -29.559113, -72.128937, -659.382568
1733470152.170724, -0.693570, 1.382502, -4.791097, 0.946604, 0.926652, -1.200341, -29.051575, -72.457016, -659.111511
1733470152.180722, -0.054468, 1.232266, -3.756053, 1.262797, 0.670345, -1.172433, -28.262466, -73.144272, -658.659058
1733470152.190729, 0.502034, 1.004517, -2.864363, 1.490638, 0.408505, -1.137061, -27.878189, -73.361343, -657.580750
1733470152.200739, 0.909647, 0.775123, -2.192789, 1.635748, 0.180111, -1.086765, -27.572830, -73.821213, -657.333679
1733470152.210732, 1.224036, 0.637905, -1.655740, 1.694306, 0.012304, -1.011972, -27.145493, -74.266220, -657.091614
1733470152.220732, 1.413776, 0.655113, -1.162385, 1.665741, -0.108846, -0.899984, -26.696442, -74.998138, -656.394897
1733470152.230785, 1.473033, 0.684442, -0.826748, 1.557666, -0.136975, -0.788899, -26.712219, -75.370743, -655.775391
1733470152.240727, 1.703026, 0.201263, -0.735768, 1.388010, -0.099503, -0.695494, -26.711716, -75.810577, -654.929321
1733470152.250732, 2.259229, -0.827795, -0.684891, 1.186543, -0.093341, -0.593594, -26.674728, -76.136475, -654.518494
1733470152.260740, 2.882320, -1.900398, -0.616956, 0.982465, -0.141025, -0.477529, -26.594513, -76.419388, -654.044250
1733470152.270775, 3.332130, -2.843114, -0.664092, 0.807958, -0.178419, -0.358905, -26.707245, -76.558182, -654.485413
1733470152.280740, 4.059519, -4.071041, -0.963517, 0.695346, -0.216153, -0.193518, -26.913712, -76.762131, -654.109802
1733470152.290722, 5.201403, -5.985953, -1.222539, 0.637680, -0.363485, -0.037030, -27.370132, -77.100037, -653.648438
1733470152.300718, 5.946299, -8.272715, -1.016638, 0.532390, -0.576714, 0.014549, -27.993271, -77.174362, -653.929749
1733470152.310763, 6.259191, -10.079140, -0.633266, 0.310261, -0.787984, -0.097914, -28.956314, -77.307693, -654.029419
1733470152.320024, 6.975507, -12.139201, -0.677110, 0.077671, -0.873798, -0.430836, -30.006805, -77.282074, -654.562805
1733470152.330717, 8.633192, -15.692645, -2.001403, 0.039771, -0.892450, -0.870633, -29.998245, -77.336746, -654.948120
1733470152.340716, 11.928062, -18.976891, -3.557634, 0.329853, -1.207155, -0.963844, -29.636215, -77.283508, -654.758179
1733470152.350722, 15.690251, -19.898060, -4.032285, 0.834173, -1.678370, -0.621341, -29.926346, -77.418594, -654.230530
1733470152.360718, 17.644219, -19.512744, -4.495413, 1.272122, -1.838278, -0.054409, -30.743378, -77.815369, -654.157593
1733470152.370717, 17.625065, -19.990985, -4.192097, 1.335124, -1.730347, 0.433870, -31.594513, -78.309875, -653.719971
1733470152.380722, 15.695788, -20.823868, -2.184260, 0.906028, -1.414364, 0.671579, -32.320160, -78.516632, -653.599915
1733470152.390721, 13.388675, -22.393267, -0.347758, 0.050392, -0.875053, 0.633409, -32.497986, -78.450638, -653.378418
1733470152.400720, 10.656442, -22.525697, 0.197971, -0.922251, -0.063331, 0.404517, -32.891251, -78.277374, -653.822510
1733470152.410728, 8.706215, -21.177761, -0.975338, -1.660959, 0.824832, 0.144580, -32.807434, -77.651138, -654.494507
1733470152.420718, 9.673173, -22.129905, -3.463213, -1.884991, 1.309006, -0.086807, -32.260178, -77.234680, -655.238525
1733470152.430720, 10.888680, -22.587796, -5.765238, -1.542203, 1.522262, -0.255845, -31.538651, -76.625656, -655.705444
1733470152.440721, 11.594520, -22.346431, -7.803002, -0.772866, 1.501507, -0.399059, -30.710709, -76.653961, -655.782959
1733470152.450718, 11.876288, -22.445491, -8.627356, 0.153747, 1.350851, -0.522856, -29.560471, -76.656296, -655.835938
1733470152.460712, 11.472865, -20.834343, -8.057985, 0.983859, 1.188492, -0.548001, -28.298782, -76.925583, -654.710815
1733470152.470712, 10.761188, -17.646164, -6.527342, 1.611121, 1.064389, -0.369046, -27.052460, -77.431992, -653.524536
1733470152.480773, 9.681703, -13.969867, -4.800973, 2.048185, 1.030942, 0.042049, -26.221985, -78.306839, -651.924988
1733470152.490728, 7.896376, -10.653449, -3.072359, 2.263911, 1.148984, 0.594068, -25.697296, -79.213531, -651.119751
1733470152.500718, 5.515492, -8.249820, -0.951246, 2.196509, 1.252448, 1.074900, -25.398666, -80.036942, -650.559204
1733470152.510730, 2.676418, -6.871209, 1.453280, 1.837927, 1.174313, 1.362929, -25.736984, -80.975830, -649.660400
1733470152.520714, -0.121506, -6.081123, 3.642479, 1.259144, 0.768053, 1.400032, -25.784637, -81.556549, -649.214294
1733470152.530719, -2.574216, -5.604228, 5.295076, 0.570258, 0.095047, 1.207548, -26.127655, -82.020477, -648.800842
1733470152.540722, -4.485836, -4.880580, 5.866991, -0.123072, -0.663617, 0.879335, -26.804733, -82.160370, -648.662354
1733470152.549960, -5.896021, -3.767875, 5.303606, -0.756232, -1.205985, 0.481581, -27.242706, -81.846313, -649.212830
1733470152.560767, -6.562956, -2.715623, 3.503166, -1.281799, -1.431619, 0.075734, -27.521362, -81.472946, -650.153503
1733470152.570715, -6.455516, -1.694496, 1.583315, -1.657298, -1.467866, -0.206734, -27.927216, -80.772629, -650.520691
1733470152.580710, -5.982212, -0.571466, -0.094272, -1.874426, -1.307994, -0.366220, -27.749390, -80.188446, -650.671936
1733470152.590712, -5.356128, 0.274286, -1.743278, -1.946368, -0.922469, -0.452792, -27.843277, -79.607834, -652.393494
1733470152.600705, -4.756531, 0.925209, -3.107075, -1.881983, -0.404120, -0.491833, -27.850082, -78.950668, -653.232666
1733470152.610706, -4.123264, 1.523760, -3.941305, -1.694908, 0.135013, -0.495180, -27.666656, -78.088669, -653.700012
1733470152.620707, -3.420416, 2.025345, -4.282927, -1.413349, 0.585447, -0.467868, -27.229736, -77.718094, -653.841309
1733470152.630701, -2.798074, 2.388515, -4.175488, -1.080819, 0.889427, -0.418177, -26.665741, -77.462662, -654.415466
1733470152.640706, -2.259827, 2.568081, -3.830274, -0.734691, 1.065527, -0.360814, -26.347031, -77.067078, -654.207031
1733470152.650716, -1.846977, 2.629582, -3.483563, -0.396113, 1.143855, -0.311999, -25.764313, -77.040741, -654.630920
1733470152.660767, -1.622221, 2.678962, -3.058443, -0.068810, 1.151420, -0.278843, -25.492844, -77.024841, -654.379089
1733470152.670701, -1.427543, 2.677017, -2.627187, 0.226917, 1.130634, -0.254050, -25.082062, -76.969482, -654.027954
1733470152.680715, -1.261146, 2.713528, -2.137424, 0.462660, 1.080168, -0.207516, -24.591064, -77.177322, -652.817383
1733470152.690702, -1.196053, 2.846257, -1.599476, 0.615488, 1.053983, -0.168346, -24.272583, -77.252396, -653.132324
1733470152.700741, -1.357961, 2.719663, -0.839766, 0.696711, 1.055889, -0.166779, -23.915604, -77.433136, -652.674744
1733470152.710704, -1.347337, 2.448221, -0.629525, 0.733198, 1.059796, -0.202854, -23.473282, -77.647568, -652.391663
1733470152.720753, -1.347337, 2.448221, -0.629525, 0.749320, 1.062007, -0.256590, -23.199158, -77.661453, -651.825562
1733470152.730702, -0.700304, 0.955885, -0.390853, 0.758998, 1.078405, -0.320480, -22.944351, -77.836746, -651.547729
1733470152.740702, -0.020500, -0.057610, 0.116418, 0.774049, 1.048389, -0.387178, -22.676117, -78.091293, -651.196228
1733470152.750707, 1.107767, -1.194258, 0.792780, 0.811914, 0.834476, -0.441898, -22.495514, -78.113174, -651.063477
1733470152.760719, 2.769642, -3.175759, 1.179593, 0.855570, 0.468367, -0.479151, -22.686737, -78.243134, -650.718262
1733470152.770714, 4.724209, -6.268918, 1.415422, 0.847263, -0.017223, -0.492202, -23.203415, -78.560455, -650.591492
1733470152.779983, 4.724209, -6.268918, 1.415422, 0.720572, -0.627269, -0.499682, -24.141174, -78.632889, -649.955444
1733470152.790713, 8.701127, -12.624476, 1.093552, 0.523402, -1.230448, -0.554110, -24.509705, -78.523041, -650.775940
1733470152.800706, 11.121965, -15.196148, 0.275333, 0.415165, -1.706597, -0.590402, -25.662003, -78.563309, -651.636353
1733470152.810707, 14.355932, -19.070714, -1.409736, 0.425421, -1.881066, -0.554596, -26.601639, -78.536438, -651.522949
1733470152.820716, 17.553987, -22.593333, -2.629582, 0.465069, -1.729138, -0.516932, -27.341995, -78.644028, -651.958862
1733470152.830710, 20.484490, -25.363424, -3.507505, 0.547619, -1.346479, -0.405398, -28.064682, -78.803543, -651.786194
1733470152.840707, 22.679375, -28.138005, -3.863942, 0.735411, -0.768626, -0.208437, -28.253387, -79.010010, -651.750732
1733470152.850701, 23.774123, -29.415910, -1.998560, 0.867296, -0.073257, -0.033794, -28.362732, -79.413269, -651.622009
1733470152.860705, 23.700801, -29.911809, 1.284340, 0.601310, 0.455252, 0.118633, -27.991440, -79.416397, -650.836548
1733470152.870697, 21.749676, -29.041217, 2.790143, -0.046781, 0.869352, 0.100216, -27.494232, -79.121887, -650.705811
1733470152.880705, 20.182372, -26.851421, 2.699612, -0.671930, 1.398268, -0.023240, -26.784775, -79.030518, -650.465759
1733470152.890706, 20.586992, -27.515363, 2.029086, -1.142402, 1.764039, -0.129700, -26.159683, -78.573364, -651.112549
1733470152.900712, 20.436905, -28.515091, 0.015862, -1.349707, 1.875356, -0.247672, -24.733704, -78.115738, -651.298340
1733470152.910704, 19.024326, -26.500221, -2.170643, -1.201179, 1.934189, -0.291522, -23.610886, -77.573822, -650.722534
1733470152.920702, 17.331327, -23.357981, -3.577386, -0.804109, 2.093455, -0.148188, -21.945862, -77.598587, -650.599426
1733470152.929934, 17.331327, -23.357981, -3.577386, -0.337955, 2.293435, 0.176467, -21.945862, -77.598587, -650.599426
1733470152.940403, 13.094487, -16.683695, -2.784307, 0.073253, 2.407303, 0.629711, -19.320618, -77.854477, -648.789185
1733470152.950705, 10.305691, -12.954576, -1.743428, 0.367256, 2.361654, 1.209250, -18.672256, -78.360382, -648.106567
1733470152.960696, 5.975628, -9.845257, -0.426168, 0.523532, 2.197294, 1.812055, -18.765656, -78.966843, -647.132568
1733470152.970694, 0.623989, -8.454824, 1.651251, 0.538455, 1.636641, 2.128967, -19.246078, -79.709198, -646.916931
1733470152.980696, -4.351910, -7.647978, 3.488352, 0.464510, 0.451839, 2.000019, -19.747025, -80.321671, -646.571655
1733470152.990692, -8.206276, -6.464344, 4.270508, 0.358370, -1.295267, 1.468852, -21.009415, -80.601242, -647.091064
1733470153.000689, -10.504261, -4.606594, 3.321207, 0.269564, -3.173793, 0.751941, -21.517502, -80.748001, -647.830688
1733470153.010713, -11.514015, -2.116325, 1.163881, 0.221252, -4.639657, 0.083215, -21.517502, -80.748001, -647.830688
1733470153.020745, -11.614572, 0.351199, -1.105672, 0.168583, -5.481052, -0.394431, -22.514389, -80.746048, -647.904419
1733470153.030721, -10.896012, 1.921646, -3.675399, 0.105519, -5.594539, -0.594059, -23.541809, -80.509949, -648.592957
1733470153.040695, -9.566631, 2.439841, -5.982062, 0.039882, -4.969838, -0.550894, -24.943130, -80.647049, -648.905518
1733470153.050694, -8.242039, 2.541595, -7.374740, -0.028196, -3.757004, -0.371474, -26.344574, -80.580933, -649.361328
1733470153.060693, -7.253533, 2.794931, -7.486070, -0.095540, -2.255462, -0.175625, -27.321030, -80.714157, -649.915222
1733470153.070691, -6.502951, 3.107374, -6.689549, -0.142495, -0.787652, -0.035717, -27.699921, -80.742950, -649.910095
1733470153.080689, -5.885097, 3.205986, -5.400571, -0.160659, 0.476233, 0.037714, -27.991440, -80.917313, -650.032532
1733470153.090686, -5.308693, 3.080889, -3.729867, -0.183958, 1.421518, 0.032485, -27.970947, -81.031097, -649.338989
1733470153.100705, -4.600758, 2.797325, -2.104354, -0.226378, 2.014859, -0.057675, -27.501831, -80.960587, -650.561768
1733470153.110710, -3.781492, 2.564040, -0.778265, -0.278489, 2.262167, -0.195227, -26.654404, -81.218964, -650.316956
1733470153.120700, -2.918981, 2.480243, 0.139462, -0.315019, 2.229198, -0.324506, -25.913010, -80.880020, -650.203613
1733470153.130702, -2.148646, 2.333598, 0.618303, -0.324305, 1.993896, -0.435488, -25.214005, -80.553482, -649.899536
1733470153.140696, -1.491737, 2.083853, 0.663343, -0.301741, 1.656489, -0.537188, -24.624481, -80.412735, -649.851562
1733470153.150702, -0.808193, 1.791012, 0.398635, -0.243097, 1.338456, -0.615152, -24.050568, -80.170166, -649.692261
1733470153.160687, 0.008829, 1.490091, 0.103848, -0.166970, 1.097569, -0.647544, -23.446945, -79.886261, -649.711365
1733470153.170688, 0.833631, 1.100884, -0.001047, -0.102403, 0.931302, -0.614480, -22.807190, -79.870499, -649.792847
1733470153.180690, 1.401655, 0.531513, -0.031723, -0.087579, 0.810342, -0.532754, -22.549576, -79.654831, -650.183960
1733470153.190697, 2.115427, -0.131083, -0.004639, -0.135000, 0.733859, -0.427593, -22.228790, -79.323242, -649.265991
1733470153.200706, 2.651728, -0.962469, 0.015113, -0.197240, 0.659099, -0.320910, -22.133820, -79.153366, -649.698242
1733470153.210754, 3.123984, -1.962198, 0.030676, -0.226075, 0.583602, -0.222619, -22.154205, -78.962830, -649.800293
1733470153.220692, 3.674950, -3.441815, 0.313491, -0.222760, 0.482367, -0.174138, -22.105667, -78.905670, -649.888550
1733470153.230689, 4.462642, -5.344606, 0.773327, -0.192244, 0.241629, -0.205793, -22.723740, -78.630203, -649.709900
1733470153.240701, 5.731419, -7.128137, 1.014992, -0.169494, -0.053941, -0.304322, -22.735001, -78.415802, -650.329224
1733470153.250606, 7.360823, -8.856601, 1.291672, -0.206384, -0.354767, -0.426726, -23.166412, -78.138626, -650.357544
1733470153.260686, 9.142708, -10.781689, 1.487099, -0.318999, -0.716538, -0.564051, -23.577789, -77.926743, -650.937988
1733470153.270686, 10.973674, -12.948142, 0.915184, -0.445604, -1.068598, -0.758279, -24.281967, -77.708099, -651.884888
1733470153.280688, 13.405584, -15.497967, -0.437241, -0.454016, -1.321204, -0.968109, -24.863617, -77.498703, -652.428833
1733470153.290684, 16.737565, -18.355147, -1.480664, -0.263335, -1.481385, -1.085554, -25.216858, -77.281784, -652.381165
1733470153.299975, 20.021661, -21.380969, -2.321927, 0.027783, -1.669448, -1.020228, -25.990158, -76.866821, -652.942810
1733470153.310693, 21.710172, -23.714418, -3.114707, 0.264971, -1.702076, -0.958159, -26.696075, -76.937363, -653.241211
1733470153.320690, 22.658725, -25.001600, -3.874267, 0.392843, -1.317092, -0.982359, -26.775055, -76.891891, -653.306458
1733470153.330685, 23.499389, -25.167249, -2.893542, 0.351944, -0.533578, -0.964273, -26.191528, -76.812988, -653.229614
1733470153.340750, 22.038926, -23.396288, -0.866701, -0.056427, 0.214660, -0.885647, -25.153702, -76.424057, -653.045654
1733470153.350696, 20.487782, -21.684883, -1.166874, -0.704615, 1.094598, -0.795216, -24.693726, -75.905655, -653.104553
1733470153.360698, 20.570382, -22.253356, -3.139397, -1.337396, 2.231960, -0.749432, -23.856705, -75.640854, -653.330994
1733470153.370684, 20.978893, -23.098360, -5.091270, -1.706774, 3.313075, -0.794648, -22.218796, -74.820465, -652.868347
1733470153.380687, 21.632211, -22.555774, -6.624756, -1.564172, 3.995691, -0.796153, -19.932205, -74.186478, -652.800537
1733470153.390683, 22.176143, -20.253450, -7.285705, -0.883669, 4.195415, -0.517725, -17.609421, -74.035339, -651.334351
1733470153.400688, 21.696255, -16.662596, -6.102371, 0.071223, 4.062814, 0.171326, -15.582733, -74.124481, -650.772766
1733470153.410694, 19.597887, -13.151799, -2.868254, 0.929559, 3.641884, 1.165692, -14.277817, -74.804596, -648.913513
1733470153.420682, 15.649250, -10.645668, 1.608006, 1.418855, 2.834032, 2.240716, -13.952606, -75.913605, -647.703125
1733470153.430679, 9.172935, -9.829395, 5.714062, 1.518304, 1.584279, 3.103954, -14.350143, -77.331894, -647.074646
1733470153.440677, 1.422006, -10.569203, 8.650849, 1.260740, -0.235691, 3.330363, -15.616577, -78.637375, -646.828003
1733470153.450675, -5.297022, -10.663774, 9.054571, 0.735944, -2.451819, 2.867306, -16.944336, -79.226776, -646.625000
1733470153.460740, -9.866355, -8.831761, 6.700772, 0.132184, -4.443132, 2.081418, -18.407333, -79.618027, -647.240845
1733470153.470686, -12.271780, -6.167164, 2.611027, -0.377851, -5.526423, 1.330766, -20.104599, -79.623734, -648.149780
1733470153.480675, -13.203873, -3.436577, -1.433379, -0.757420, -5.678729, 0.781339, -21.599091, -79.478821, -649.502075
1733470153.490692, -12.713360, -1.120786, -5.066580, -1.036320, -4.956580, 0.458065, -22.804596, -79.207825, -649.394531
1733470153.500737, -11.282376, 0.166996, -7.576900, -1.236053, -3.524804, 0.287009, -24.018631, -78.988007, -650.730713
1733470153.510678, -9.558551, 0.769736, -8.546701, -1.301912, -1.820182, 0.214458, -24.858398, -78.772491, -651.728455
1733470153.520677, -7.910891, 1.416170, -8.094796, -1.221500, -0.295956, 0.235506, -24.876083, -78.534653, -652.142944
1733470153.530679, -6.676531, 2.081160, -6.786514, -1.057789, 0.805408, 0.318677, -24.913666, -78.099503, -652.582886
1733470153.540689, -5.962161, 2.669236, -5.251083, -0.895475, 1.472604, 0.404546, -24.462631, -78.074219, -652.743591
1733470153.550682, -5.540632, 3.137601, -3.896862, -0.779743, 1.819989, 0.423095, -24.400345, -77.881744, -652.725464
1733470153.560675, -5.075708, 3.466056, -2.769642, -0.684997, 1.910898, 0.365793, -24.008759, -77.834854, -652.840149
1733470153.570675, -4.538957, 3.633949, -1.802834, -0.559961, 1.765390, 0.257671, -23.518463, -77.770294, -652.974365
1733470153.580685, -4.030190, 3.670311, -1.111807, -0.378387, 1.417765, 0.127182, -23.296631, -77.783081, -652.895264
1733470153.590727, -3.588310, 3.599832, -0.840215, -0.154866, 0.974738, 0.000391, -22.969559, -77.748383, -652.262756
1733470153.600675, -3.158551, 3.425504, -0.927604, 0.087655, 0.563312, -0.116694, -23.019608, -77.402390, -652.464417
1733470153.610637, -2.734926, 3.079392, -1.137994, 0.324243, 0.285280, -0.221569, -22.722839, -77.553360, -652.272461
1733470153.620685, -2.102109, 2.796727, -1.177498, 0.543919, 0.149500, -0.293722, -22.672531, -77.686981, -651.899170
1733470153.630681, -1.390133, 2.546533, -0.927604, 0.715661, 0.112202, -0.304689, -22.526642, -77.789505, -651.780701
1733470153.640753, -0.905756, 2.213439, -0.611270, 0.813477, 0.134209, -0.265782, -22.595520, -77.872498, -651.584595
1733470153.650671, -0.551564, 1.850119, -0.373047, 0.832762, 0.193364, -0.224744, -22.740356, -78.285767, -650.993896
1733470153.660680, 0.201861, 1.398812, 0.090381, 0.814590, 0.222293, -0.190866, -22.785645, -78.494171, -651.171814
1733470153.670671, 0.944662, 0.366313, 0.600945, 0.825488, 0.120905, -0.161301, -22.999634, -78.666672, -651.135803
1733470153.680741, 1.434875, -1.476025, 0.631770, 0.845929, -0.033790, -0.196154, -23.350433, -78.681259, -650.377441
1733470153.690668, 2.183811, -3.469049, 0.533159, 0.858983, -0.205512, -0.299005, -23.458908, -78.947693, -649.970764
1733470153.700665, 3.428796, -5.472397, 0.493954, 0.863850, -0.355259, -0.415183, -23.555939, -79.101288, -650.205078
1733470153.710677, 5.189282, -7.458537, 0.685640, 0.865256, -0.520028, -0.469753, -23.855026, -79.082108, -650.097961
1733470153.720726, 6.863578, -9.261371, 1.103428, 0.791735, -0.672469, -0.411292, -24.455627, -79.119370, -650.109924
1733470153.730671, 8.067262, -10.960356, 1.436671, 0.554133, -0.852204, -0.285709, -25.365601, -78.994705, -650.364746
1733470153.740667, 9.395147, -14.464719, 0.474650, 0.191002, -0.895125, -0.287693, -26.925079, -79.044815, -650.931824
1733470153.750732, 11.804911, -20.963181, -1.958756, -0.017413, -0.569666, -0.649545, -27.629318, -79.227493, -651.418701
1733470153.760661, 14.372093, -25.996691, -3.220949, 0.142679, 0.123279, -1.400071, -26.694336, -79.022324, -651.166260
1733470153.770666, 16.661249, -25.653422, -1.802535, 0.545993, 0.584477, -2.179526, -24.677139, -78.854736, -650.519653
1733470153.780668, 19.612253, -22.595278, 1.836353, 0.925058, 0.725041, -2.474214, -23.816513, -78.612701, -650.259338
1733470153.790682, 21.370345, -20.074932, 7.189937, 0.704655, 0.536242, -2.354983, -22.889923, -78.167267, -649.581055
1733470153.800671, 22.965182, -19.178453, 11.435755, -0.318434, -0.110196, -2.109513, -22.125946, -77.206772, -649.648804
1733470153.810681, 22.703317, -17.454927, 10.202292, -1.794617, -0.883043, -1.782990, -21.511032, -75.933716, -650.641663
1733470153.820677, 21.208586, -14.235175, 4.342633, -3.093919, -1.022329, -1.426014, -21.335220, -74.630722, -652.456787
1733470153.830668, 22.112697, -13.508086, -2.691532, -3.870229, -0.597304, -0.985389, -21.464600, -73.196884, -654.163391
1733470153.840672, 23.710677, -15.482404, -10.134356, -3.984646, 0.122852, -0.522901, -20.924698, -71.911743, -655.157104
1733470153.850669, 24.005014, -16.889297, -15.773300, -3.209669, 1.064709, -0.064544, -20.388885, -71.059540, -655.477722
1733470153.860676, 23.606080, -17.790714, -17.398813, -1.808015, 1.891106, 0.459821, -19.158707, -71.003036, -655.217041
1733470153.870676, 21.614254, -16.938827, -15.613038, -0.240140, 2.461581, 1.069490, -17.684143, -71.454575, -653.820129
1733470153.880665, 17.038935, -13.920188, -11.054478, 1.099934, 2.848342, 1.773592, -16.328613, -72.763153, -652.544556
1733470153.890717, 10.634146, -11.779472, -5.109975, 1.946942, 2.982422, 2.391191, -16.388382, -74.043152, -651.046692
1733470153.900661, 3.920804, -11.596615, 0.614262, 2.265121, 2.745625, 2.680538, -16.478119, -75.520798, -649.952576
1733470153.910671, -1.870919, -12.064831, 5.597344, 2.107393, 1.812702, 2.411403, -16.621323, -76.459045, -648.788696
1733470153.920663, -5.574001, -11.450718, 8.240692, 0.827418, -1.222570, 0.925084, -16.587006, -77.080566, -648.599426
1733470153.930659, -7.266552, -9.341576, 8.527398, -0.029865, -2.427946, 0.315479, -16.676666, -77.155838, -648.460327
1733470153.940659, -7.040898, -6.859088, 6.151003, -0.777628, -2.909440, 0.061328, -17.357727, -76.888000, -648.888672
1733470153.950659, -5.965602, -4.585495, 2.604442, -1.348474, -2.779655, 0.159960, -17.867950, -76.522339, -649.966064
1733470153.960658, -5.127183, -2.475006, -0.421978, -1.766412, -2.207497, 0.443382, -18.846893, -76.014511, -650.776428
1733470153.970660, -4.533421, -0.988955, -2.780566, -2.043573, -1.360533, 0.759640, -19.665421, -75.479156, -651.761047
1733470153.980656, -4.189703, -0.282815, -4.535815, -2.143910, -0.414844, 1.019085, -20.635284, -75.116882, -652.430542
1733470153.990656, -3.926042, 0.043844, -5.747880, -2.062647, 0.511144, 1.175076, -20.913956, -74.677246, -653.145813
1733470154.000658, -3.605069, 0.245106, -6.323236, -1.840275, 1.290655, 1.246321, -21.126953, -74.145493, -653.985596
1733470154.010661, -3.204040, 0.650175, -6.148609, -1.513484, 1.801044, 1.270037, -20.684738, -73.809067, -654.448730
1733470154.020665, -2.882619, 1.171662, -5.481076, -1.100775, 2.024370, 1.265809, -20.576904, -73.643768, -654.527161
1733470154.030667, -2.659659, 1.562665, -4.723760, -0.631237, 2.030450, 1.221317, -20.343719, -73.698792, -654.692566
1733470154.040670, -2.570026, 1.918803, -3.862895, -0.141364, 1.852425, 1.144433, -20.120255, -73.930496, -654.323486
1733470154.050660, -2.524386, 2.132037, -2.874987, 0.314087, 1.504335, 1.039564, -20.046448, -74.111084, -653.825073
1733470154.060662, -2.367865, 2.211345, -1.853711, 0.694891, 1.033967, 0.931354, -20.020660, -74.537216, -653.527954
1733470154.070672, -2.120514, 2.247557, -1.015590, 1.012876, 0.509845, 0.823441, -20.042603, -74.993668, -652.921509
1733470154.080661, -1.863437, 2.180968, -0.458490, 1.288036, 0.011253, 0.710024, -20.343414, -75.433899, -651.917053
1733470154.090657, -1.776947, 1.923591, -0.182558, 1.512634, -0.365951, 0.592618, -20.787415, -76.164062, -652.433960
1733470154.100660, -1.783231, 1.513884, -0.060154, 1.649241, -0.579570, 0.460788, -21.185257, -76.597626, -651.821960
1733470154.110658, -1.700482, 1.068113, 0.009726, 1.689358, -0.662102, 0.328319, -21.692291, -77.239258, -651.054382
1733470154.120657, -1.690755, 0.680552, 0.146046, 1.640689, -0.634480, 0.178532, -22.019348, -77.675644, -650.330444
1733470154.130655, -1.509843, 0.363919, 0.254683, 1.535424, -0.584234, 0.033263, -22.057846, -78.287186, -650.112183
1733470154.140657, -0.978929, 0.162506, 0.590320, 1.408884, -0.582916, -0.061250, -22.527023, -78.482437, -649.859253
1733470154.150699, -0.219518, -0.210690, 0.882114, 1.273256, -0.634208, -0.104044, -22.785889, -78.750793, -649.608887
1733470154.160650, 0.687585, -1.074548, 0.992846, 1.162821, -0.741168, -0.093740, -23.006378, -78.905167, -649.302979
1733470154.170649, 1.782034, -2.308160, 1.230320, 1.074638, -0.965722, -0.016698, -23.551224, -79.311203, -648.939880
1733470154.180660, 3.082984, -4.188955, 1.625064, 0.965097, -1.287040, 0.074813, -24.482285, -79.675964, -648.238403
1733470154.190678, 4.552425, -6.501155, 1.722030, 0.814226, -1.627489, 0.224927, -25.026382, -79.995651, -649.133667
1733470154.200722, 6.162525, -8.835652, 1.783680, 0.609053, -1.879806, 0.392946, -26.312027, -79.993027, -649.291321
1733470154.210384, 7.062147, -11.477503, 1.855207, 0.353954, -1.887208, 0.430002, -27.882126, -80.039581, -649.669434
1733470154.220655, 7.815572, -14.873978, 1.182885, 0.009268, -1.493208, 0.307831, -28.731689, -79.835938, -650.056824
1733470154.230183, 9.787646, -19.254170, 0.059107, -0.449405, -0.906677, 0.208705, -29.061096, -79.658569, -650.192993
1733470154.240665, 12.482919, -22.938397, -0.700304, -0.809765, -0.421933, 0.348889, -29.019836, -79.348358, -650.910706
1733470154.250655, 14.143297, -24.227376, -1.689409, -0.931419, 0.080979, 0.678422, -29.579407, -79.062851, -651.147217
1733470154.260654, 14.010120, -25.054572, -2.747197, -1.066359, 0.661845, 0.874157, -29.918762, -78.635025, -651.883423
1733470154.270653, 13.501801, -27.699866, -3.111564, -1.412994, 1.195508, 0.848259, -30.201340, -78.177628, -652.359985
1733470154.280655, 12.888885, -29.638421, -2.972102, -1.862994, 1.625085, 0.548178, -29.723465, -77.730392, -652.335449
1733470154.290654, 11.537209, -29.432968, -3.553444, -2.106102, 1.989972, 0.124698, -29.421494, -76.957367, -653.730530
1733470154.300668, 11.913996, -29.293057, -5.018995, -2.098075, 2.005901, -0.209460, -28.771774, -76.488281, -654.296875
1733470154.310666, 14.243555, -30.853778, -6.230760, -1.752978, 1.567762, -0.440938, -27.896637, -75.946396, -654.439453
1733470154.320653, 15.022867, -30.905103, -8.101230, -0.948050, 1.227354, -0.579353, -26.930511, -75.519043, -654.497070
1733470154.330652, 14.511107, -29.149854, -9.926659, -0.037275, 1.135724, -0.622052, -26.130905, -75.513580, -654.101440
1733470154.340650, 13.899238, -26.527904, -9.371205, 0.651759, 1.156149, -0.571757, -24.949951, -75.572754, -653.470520
1733470154.350658, 13.018621, -23.329550, -7.624784, 1.108107, 1.265552, -0.446501, -23.717041, -76.066360, -652.788818
1733470154.360669, 11.834539, -19.924995, -6.010943, 1.419530, 1.392856, -0.207667, -22.589066, -76.736099, -651.823120
1733470154.370655, 10.180295, -16.240319, -4.196587, 1.625886, 1.445022, 0.123166, -21.948761, -77.241516, -649.889771
1733470154.380647, 7.805097, -12.942306, -2.088642, 1.703546, 1.411633, 0.402160, -21.534195, -78.052704, -648.944153
1733470154.390649, 4.844069, -10.612897, -0.205752, 1.635006, 1.312704, 0.502557, -21.166153, -78.560181, -648.402466
1733470154.400688, 2.157176, -8.780286, 1.112855, 1.449552, 1.162593, 0.442400, -20.675812, -79.322388, -647.824036
1733470154.410545, -0.048782, -6.849512, 1.999907, 1.190204, 0.915145, 0.284907, -20.503265, -79.677750, -646.433716
1733470154.420645, -1.645714, -4.954950, 2.582745, 0.906030, 0.538736, 0.075231, -20.132294, -80.202087, -646.140869
1733470154.430644, -2.897134, -3.194912, 2.905513, 0.614111, 0.062159, -0.164053, -19.620819, -80.396957, -645.983765
1733470154.440647, -3.656544, -1.677737, 2.722357, 0.361131, -0.402175, -0.393466, -19.684006, -80.411453, -645.673706
1733470154.450646, -3.870077, -0.415843, 1.990629, 0.188410, -0.772839, -0.541420, -19.331116, -80.471161, -646.120117
1733470154.460644, -3.424905, 0.736516, 1.180790, 0.095735, -1.028501, -0.574897, -19.519043, -80.431030, -645.808777
1733470154.470644, -2.897882, 1.624316, 0.481384, 0.040502, -1.198248, -0.494121, -19.329559, -80.430756, -646.370850
1733470154.480643, -2.427272, 2.447622, -0.054318, -0.010713, -1.257408, -0.320537, -19.722183, -80.509384, -645.873535
1733470154.490647, -2.171691, 3.188927, -0.383072, -0.083563, -1.237318, -0.087481, -19.948456, -80.514084, -646.915894
1733470154.500639, -2.142062, 3.691260, -0.631321, -0.165954, -1.145403, 0.148486, -19.948456, -80.514084, -646.915894
1733470154.510651, -2.394501, 3.923498, -0.789937, -0.251927, -1.016503, 0.346178, -20.390961, -80.519897, -647.052307
1733470154.520642, -2.857629, 3.995025, -0.824204, -0.340137, -0.906403, 0.498565, -21.005463, -80.593933, -647.380310
1733470154.530654, -3.375974, 3.993079, -0.695815, -0.428433, -0.837331, 0.597814, -21.312317, -80.535034, -647.285400
1733470154.540700, -3.844789, 3.823839, -0.574608, -0.505947, -0.773606, 0.629932, -21.910538, -80.502106, -647.835999
1733470154.550658, -4.188656, 3.510049, -0.657059, -0.561769, -0.682988, 0.607139, -22.572479, -80.316437, -648.089600
1733470154.560650, -4.338443, 3.208978, -0.833332, -0.598486, -0.542739, 0.557377, -22.842758, -80.099762, -648.111755
1733470154.570654, -4.178929, 2.977040, -0.978929, -0.627906, -0.383372, 0.504660, -23.472153, -80.070694, -648.421997
1733470154.580725, -3.821595, 2.888604, -1.049708, -0.641954, -0.231322, 0.463334, -23.694427, -79.878571, -648.732605
1733470154.590637, -3.439121, 2.800468, -1.124078, -0.626143, -0.128450, 0.441141, -24.134003, -79.577209, -648.768860
1733470154.600471, -2.941726, 2.624045, -1.385195, -0.557598, -0.010153, 0.433022, -24.579742, -79.440170, -649.852051
1733470154.610655, -2.264316, 2.281375, -1.581520, -0.420701, 0.048774, 0.461518, -24.744980, -79.084732, -650.015381
1733470154.620643, -1.609502, 1.885883, -1.492485, -0.272610, 0.046404, 0.500421, -24.823273, -79.001526, -649.731873
1733470154.630689, -1.247828, 1.567454, -1.334618, -0.155623, -0.008028, 0.554327, -25.094986, -78.877365, -650.092590
1733470154.640639, -1.096095, 1.304092, -1.086070, -0.059369, -0.129711, 0.605684, -25.429245, -78.794357, -650.054321
1733470154.650647, -1.052850, 0.411803, -0.861164, 0.056912, -0.356772, 0.608897, -26.161301, -78.682312, -650.020325
1733470154.660631, -0.367660, -1.520767, -0.769437, 0.203103, -0.725071, 0.555513, -26.895279, -78.794235, -650.236206
1733470154.670646, 1.007211, -4.626346, -0.565331, 0.307617, -1.241935, 0.459257, -27.877655, -78.868820, -651.027222
1733470154.680639, 2.700510, -9.133730, -0.381875, 0.321773, -1.873456, 0.272387, -29.072662, -78.978012, -651.056885
1733470154.690637, 3.774758, -13.268815, -1.089212, 0.416477, -2.245739, -0.004573, -29.982941, -79.134354, -650.539734
1733470154.700640, 4.225317, -16.024541, -3.158401, 0.761016, -1.985968, -0.299381, -31.071701, -79.170853, -651.805359
1733470154.710646, 6.271013, -20.160674, -4.560655, 1.080643, -1.693771, -0.484120, -31.620926, -79.544113, -651.540100
1733470154.720649, 9.516353, -25.098266, -3.288436, 1.027366, -1.717535, -0.545026, -32.421677, -79.588562, -651.163818
1733470154.730644, 11.054179, -27.796532, -1.841740, 0.784094, -1.419440, -0.737109, -33.329498, -79.798599, -651.436523
1733470154.740649, 11.957990, -30.280067, -2.842067, 0.536995, -0.635948, -0.956946, -33.484146, -79.892548, -651.525879
1733470154.750640, 14.438233, -33.262943, -3.520075, 0.138459, 0.095288, -1.075285, -33.165802, -79.966507, -651.413513
1733470154.760650, 16.669031, -34.480245, -2.295142, -0.353021, 0.697649, -1.116728, -32.798538, -79.857666, -651.561951
1733470154.770646, 18.292000, -33.920600, -1.885733, -0.760344, 1.040234, -1.050802, -31.986374, -79.538467, -651.624268
1733470154.780642, 19.951182, -33.633745, -2.260725, -0.867198, 1.149541, -0.861123, -31.128387, -79.279236, -651.779968
1733470154.790647, 20.302980, -33.426048, -4.239084, -0.603717, 1.433243, -0.585797, -30.040161, -79.191635, -651.031738
1733470154.800646, 19.274072, -31.633838, -6.222231, -0.206574, 1.918671, -0.214687, -28.831192, -78.823151, -651.724609
1733470154.810646, 17.689709, -28.423513, -6.427534, 0.141234, 2.447207, 0.230594, -27.696152, -78.804230, -650.590515
1733470154.820636, 15.254057, -24.558224, -5.525069, 0.375357, 2.927022, 0.679775, -26.135559, -78.947449, -650.259644
1733470154.830635, 12.431892, -20.453814, -4.249409, 0.515033, 3.299207, 1.127989, -25.158615, -79.132874, -649.070679
1733470154.840635, 8.999804, -16.275184, -2.706495, 0.567807, 3.454184, 1.452619, -24.477951, -79.895508, -648.446716
1733470154.849725, 4.525939, -13.348871, -0.334889, 0.489391, 3.333538, 1.431783, -23.660049, -80.415085, -647.408813
1733470154.860627, -0.244358, -11.805808, 2.157026, 0.272615, 2.774136, 0.992010, -23.076538, -80.700470, -646.850525
1733470154.870628, -4.065504, -10.162339, 4.449624, -0.006677, 1.722089, 0.304438, -22.514954, -80.930878, -646.341309
1733470154.880631, -6.337751, -7.656058, 5.628469, -0.265044, 0.341262, -0.425019, -22.082962, -81.035812, -646.148438
1733470154.890676, -7.242759, -4.577265, 5.559037, -0.442342, -1.045221, -1.036653, -21.428772, -80.892242, -646.141968
1733470154.900633, -7.005584, -1.812411, 3.863643, -0.489225, -2.056204, -1.394827, -21.084213, -80.412308, -646.838379
1733470154.910504, -5.969343, 0.442179, 1.130811, -0.382942, -2.528871, -1.457549, -20.895874, -80.087845, -646.664185
1733470154.920642, -4.701614, 2.157325, -1.362301, -0.210385, -2.531734, -1.301696, -21.099838, -79.778854, -647.100220
1733470154.930638, -3.589956, 3.424756, -3.008165, -0.042249, -2.232929, -0.966626, -21.407150, -79.769989, -647.614624
1733470154.940695, -2.725200, 4.285022, -3.905093, 0.091028, -1.726296, -0.538991, -21.499161, -79.763885, -647.961670
1733470154.950648, -2.267459, 4.590133, -4.291756, 0.180828, -1.110762, -0.109189, -21.874451, -79.873398, -648.007263
1733470154.960627, -2.403180, 4.706552, -4.105158, 0.229239, -0.512015, 0.244968, -22.178177, -80.155518, -648.105347
1733470154.970626, -3.048417, 4.601805, -3.342904, 0.238592, -0.061396, 0.447599, -22.321060, -80.281433, -648.101807
1733470154.980687, -3.686472, 4.054581, -2.342427, 0.199219, 0.201965, 0.482213, -22.778229, -80.463379, -648.158691
1733470154.990629, -4.092888, 3.583521, -1.465551, 0.140494, 0.299674, 0.410975, -22.859802, -80.747696, -647.332886
1733470155.000621, -4.218583, 3.382408, -0.813580, 0.097398, 0.274415, 0.270985, -23.196457, -80.652573, -647.958191
1733470155.010636, -4.126407, 3.086276, -0.421978, 0.074627, 0.192908, 0.101310, -23.394485, -80.687256, -648.038269
1733470155.020628, -3.738396, 2.701557, -0.296731, 0.068576, 0.107455, -0.069003, -23.314957, -80.589127, -647.940430
1733470155.030631, -3.189675, 2.363376, -0.366163, 0.072455, 0.048280, -0.210323, -23.267090, -80.604950, -647.900757
1733470155.040634, -2.651878, 2.189797, -0.474501, 0.074287, -0.011210, -0.289045, -23.139572, -80.478043, -647.680420
1733470155.050623, -2.136675, 2.227655, -0.589423, 0.078867, -0.033106, -0.304207, -22.724075, -80.437866, -647.589966
1733470155.060685, -1.712752, 2.290054, -0.844255, 0.095817, 0.016391, -0.272282, -22.918228, -80.417084, -647.530762
1733470155.070623, -1.188721, 2.184709, -1.066018, 0.136047, 0.070563, -0.209651, -22.937927, -80.153214, -647.802185
1733470155.080627, -0.660051, 1.717989, -0.792032, 0.186653, 0.068825, -0.146738, -23.153000, -80.160522, -647.419739
1733470155.090629, -0.187795, 0.918027, -0.384868, 0.221879, -0.005004, -0.105518, -23.186218, -80.283356, -647.043823
1733470155.100620, 0.504428, 0.047585, 0.020500, 0.214256, -0.167536, -0.088300, -23.454605, -80.110992, -647.894775
1733470155.110625, 1.393725, -1.547552, 0.388758, 0.138777, -0.347950, -0.095470, -23.652130, -80.049423, -647.901123
1733470155.120624, 2.650082, -3.994875, 0.391602, 0.032047, -0.621221, -0.070357, -24.224991, -79.897400, -648.181885
1733470155.130629, 4.573823, -6.893355, 0.507271, -0.053079, -0.979056, 0.025366, -24.893204, -79.879578, -648.503601
1733470155.140624, 6.670096, -9.905261, 0.450409, -0.100965, -1.372304, 0.189521, -25.790756, -79.809250, -649.204712
1733470155.150620, 8.838195, -14.586524, 0.563834, -0.084150, -1.733507, 0.357292, -26.686172, -79.793396, -649.830933
1733470155.160628, 10.282498, -19.123087, -0.123002, -0.039612, -1.827744, 0.475904, -27.898651, -79.692276, -650.349365
1733470155.170645, 10.863989, -23.890392, -0.394145, -0.075128, -1.734287, 0.543413, -28.885025, -79.656036, -650.484253
1733470155.180315, 10.863989, -23.890392, -0.394145, -0.252613, -1.358572, 0.439419, -29.898209, -79.465561, -650.995667
1733470155.190688, 10.093505, -26.985496, -0.791583, -0.574458, -0.636086, 0.066501, -30.540115, -79.298981, -650.361450
1733470155.200630, 11.230452, -31.414919, -0.657807, -1.027931, 0.077823, -0.450290, -30.307083, -78.759705, -651.730225
1733470155.210623, 12.644527, -30.571561, -0.897077, -1.484888, 0.569065, -0.876548, -29.780273, -78.311172, -652.167969
1733470155.220627, 13.048249, -28.343158, -1.395670, -1.751792, 0.810817, -1.232458, -29.006561, -77.573135, -652.269226
1733470155.230622, 14.234876, -26.417023, -2.366668, -1.825811, 0.843949, -1.541977, -28.162109, -76.706802, -652.820068
1733470155.240630, 15.980398, -25.300127, -3.807978, -1.679167, 0.604005, -1.705682, -27.444199, -75.939285, -653.801208
1733470155.250639, 17.266683, -25.393052, -5.958869, -1.260730, 0.300084, -1.693097, -26.708237, -75.227325, -653.964233
1733470155.260627, 17.880497, -25.229648, -7.462727, -0.739544, 0.185894, -1.547715, -25.484207, -74.821793, -654.248779
1733470155.270621, 17.276858, -23.359328, -7.704391, -0.249178, 0.330900, -1.279931, -24.422791, -74.516174, -654.156433
1733470155.280626, 15.983840, -20.905121, -7.360674, 0.159224, 0.674024, -0.929765, -23.850800, -74.628983, -653.799622
1733470155.290621, 13.871107, -17.901296, -6.427534, 0.494177, 1.162055, -0.513109, -22.571381, -74.734879, -652.633789
1733470155.300632, 11.111789, -14.851682, -4.368371, 0.680242, 1.698036, -0.075986, -21.451630, -75.042999, -652.100159
1733470155.310622, 8.423400, -12.559832, -2.308459, 0.659761, 2.053260, 0.276304, -20.566483, -75.293716, -651.374451
1733470155.320624, 5.500678, -10.193613, -0.828992, 0.527283, 2.180107, 0.511282, -19.546692, -75.678925, -650.761292
1733470155.330506, 2.392406, -7.879467, 0.286406, 0.393379, 2.124066, 0.626400, -18.923065, -76.151657, -649.955750
1733470155.340615, -0.143951, -5.965902, 1.420210, 0.250062, 1.817904, 0.580193, -18.227631, -76.302490, -649.481018
1733470155.350614, -1.874510, -3.972878, 2.262521, 0.080440, 1.162882, 0.394845, -17.611755, -76.371048, -649.583679
1733470155.360632, -2.776077, -1.702876, 2.356194, -0.079720, 0.238298, 0.208413, -17.422180, -76.326263, -649.380920
1733470155.370614, -3.014749, 0.298527, 1.533337, -0.198201, -0.757796, 0.145228, -17.460327, -76.579407, -649.607239
1733470155.380614, -3.300557, 1.746271, 0.116568, -0.264531, -1.602213, 0.202698, -17.980377, -76.372131, -649.816223
1733470155.390613, -3.627216, 2.567781, -1.657985, -0.282734, -2.055154, 0.341479, -18.375763, -76.434570, -650.200806
1733470155.400624, -3.863942, 3.083582, -2.942025, -0.254254, -2.082669, 0.523163, -19.341736, -76.433121, -651.011292
1733470155.410612, -3.952528, 3.462315, -3.631405, -0.213091, -1.823898, 0.720529, -20.513397, -76.553513, -651.253357
1733470155.420614, -3.973028, 3.768174, -3.958214, -0.175258, -1.394096, 0.922307, -21.312698, -76.827637, -651.260071
1733470155.430612, -3.979462, 4.007894, -3.884293, -0.124082, -0.904404, 1.098759, -21.811859, -77.130295, -651.374390
1733470155.440613, -4.088848, 4.156633, -3.447501, -0.040605, -0.438592, 1.234408, -22.707397, -77.278046, -651.652710
1733470155.450610, -4.223222, 3.930681, -2.508375, 0.077877, -0.105104, 1.290279, -23.506363, -77.389847, -651.764893
1733470155.460610, -4.271256, 3.352481, -1.679532, 0.218379, 0.063378, 1.220400, -24.411346, -77.754333, -651.828430
1733470155.470610, -4.210952, 2.730437, -1.107917, 0.342726, 0.111728, 1.051958, -24.430954, -77.985031, -651.403809
1733470155.480612, -3.994725, 2.218527, -0.707936, 0.434282, 0.070677, 0.832301, -24.956421, -78.173111, -651.103638
1733470155.490627, -3.589507, 1.823035, -0.634763, 0.498454, 0.010156, 0.607659, -25.104660, -78.520493, -650.825073
1733470155.500615, -3.119196, 1.535282, -0.821510, 0.541862, 0.013405, 0.414784, -25.220642, -78.602463, -651.106689
1733470155.510614, -2.792387, 1.387589, -1.014393, 0.580832, 0.080523, 0.268832, -25.498047, -78.808304, -650.287964
1733470155.520614, -2.642301, 1.263839, -1.257405, 0.619107, 0.215410, 0.161258, -25.106155, -78.962585, -650.063232
1733470155.530613, -2.358139, 1.011401, -1.373075, 0.658965, 0.438572, 0.070583, -25.344971, -78.890747, -649.827942
1733470155.540630, -2.019060, 0.601244, -1.121085, 0.696148, 0.670735, -0.016665, -25.222717, -79.194489, -649.724304
1733470155.550607, -1.350330, -0.001646, -0.749684, 0.721158, 0.840558, -0.098759, -24.931305, -79.225357, -649.604858
1733470155.560609, -0.510713, -0.812233, -0.202011, 0.719910, 0.963231, -0.176518, -24.779282, -79.280838, -649.298157
1733470155.570608, 0.197522, -1.776198, 0.509217, 0.664558, 0.948684, -0.257447, -24.597519, -79.288635, -648.881653
1733470155.580607, 1.239299, -2.788796, 1.276259, 0.567977, 0.702374, -0.333598, -24.239624, -79.624329, -648.026489
1733470155.590607, 2.684948, -4.017021, 1.778293, 0.481137, 0.246938, -0.348351, -24.271683, -79.595261, -648.554443
1733470155.600628, 4.564695, -5.803545, 2.076820, 0.420199, -0.315835, -0.246975, -24.578323, -79.743896, -648.845581
1733470155.610618, 6.063765, -8.231565, 2.490119, 0.351624, -1.006883, -0.040731, -25.704346, -79.534515, -648.815674
1733470155.620627, 6.614730, -10.604817, 2.133832, 0.181059, -1.780739, 0.130265, -26.619995, -79.355209, -648.998596
1733470155.630625, 6.840234, -13.174843, 0.063446, -0.042668, -2.290370, 0.196242, -27.864182, -79.324615, -649.421448
1733470155.640527, 7.632565, -17.274315, -3.381361, -0.163909, -2.111981, 0.127294, -28.630142, -79.375519, -650.200806
1733470155.650642, 9.208399, -21.710621, -6.008399, -0.028905, -1.354037, -0.009405, -29.406479, -79.283096, -650.626831
1733470155.660625, 11.187955, -26.093656, -6.549339, 0.318164, -0.446566, -0.122069, -29.761688, -79.461182, -650.567139
1733470155.670613, 13.198635, -30.121601, -4.714333, 0.596477, 0.321220, -0.259989, -29.466019, -79.691406, -650.506470
1733470155.680616, 14.952538, -32.574909, -1.402404, 0.512855, 0.798951, -0.504096, -29.456970, -79.733582, -649.679077
1733470155.690617, 16.103700, -32.877925, 1.242291, 0.166558, 1.028779, -0.833090, -28.935730, -79.348175, -649.731506
1733470155.700602, 18.201918, -32.717664, 2.566883, -0.267710, 1.128716, -1.134352, -28.333618, -79.227386, -650.181580
1733470155.710619, 21.114315, -32.627432, 3.020585, -0.668060, 0.785284, -1.260767, -27.773972, -78.733719, -650.293518
1733470155.720612, 22.168661, -31.561563, 1.285537, -0.787030, 0.110106, -1.167613, -26.753220, -78.473892, -650.556580
1733470155.730613, 21.311836, -30.095863, -1.400309, -0.576028, -0.395626, -0.963979, -26.638275, -78.095688, -650.567932
1733470155.740657, 19.640983, -28.250382, -3.127576, -0.288368, -0.489882, -0.759983, -25.782684, -77.980072, -650.650208
1733470155.750603, 17.639730, -25.481189, -3.986046, -0.037171, -0.315295, -0.507519, -25.110062, -78.047150, -650.224487
1733470155.760603, 15.343391, -22.084266, -4.639963, 0.210176, 0.014987, -0.198068, -24.169525, -78.085175, -649.553955
1733470155.770611, 12.290185, -18.342727, -4.659715, 0.461820, 0.498708, 0.190377, -23.688492, -78.452652, -649.029785
1733470155.780601, 8.335114, -15.250915, -3.642179, 0.648284, 1.080778, 0.539837, -23.234787, -78.934341, -647.978455
1733470155.790655, 4.243423, -12.946795, -1.718289, 0.688161, 1.619655, 0.677812, -22.320709, -79.289352, -648.063171
1733470155.800609, 0.790386, -10.553342, 0.107141, 0.596645, 1.932346, 0.563601, -21.894241, -79.740051, -647.732971
1733470155.810604, -1.684471, -7.982867, 1.579425, 0.450804, 1.938376, 0.251168, -20.516022, -79.966232, -646.742004
1733470155.820597, -3.143138, -5.246145, 2.578854, 0.305269, 1.618129, -0.146847, -19.822174, -80.060287, -646.388672
1733470155.829642, -4.028693, -2.397643, 2.888455, 0.178631, 1.030121, -0.496980, -19.181473, -80.002167, -645.759521
1733470155.840655, -4.260332, 0.262614, 2.564040, 0.095421, 0.323511, -0.719842, -18.589569, -79.912231, -645.722961
1733470155.850611, -3.947141, 2.872892, 2.162114, 0.046781, -0.352885, -0.777057, -18.255264, -79.754974, -645.793274
1733470155.860604, -3.463362, 4.999991, 1.950975, -0.051424, -0.993401, -0.646475, -18.064438, -79.424866, -645.907166
1733470155.870596, -2.914043, 6.008249, 1.326986, -0.245254, -1.503497, -0.321652, -18.446121, -79.447708, -646.477539
1733470155.880599, -2.737919, 6.279542, 0.331148, -0.538987, -1.712883, 0.136941, -19.245987, -79.260757, -646.281860
1733470155.890595, -3.062782, 6.477064, -0.661548, -0.888497, -1.584700, 0.642041, -20.151199, -79.236511, -647.656860
1733470155.900597, -3.482965, 6.696133, -1.456124, -1.238642, -1.180564, 1.099341, -20.989746, -78.913345, -648.687012
1733470155.910597, -3.964648, 6.879589, -1.892916, -1.534472, -0.669030, 1.483831, -21.897949, -78.769516, -649.335449
1733470155.920594, -4.478205, 6.798186, -2.151340, -1.720579, -0.142050, 1.765628, -22.677826, -78.477402, -650.152039
1733470155.930595, -4.875492, 6.291363, -2.166453, -1.784161, 0.331310, 1.916891, -23.422836, -78.374359, -651.117188
1733470155.940591, -5.113117, 5.470452, -1.833659, -1.736064, 0.670912, 1.930822, -24.163040, -77.845535, -651.639221
1733470155.950591, -5.139154, 4.436605, -1.600823, -1.604138, 0.892332, 1.823346, -24.355682, -77.585495, -652.139954
1733470155.960593, -4.955848, 3.387945, -1.413626, -1.411259, 1.034149, 1.620370, -24.752426, -77.263977, -652.478027
1733470155.970594, -4.535067, 2.499846, -1.085621, -1.181506, 1.072292, 1.359384, -25.110626, -77.026688, -652.459106
1733470155.980597, -3.993229, 1.716343, -0.823306, -0.923079, 0.995216, 1.077909, -25.110626, -77.026688, -652.459106
1733470155.990589, -3.191920, 1.065569, -0.695665, -0.652231, 0.866487, 0.791682, -25.134369, -76.935150, -652.009399
1733470156.000595, -2.398392, 0.451756, -0.625934, -0.403157, 0.752337, 0.530501, -25.435654, -76.572693, -652.887024
1733470156.010647, -1.382951, -0.270395, -0.450559, -0.205855, 0.608200, 0.297516, -25.365692, -76.526108, -652.889160
1733470156.020587, -0.085742, -1.284788, -0.186897, -0.023546, 0.328487, 0.105444, -25.567307, -76.360550, -652.847229
1733470156.030597, 1.100585, -2.975095, -0.059556, 0.206986, -0.115067, -0.025410, -25.641602, -76.477463, -653.116699
1733470156.040596, 2.388515, -5.605724, -0.195277, 0.454208, -0.616801, -0.102641, -26.353302, -76.271179, -653.054932
1733470156.050586, 3.766678, -8.585458, -0.440982, 0.606748, -1.092035, -0.154351, -26.824921, -76.383377, -652.998779
1733470156.060600, 4.571728, -10.884789, -0.407463, 0.598654, -1.535797, -0.171677, -27.357468, -76.455063, -653.149536
1733470156.070594, 4.521151, -12.577789, -0.717812, 0.438370, -1.863843, -0.247407, -28.022812, -76.323303, -653.215332
1733470156.080615, 4.881927, -14.542680, -1.829170, 0.209338, -1.819407, -0.375334, -28.737259, -76.315582, -653.575989
1733470156.090590, 6.688951, -17.468544, -2.864962, 0.005385, -1.543208, -0.514396, -29.854660, -76.263031, -653.216125
1733470156.100606, 9.434052, -21.161900, -4.119673, -0.055366, -1.360540, -0.584963, -29.911301, -76.149826, -654.561890
1733470156.110607, 11.559954, -24.306235, -5.494543, 0.093430, -1.324985, -0.511686, -30.402344, -76.101593, -654.316162
1733470156.120595, 12.812121, -27.371262, -6.598869, 0.450076, -1.236077, -0.333248, -31.195755, -76.244812, -654.881897
1733470156.130598, 13.358149, -29.800778, -6.317550, 0.767335, -1.075274, -0.203307, -31.487778, -76.502945, -654.933411
1733470156.140608, 13.345879, -30.640993, -5.253178, 0.801816, -0.873216, -0.150224, -31.766098, -76.435989, -654.273865
1733470156.150597, 12.750022, -29.886670, -4.613327, 0.571410, -0.544259, -0.171064, -31.789505, -76.817368, -654.030029
1733470156.160596, 12.907440, -29.570186, -4.620809, 0.208248, -0.076136, -0.201727, -31.781769, -76.801895, -653.702759
1733470156.170119, 13.076531, -29.650242, -4.831798, -0.162010, 0.255995, -0.244382, -31.707458, -76.834229, -653.832214
1733470156.180600, 12.862100, -29.092992, -5.597943, -0.346948, 0.440471, -0.345128, -31.459854, -76.635330, -654.047852
1733470156.190655, 12.822446, -28.575844, -6.059275, -0.358686, 0.587148, -0.497366, -31.189117, -76.556229, -653.477417
1733470156.200593, 12.629114, -27.321432, -6.187964, -0.288090, 0.690801, -0.639651, -30.470566, -76.415482, -654.151855
1733470156.210594, 11.969512, -24.875007, -6.099079, -0.179908, 0.787193, -0.718586, -29.264709, -76.337234, -653.830872
1733470156.220599, 11.102063, -21.697752, -5.995530, -0.003089, 0.888304, -0.690445, -27.997345, -76.386368, -653.576050
1733470156.230591, 9.692925, -18.037766, -5.814768, 0.308070, 0.957392, -0.510079, -26.992172, -76.516968, -653.141907
1733470156.240583, 7.300220, -14.091672, -5.099949, 0.717985, 1.103423, -0.226439, -26.156860, -77.069611, -652.784302
1733470156.250610, 4.429423, -10.777499, -3.535039, 1.091385, 1.315511, 0.044675, -25.343613, -77.482986, -651.714783
1733470156.260638, 1.328932, -7.684789, -1.473930, 1.294882, 1.504524, 0.190798, -24.196289, -78.235565, -650.858398
1733470156.270580, -1.657685, -4.813542, 0.514604, 1.288697, 1.611411, 0.166313, -23.923187, -78.652466, -649.598022
1733470156.280600, -4.035128, -2.396745, 2.298434, 1.094077, 1.593326, -0.032189, -23.095795, -79.208145, -649.498657
1733470156.290600, -5.617396, 0.012121, 3.771317, 0.754075, 1.325427, -0.368033, -22.349777, -79.302917, -647.975647
1733470156.300593, -6.445640, 2.448520, 4.781520, 0.307533, 0.743639, -0.763425, -21.578476, -79.525528, -648.584961
1733470156.310610, -6.399252, 4.405630, 4.714632, -0.171365, -0.014412, -1.127423, -21.002869, -79.080643, -648.191040
1733470156.320596, -5.637597, 5.587468, 3.585167, -0.587642, -0.707761, -1.369859, -20.268204, -78.918137, -648.505127
1733470156.330619, -4.401590, 5.935376, 1.940052, -0.886813, -1.177689, -1.421855, -20.106995, -78.395264, -649.785217
1733470156.340589, -3.290830, 5.884648, 0.347309, -1.054923, -1.435096, -1.258186, -19.994186, -77.724838, -650.021423
1733470156.350577, -2.611475, 5.784092, -1.043872, -1.058933, -1.241566, -0.560026, -20.316345, -77.113586, -650.503845
1733470156.360580, -2.235735, 5.697901, -2.140117, -0.958189, -0.778009, -0.212237, -20.383575, -76.934036, -651.373352
1733470156.370580, -2.221071, 5.385158, -2.801814, -0.822160, -0.262222, 0.084094, -20.868774, -76.433578, -651.872192
1733470156.379661, -2.374749, 5.083788, -3.007117, -0.822160, -0.262222, 0.084094, -21.115250, -76.223465, -652.209717
1733470156.390585, -2.609530, 4.823419, -2.963273, -0.434383, 0.732215, 0.470033, -20.790222, -76.124222, -651.721313
1733470156.400589, -3.020136, 4.427477, -2.554613, -0.228482, 1.105030, 0.504676, -20.939880, -76.095978, -652.531372
1733470156.410588, -3.206135, 3.894468, -1.935712, -0.063972, 1.364568, 0.458047, -21.031647, -75.995117, -652.095337
1733470156.420579, -3.145532, 3.459771, -1.325640, 0.055139, 1.500381, 0.390347, -20.586533, -76.052795, -652.125061
1733470156.430577, -2.810942, 3.100491, -0.744746, 0.138534, 1.516949, 0.335087, -20.074265, -76.136368, -651.712280
1733470156.440579, -2.319532, 2.751387, -0.227000, 0.229001, 1.373814, 0.316952, -19.895737, -76.231995, -651.292847
1733470156.450574, -1.845181, 2.267758, 0.456395, 0.351895, 1.057119, 0.295915, -20.018372, -76.347351, -651.032776
1733470156.460575, -1.441908, 1.446996, 0.981922, 0.481123, 0.653055, 0.263558, -20.025208, -76.451019, -650.929688
1733470156.470574, -0.882413, 0.584634, 1.108964, 0.569005, 0.287420, 0.200712, -20.113663, -76.478378, -650.670776
1733470156.480576, -0.202909, -0.549320, 0.874183, 0.604496, -0.044857, 0.142692, -20.235260, -76.643311, -650.801636
1733470156.490589, 0.700603, -2.031779, 0.380229, 0.592998, -0.280931, 0.121308, -20.482178, -76.650589, -649.688721
1733470156.500577, 1.745672, -3.833715, -0.108338, 0.537138, -0.475469, 0.107195, -21.226196, -76.877151, -650.265198
1733470156.510578, 2.861221, -6.479907, -0.077213, 0.414097, -0.736995, 0.050499, -21.736908, -76.776154, -650.659424
1733470156.520577, 4.216937, -9.793781, 0.102951, 0.195131, -1.139911, -0.017341, -22.322067, -76.801880, -650.545471
1733470156.530584, 5.506514, -12.330587, 0.117316, -0.054355, -1.544795, -0.085064, -23.223145, -76.725510, -651.094482
1733470156.540576, 6.371270, -13.840281, -0.934786, -0.142115, -1.690625, -0.195482, -23.695465, -76.783417, -651.544067
1733470156.550574, 7.375637, -16.142605, -3.238158, 0.018137, -1.529334, -0.373568, -24.650452, -76.764938, -651.972107
1733470156.560571, 9.009082, -19.831023, -5.263652, 0.365865, -1.408805, -0.598528, -25.551666, -76.666565, -652.492493
1733470156.570573, 11.304074, -23.527072, -6.101324, 0.751436, -1.456036, -0.828745, -26.096786, -76.720154, -652.402893
1733470156.580578, 14.126538, -26.947338, -5.965752, 1.056319, -1.557955, -0.890661, -26.427170, -76.976105, -652.570679
1733470156.590574, 16.249596, -28.650513, -5.806238, 1.153261, -1.439781, -0.839494, -26.438370, -77.238937, -651.942566
1733470156.600582, 17.059285, -29.387928, -5.117157, 0.907489, -1.074717, -0.763292, -26.459442, -77.465027, -651.838867
1733470156.610576, 16.792482, -29.744065, -3.787926, 0.321140, -0.468219, -0.754062, -26.455032, -77.322800, -651.553284
1733470156.620572, 15.911715, -28.735657, -2.924966, -0.415121, 0.328138, -0.784996, -26.224747, -77.095795, -651.566833
1733470156.630573, 16.027983, -28.401068, -3.355025, -1.011560, 1.055281, -0.815160, -25.711105, -76.779755, -652.074463
1733470156.640623, 16.736816, -28.631809, -4.571429, -1.278957, 1.574706, -0.838593, -25.052429, -76.408463, -652.305420
1733470156.650582, 17.237653, -28.378772, -6.152649, -1.190506, 1.940423, -0.831105, -23.896393, -75.821136, -652.330811
1733470156.660573, 17.089961, -26.953473, -7.245303, -0.845210, 2.236284, -0.728730, -22.352173, -75.445480, -652.428284
1733470156.670571, 16.242264, -24.398411, -7.721001, -0.400844, 2.502690, -0.567648, -20.883926, -75.054138, -651.958679
1733470156.680567, 14.657003, -20.677672, -7.015909, -0.003099, 2.652940, -0.327619, -19.046509, -74.969894, -650.991638
1733470156.690569, 12.920309, -16.779463, -5.638046, 0.327110, 2.695589, -0.016256, -17.748367, -75.359207, -649.575928
1733470156.700571, 10.861745, -13.071593, -4.406079, 0.609688, 2.683072, 0.319400, -16.571106, -75.493820, -648.699463
1733470156.710581, 8.432977, -9.563040, -3.138798, 0.849610, 2.588584, 0.625205, -15.457245, -76.091278, -647.906616
1733470156.720564, 5.581932, -6.524648, -1.680580, 1.033569, 2.352915, 0.794853, -14.913712, -76.687759, -646.911377
1733470156.730564, 2.365022, -4.316297, 0.257826, 1.104498, 1.936129, 0.731150, -14.384750, -77.316742, -646.265869
1733470156.740568, -0.630274, -2.549077, 2.110638, 1.032126, 1.350575, 0.455006, -13.955917, -77.987503, -644.888428
1733470156.750563, -2.924966, -0.523432, 3.673603, 0.800523, 0.584328, 0.064956, -13.467133, -78.381531, -644.149109
1733470156.760562, -4.442591, 1.747318, 4.904821, 0.390574, -0.335981, -0.352854, -13.130432, -78.321335, -644.400146
1733470156.770568, -5.035305, 3.678092, 5.253926, -0.089566, -1.227377, -0.695946, -12.697937, -78.331100, -644.341309
1733470156.780581, -4.747253, 5.136011, 4.156035, -0.455810, -1.879329, -0.811813, -12.553101, -78.001083, -644.884460
1733470156.790575, -4.088548, 6.011391, 1.993771, -0.628274, -2.128773, -0.702879, -12.693253, -77.621841, -644.991089
1733470156.800577, -3.323152, 6.032041, -0.628927, -0.637591, -1.908523, -0.458232, -13.120331, -77.376587, -646.135925
1733470156.810572, -2.694375, 5.975179, -2.650381, -0.557868, -1.338156, -0.149920, -13.397568, -77.060593, -646.830444
1733470156.820590, -2.382530, 6.189460, -3.678092, -0.455599, -0.641510, 0.178144, -13.703110, -76.771606, -646.823486
1733470156.830586, -2.196381, 6.499060, -3.855562, -0.343049, 0.014411, 0.496384, -14.057053, -76.996597, -646.815796
1733470156.840595, -2.159869, 6.484994, -3.647866, -0.203046, 0.590858, 0.773274, -14.175201, -77.121429, -647.028198
1733470156.850565, -2.332401, 6.229713, -3.022829, -0.033811, 0.957868, 0.973569, -14.636536, -77.400696, -646.996765
1733470156.860575, -2.571672, 5.691317, -1.760337, 0.110338, 1.087368, 1.067831, -14.798386, -77.725555, -646.640747
1733470156.870614, -2.696170, 5.262755, -0.484527, 0.243824, 0.927452, 1.089537, -15.205109, -77.915665, -646.824341
1733470156.880565, -2.641253, 4.944026, 0.945710, 0.360300, 0.557634, 1.046890, -15.369064, -78.233078, -646.419739
1733470156.890573, -2.567931, 4.281581, 1.864036, 0.417126, 0.120878, 0.940901, -15.833450, -78.717331, -646.099976
1733470156.900563, -2.406322, 3.557484, 2.236184, 0.374855, -0.258546, 0.815203, -16.483459, -78.781830, -646.233521
1733470156.910620, -2.097620, 2.967463, 2.221520, 0.256530, -0.514277, 0.718975, -16.943420, -78.886734, -645.919800
1733470156.920560, -1.698836, 2.526332, 1.758391, 0.146490, -0.580654, 0.673267, -17.409164, -78.971069, -646.113892
1733470156.930559, -1.328333, 1.936760, 1.050755, 0.081814, -0.452930, 0.634191, -18.024612, -78.917053, -646.024475
1733470156.940556, -0.965911, 0.844255, 0.497395, 0.038470, -0.223485, 0.589310, -18.294373, -79.120163, -646.184143
1733470156.950605, -0.136469, -0.547524, 0.136320, -0.024409, 0.016316, 0.590281, -18.970245, -79.155212, -646.490906
1733470156.960558, 1.216554, -2.316240, 0.082600, -0.068404, 0.075849, 0.650892, -19.376907, -79.071320, -646.673401
1733470156.970554, 2.969259, -4.578611, 0.528819, -0.061931, -0.159853, 0.783081, -20.013168, -79.127670, -647.350464
1733470156.980559, 4.282628, -7.649025, 1.002572, -0.066887, -0.549438, 0.874524, -21.150269, -79.076096, -647.481079
1733470156.990598, 5.057452, -11.116877, 1.416918, -0.147208, -1.007902, 0.841148, -21.907379, -79.139923, -647.808594
1733470157.000591, 5.630115, -13.874249, 1.668010, -0.304211, -1.326742, 0.770310, -22.852142, -78.991455, -648.573669
1733470157.010555, 6.253206, -15.904083, 0.720505, -0.395812, -1.332193, 0.719986, -23.920197, -78.998413, -649.451538
1733470157.020577, 7.577948, -19.322853, -1.054197, -0.290868, -1.111162, 0.599003, -25.092300, -79.049988, -649.728027
1733470157.030573, 9.036615, -23.823055, -3.225738, 0.106680, -0.709897, 0.437224, -25.533829, -79.064758, -650.004272
1733470157.040579, 10.526856, -27.489475, -4.544045, 0.576134, -0.350156, 0.322706, -26.008133, -79.270218, -649.869995
1733470157.050567, 12.004377, -29.722218, -3.438373, 0.813396, -0.165614, 0.273233, -26.108002, -79.273880, -649.350159
1733470157.060564, 13.045855, -30.627525, -0.968006, 0.762783, -0.019080, 0.318247, -26.416992, -79.735123, -649.268494
1733470157.070564, 13.138780, -31.776144, 1.129764, 0.383574, 0.202851, 0.241960, -26.329315, -79.724136, -648.770203
1733470157.080563, 12.299612, -32.447418, 2.516156, -0.102211, 0.452359, 0.124385, -26.314453, -79.801498, -648.481873
1733470157.090561, 11.978490, -30.883106, 2.785953, -0.473425, 0.591989, 0.143172, -26.025833, -79.602188, -649.174988
1733470157.100568, 13.256246, -30.994287, 1.344943, -0.570886, 0.620473, 0.282123, -25.406631, -79.367447, -648.592957
1733470157.110420, 13.555371, -31.189115, -1.597082, -0.327337, 0.935721, 0.490034, -25.144348, -79.279526, -648.853333
1733470157.120568, 12.381614, -29.926623, -4.869507, 0.124589, 1.544374, 0.693137, -24.617203, -79.528671, -648.079163
1733470157.130556, 11.041160, -27.935246, -6.451925, 0.653031, 2.087623, 0.930785, -24.028198, -80.061829, -646.742310
1733470157.140115, 8.946683, -25.229199, -5.874174, 1.140976, 2.420487, 1.043791, -23.762695, -80.578857, -646.185364
1733470157.150571, 5.784391, -22.756887, -3.463213, 1.468509, 2.314337, 0.924568, -23.329605, -81.313522, -645.040894
1733470157.160564, 3.093757, -20.698771, -0.085892, 1.614809, 1.681238, 0.643128, -22.975342, -82.150848, -643.871277
1733470157.170554, 1.150414, -18.105851, 2.997989, 1.615347, 0.658263, 0.235955, -23.040710, -82.350418, -643.016174
1733470157.180552, -0.241515, -15.340997, 5.137059, 1.466677, -0.466725, -0.215631, -22.823746, -82.815689, -642.030884
1733470157.190621, -0.733972, -12.337471, 5.578939, 1.198291, -1.363586, -0.590268, -22.405365, -83.100708, -642.052795
1733470157.200556, -0.626682, -9.104850, 4.532822, 0.883531, -1.844126, -0.824092, -22.042084, -83.144531, -642.086731
1733470157.210555, -0.492906, -5.802198, 2.769792, 0.554612, -1.902834, -0.905665, -21.844147, -83.144501, -641.766602
1733470157.220552, -0.179116, -2.621800, 1.025466, 0.236174, -1.592744, -0.811925, -21.584686, -83.151901, -641.867615
1733470157.230095, 0.450858, 0.493056, -0.427664, -0.041487, -1.027907, -0.549802, -21.612946, -83.126602, -641.870544
1733470157.240551, 0.953192, 3.116353, -1.435174, -0.270270, -0.353932, -0.190643, -21.674484, -83.269363, -642.009155
1733470157.250561, 1.067814, 4.984429, -1.630900, -0.442848, 0.196234, 0.162955, -21.919647, -83.191849, -642.435425
1733470157.260553, 0.511910, 5.746383, -0.687286, -0.613007, 0.359264, 0.365809, -22.180237, -83.105545, -642.770874
1733470157.270551, -0.363320, 5.513248, 0.685640, -0.827791, 0.199252, 0.402726, -22.307724, -83.131317, -642.824402
1733470157.280565, -1.065420, 5.187636, 1.446846, -1.042253, -0.137536, 0.327446, -22.338562, -82.934937, -643.028015
1733470157.290552, -1.527950, 5.130325, 1.690755, -1.207351, -0.517081, 0.211796, -22.449844, -82.488541, -643.854553
1733470157.300561, -1.725621, 5.254225, 1.423951, -1.297730, -0.861849, 0.112024, -22.659515, -82.173187, -644.703735
1733470157.310574, -1.756147, 5.396979, 0.812831, -1.312397, -1.095824, 0.055053, -23.101944, -81.667587, -645.684082
1733470157.320550, -1.719935, 5.379023, 0.107889, -1.272431, -1.204859, 0.033844, -23.574173, -81.490952, -646.195068
1733470157.330568, -1.665167, 5.057751, -0.443675, -1.189349, -1.212978, 0.040598, -23.636475, -81.009964, -646.755920
1733470157.340550, -1.761983, 4.549432, -0.933140, -1.079575, -1.097569, 0.053898, -24.158630, -80.650772, -647.546021
1733470157.349906, -1.946486, 3.912425, -1.470938, -0.947916, -0.846659, 0.063123, -24.262558, -80.306778, -648.307617
1733470157.360605, -1.946935, 3.267786, -1.832163, -0.822680, -0.478269, 0.035113, -24.881638, -79.971451, -647.944580
1733470157.370546, -1.844583, 2.623147, -1.840393, -0.732233, -0.147038, -0.024528, -24.757294, -79.714218, -648.642700
1733470157.380578, -1.618331, 1.967435, -1.541716, -0.679064, 0.086379, -0.103261, -24.920670, -79.416641, -648.682495
1733470157.390545, -1.065569, 1.294964, -1.111807, -0.647379, 0.212615, -0.181095, -24.762436, -79.068665, -649.504272
1733470157.400547, -0.497395, 0.640000, -0.842160, -0.605802, 0.261329, -0.244741, -24.845428, -78.732330, -649.442932
1733470157.410549, 0.080655, 0.052972, -0.839916, -0.547570, 0.293181, -0.271758, -24.616028, -78.358261, -649.597290
1733470157.420545, 0.810288, -0.667084, -0.899172, -0.494518, 0.296978, -0.248831, -24.372559, -78.111023, -649.901611
1733470157.430544, 1.533486, -1.412280, -0.805948, -0.452163, 0.191419, -0.150248, -24.678741, -77.871979, -649.856689
1733470157.440541, 2.407519, -2.147599, -0.446519, -0.428415, 0.041795, 0.003360, -24.815567, -77.646912, -650.087769
1733470157.450550, 3.450494, -3.527856, -0.273238, -0.458714, -0.162360, 0.192804, -25.364456, -77.368301, -650.346069
1733470157.460581, 4.572027, -5.407304, -0.260669, -0.528379, -0.423892, 0.412451, -25.364456, -77.368301, -650.346069
1733470157.470543, 5.562778, -7.646332, -0.820313, -0.584267, -0.632722, 0.592967, -25.769608, -77.201599, -650.799683
1733470157.480543, 6.019771, -10.436026, -2.030433, -0.516595, -0.729607, 0.707139, -26.674316, -77.005203, -651.280396
1733470157.490605, 6.042067, -13.387029, -2.958186, -0.374163, -0.701217, 0.731214, -27.437408, -77.100937, -651.282471
1733470157.500554, 5.845593, -16.471509, -3.191920, -0.301596, -0.610883, 0.678374, -28.258835, -76.694153, -652.208069
1733470157.510560, 6.845023, -20.097228, -2.678962, -0.316446, -0.644635, 0.618204, -28.537552, -76.529922, -652.556641
1733470157.520553, 7.838616, -24.361301, -2.589179, -0.329161, -0.602967, 0.518020, -29.223190, -76.850113, -652.988586
1733470157.530548, 8.400655, -29.223027, -3.521871, -0.380459, -0.340904, 0.238085, -30.055923, -76.660095, -653.705444
1733470157.540791, 8.924836, -33.358262, -4.146308, -0.567156, -0.011026, -0.121006, -30.266037, -76.361160, -653.556641
1733470157.550592, 9.901071, -35.219904, -3.920056, -0.869526, 0.248044, -0.417417, -30.171906, -75.971985, -653.992798
1733470157.560567, 11.374553, -36.251655, -3.889979, -1.155028, 0.324018, -0.667587, -29.731659, -75.559525, -654.568054
1733470157.570680, 12.955474, -36.415059, -4.383484, -1.283260, 0.212496, -0.747174, -29.348572, -75.113693, -654.834473
1733470157.580683, 14.931139, -33.729064, -6.785018, -1.210572, 0.175181, -0.632985, -28.737732, -74.623947, -655.170105
1733470157.590623, 14.931139, -33.729064, -6.785018, -1.072417, 0.229162, -0.402870, -28.244827, -74.105286, -654.459473
1733470157.600700, 14.324509, -30.899716, -7.189788, -0.970996, 0.375482, -0.110619, -27.984955, -73.718979, -655.189087
1733470157.610560, 12.150274, -24.279150, -8.382699, -0.851948, 0.608841, 0.227660, -27.377518, -73.174774, -655.417725
1733470157.620546, 10.358962, -20.424635, -9.112332, -0.630575, 0.944145, 0.651437, -26.714828, -73.111969, -655.105164
1733470157.630546, 7.694665, -16.875979, -9.539248, -0.301625, 1.407770, 1.098840, -26.187012, -73.143738, -655.136292
1733470157.640538, 4.354604, -13.377003, -8.876802, 0.075676, 1.976155, 1.436064, -25.566193, -73.384323, -655.093811
1733470157.650543, 0.677858, -10.608259, -6.966977, 0.408613, 2.489437, 1.571895, -25.259109, -74.002411, -654.846680
1733470157.660545, -2.151340, -8.546402, -4.254047, 0.657560, 2.688141, 1.391254, -24.772049, -74.494568, -653.944824
1733470157.670543, -3.744082, -5.896171, -1.883788, 0.822041, 2.458717, 0.973346, -24.238068, -75.230179, -653.498047
1733470157.680545, -4.626795, -3.167678, 0.082151, 0.952811, 1.862930, 0.465019, -23.709396, -75.833023, -652.692017
1733470157.690546, -4.919785, -0.748787, 1.558176, 1.073874, 0.979552, -0.082370, -23.386765, -76.381622, -651.444336
1733470157.700544, -4.719720, 1.394174, 2.354248, 1.168596, -0.062652, -0.604093, -22.715729, -76.812683, -651.390930
1733470157.710544, -4.436905, 3.276315, 2.586486, 1.202850, -1.092768, -0.995137, -22.224289, -77.015457, -651.359985
1733470157.720544, -4.007445, 4.475212, 2.206556, 1.122326, -1.933119, -1.194007, -22.251923, -77.336563, -650.643005
1733470157.730534, -3.727323, 4.940734, 1.466000, 0.894030, -2.443256, -1.243033, -22.138397, -77.562622, -650.736572
1733470157.740536, -3.552097, 5.361665, 0.688333, 0.565659, -2.634122, -1.163851, -22.492142, -77.787018, -650.499268
1733470157.750532, -3.506159, 5.836764, -0.166696, 0.191918, -2.545984, -1.006769, -22.914291, -77.581146, -650.735474
1733470157.760532, -3.419219, 6.254104, -0.982371, -0.187483, -2.238110, -0.811236, -23.258133, -77.470184, -650.782471
1733470157.770550, -3.382857, 6.439355, -1.666065, -0.504008, -1.774690, -0.588429, -23.672623, -77.152298, -651.415039
1733470157.780537, -3.478625, 6.287622, -2.229002, -0.719901, -1.240543, -0.368151, -23.874329, -77.021515, -652.025024
1733470157.790539, -3.608810, 5.853374, -2.726248, -0.806336, -0.683522, -0.179981, -24.213074, -76.585068, -651.696960
1733470157.800548, -3.510349, 5.264401, -3.023129, -0.782504, -0.118274, -0.051286, -24.300003, -76.432007, -652.578125
1733470157.810533, -3.231125, 4.748300, -2.868553, -0.672022, 0.402656, 0.028735, -24.509216, -76.171555, -652.847107
1733470157.819895, -2.829797, 4.339341, -2.319084, -0.518129, 0.788271, 0.101209, -24.423676, -75.860809, -652.377625
1733470157.830549, -2.552818, 3.930980, -1.653944, -0.365065, 1.027811, 0.172330, -24.252487, -75.810806, -652.895020
1733470157.840537, -2.406173, 3.281104, -0.811335, -0.242825, 1.137378, 0.205512, -24.396301, -75.523148, -652.963684
1733470157.850539, -2.024896, 2.462436, 0.015562, -0.155077, 1.070060, 0.191303, -24.043869, -75.555069, -652.934631
1733470157.860531, -1.599626, 1.869123, 0.602890, -0.099453, 0.848141, 0.154670, -23.832993, -75.538208, -653.285645
1733470157.870530, -1.187075, 1.334019, 0.808043, -0.070500, 0.556472, 0.100719, -23.674103, -75.475937, -652.963745
1733470157.880529, -0.546925, 0.386813, 0.566079, -0.040275, 0.298236, 0.052656, -23.902008, -75.376236, -653.452087
1733470157.890535, 0.339378, -1.198148, 0.239570, 0.013299, 0.098210, -0.008675, -24.003479, -75.322540, -652.360291
1733470157.900017, 1.253065, -2.880973, -0.040402, 0.070786, -0.154905, -0.058420, -23.988983, -75.224243, -653.283630
