SamplingTime, AccelerationX, AccelerationY, AccelerationZ, GyroX, GyroY, GyroZ, MagneticFieldX, MagneticFieldY, MagneticFieldZ
1733469609.274692, -4.962731, -7.334487, -7.956680, 0.314650, 0.158886, 0.327757, -75.915176, -44.920349, -640.511719
1733469609.284684, -4.931158, -7.638700, -8.128614, 0.451308, 0.083625, 0.444206, -75.840042, -44.838791, -640.372192
1733469609.294682, -5.066580, -7.836222, -8.399608, 0.509511, 0.140706, 0.545848, -75.758438, -44.680435, -640.765076
1733469609.304718, -5.443816, -8.049007, -8.663868, 0.551264, 0.236290, 0.593758, -76.054581, -44.536133, -640.599121
1733469609.313892, -6.879738, -8.742427, -9.355343, 0.606078, 0.383469, 0.479726, -75.896118, -44.613647, -641.216492
1733469609.324714, -7.918972, -9.335740, -9.743054, 0.757531, 0.368058, 0.322575, -75.867401, -44.651962, -640.881470
1733469609.334706, -8.012046, -8.946533, -9.783007, 1.020692, 0.234466, 0.180750, -75.863892, -44.917603, -640.196472
1733469609.344700, -8.018780, -8.784775, -9.621399, 1.335262, 0.019526, 0.058898, -75.902939, -45.166779, -640.716370
1733469609.354696, -7.842507, -8.710854, -9.186252, 1.628762, -0.234500, -0.032064, -75.764313, -45.918716, -639.977844
1733469609.364696, -7.781155, -8.464101, -8.591144, 1.868240, -0.448181, -0.096713, -75.960938, -46.348190, -640.391724
1733469609.374704, -7.976432, -8.494029, -8.106168, 2.048965, -0.551675, -0.179421, -76.022003, -47.030243, -639.444275
1733469609.384697, -8.049156, -8.318205, -7.676559, 2.207883, -0.537017, -0.234268, -76.151276, -47.892258, -638.805359
1733469609.394692, -7.950994, -7.978677, -6.763919, 2.304455, -0.485087, -0.266555, -76.264206, -48.412521, -639.146240
1733469609.404693, -8.113650, -7.899519, -5.227141, 2.276151, -0.506216, -0.346446, -76.442169, -49.265503, -637.841370
1733469609.414695, -8.403498, -7.991546, -3.654599, 2.147532, -0.657510, -0.503956, -76.871597, -49.937546, -637.884155
1733469609.424692, -8.578275, -7.855376, -2.875287, 2.052281, -0.856147, -0.682882, -76.763962, -51.018066, -637.482666
1733469609.434685, -8.520216, -7.649474, -2.385672, 2.013447, -1.095091, -0.849134, -76.910278, -51.863068, -636.044067
1733469609.444681, -8.473379, -7.414094, -1.668759, 1.997932, -1.387091, -1.012945, -77.094513, -52.576981, -635.758301
1733469609.454730, -8.625111, -7.553407, -1.120337, 1.954701, -1.675535, -1.218946, -77.228790, -53.421768, -634.041626
1733469609.464678, -8.527248, -7.552509, -0.935385, 1.854584, -1.875410, -1.381098, -77.230515, -54.498840, -633.430115
1733469609.474691, -7.999477, -6.995558, -0.902614, 1.726816, -1.920372, -1.458050, -77.526016, -55.607346, -632.186340
1733469609.484678, -7.904457, -6.527192, -0.703446, 1.599418, -1.788941, -1.507950, -77.378967, -56.645096, -631.461304
1733469609.494324, -6.795193, -6.210709, -1.201291, 1.464724, -1.418828, -1.458331, -77.428162, -57.646271, -629.772095
1733469609.504531, -6.413468, -6.023063, -0.279673, 1.269726, -1.174433, -1.424831, -77.706848, -58.275055, -630.136169
1733469609.514690, -6.121225, -5.911882, 0.808492, 1.077651, -0.990748, -1.409958, -77.456116, -59.429520, -629.565186
1733469609.524695, -5.605275, -5.918018, 1.644218, 0.879083, -0.875499, -1.396817, -77.504608, -60.043091, -629.079712
1733469609.534677, -5.180603, -6.000767, 2.799869, 0.661331, -0.997426, -1.399733, -77.478912, -60.938599, -627.763306
1733469609.544701, -4.893599, -5.838560, 3.943998, 0.445485, -1.262005, -1.423499, -77.222549, -61.568344, -627.889038
1733469609.554682, -4.530727, -5.512799, 4.664653, 0.199841, -1.574378, -1.447914, -77.416534, -62.097641, -626.341003
1733469609.564688, -4.214244, -5.004630, 5.111621, -0.075054, -1.836877, -1.442422, -77.184525, -62.799637, -626.034912
1733469609.573984, -3.725527, -4.466533, 5.086930, -0.377896, -1.972701, -1.389993, -77.052475, -63.352829, -625.354675
1733469609.584699, -3.181595, -3.966294, 5.167884, -0.703638, -2.072710, -1.306860, -76.988129, -64.037567, -624.007507
1733469609.594699, -2.835483, -3.548207, 5.170129, -1.006840, -2.157971, -1.232498, -77.147552, -64.449005, -624.328308
1733469609.604679, -2.457648, -3.362806, 4.707599, -1.258610, -2.141465, -1.156372, -77.099396, -64.935547, -622.600647
1733469609.614687, -1.759738, -3.249530, 3.446154, -1.360122, -2.050675, -1.037990, -77.010132, -65.119995, -622.744019
1733469609.624669, -1.202488, -3.292775, 1.976114, -1.384733, -2.005750, -0.957360, -77.017700, -65.691971, -622.576355
1733469609.634688, -1.123928, -3.271228, 2.428319, -1.368543, -1.929158, -0.883020, -76.873108, -66.000153, -621.356201
1733469609.644683, -0.638953, -2.797475, 2.275838, -1.403359, -1.948808, -0.820575, -77.071365, -66.199509, -621.626404
1733469609.654679, -0.202310, -2.337938, 2.586636, -1.453206, -2.028723, -0.737412, -77.036072, -66.392044, -620.414185
1733469609.664683, 0.405069, -2.167950, 2.676717, -1.521048, -2.124820, -0.639330, -76.927826, -66.567871, -620.104248
1733469609.674628, 0.863409, -1.824232, 2.795380, -1.628561, -2.240360, -0.522820, -76.884598, -66.749466, -620.061890
1733469609.684682, 1.303643, -1.316512, 2.907908, -1.783818, -2.344302, -0.379047, -77.092712, -66.722183, -619.004395
1733469609.694685, 1.803881, -0.617854, 2.718915, -1.975113, -2.387314, -0.187709, -77.116730, -66.784241, -619.145569
1733469609.704679, 2.318485, 0.125845, 2.544587, -2.207667, -2.400074, 0.050301, -77.287262, -66.614929, -618.244141
1733469609.714683, 2.837877, 0.770634, 2.165106, -2.477709, -2.379115, 0.332272, -77.652679, -66.268036, -618.047485
1733469609.724671, 3.212121, 1.435623, 1.662474, -2.749261, -2.343012, 0.656669, -77.995239, -65.661163, -617.975891
1733469609.734683, 3.581277, 2.157026, 1.027412, -2.980738, -2.338974, 1.020790, -78.112778, -65.211227, -617.225342
1733469609.744676, 4.103961, 2.788048, 0.166397, -3.107354, -2.399566, 1.428321, -78.473175, -64.230194, -617.627930
1733469609.754675, 4.424784, 3.390190, -0.937180, -3.093735, -2.505498, 1.867842, -79.009689, -63.108704, -616.134583
1733469609.764673, 4.301632, 4.459799, -1.834856, -2.970025, -2.664314, 2.336376, -79.219666, -61.994110, -615.787720
1733469609.774677, 4.225167, 5.702539, -2.589030, -2.771823, -2.860529, 2.872100, -80.012756, -60.347488, -615.604126
1733469609.784677, 4.343830, 6.473023, -3.237858, -2.570320, -3.069369, 3.479885, -80.594299, -58.456177, -613.906555
1733469609.794343, 4.305074, 7.210737, -3.584120, -2.430764, -3.315554, 4.143763, -81.164398, -55.988724, -613.476318
1733469609.804672, 3.648614, 8.293664, -3.737349, -2.326372, -3.595460, 4.816828, -81.970871, -53.426743, -610.810120
1733469609.814683, 2.450615, 9.392004, -4.000861, -2.186592, -3.905872, 5.461257, -81.709976, -50.691101, -609.000122
1733469609.824667, 0.624138, 10.866384, -4.444985, -1.986781, -4.177404, 6.057826, -81.336136, -47.403244, -607.949829
1733469609.834739, -1.244536, 12.151322, -5.422567, -1.680697, -4.301270, 6.660404, -80.910034, -43.861313, -605.381042
1733469609.844663, -3.302502, 13.272257, -6.898742, -1.289992, -4.162837, 7.335476, -79.980911, -39.974472, -603.712158
1733469609.854661, -5.816264, 14.419079, -8.836699, -0.992759, -3.627996, 8.003888, -79.593597, -36.044022, -602.767944
1733469609.864732, -9.501689, 15.060875, -10.604967, -0.937662, -2.769227, 8.462433, -78.654648, -31.839874, -600.698853
1733469609.874683, -14.459033, 14.696508, -12.016199, -0.980176, -2.002655, 8.465184, -77.431351, -28.105591, -600.562500
1733469609.884664, -20.023157, 13.408277, -13.085958, -0.906990, -1.477271, 7.915549, -76.240036, -24.900620, -599.988525
1733469609.894681, -24.538771, 11.697770, -14.716409, -0.685008, -1.200195, 7.012352, -74.887970, -22.199066, -598.096863
1733469609.904671, -27.203219, 11.161319, -15.579519, -0.332426, -1.444518, 5.930229, -73.304337, -19.893677, -598.093384
1733469609.914662, -27.592276, 11.445780, -16.314539, 0.250266, -2.112665, 4.964849, -71.539398, -17.679565, -596.746826
1733469609.924661, -26.672753, 13.031340, -18.096274, 1.129047, -2.850510, 4.254638, -69.385468, -15.837387, -595.012207
1733469609.934671, -25.668086, 15.202732, -20.331112, 2.305946, -3.401291, 3.856536, -67.239273, -13.688568, -595.087463
1733469609.944707, -24.735395, 16.816872, -22.539463, 3.767104, -3.558270, 3.782855, -65.569260, -11.282104, -595.210571
1733469609.954201, -24.950424, 17.964144, -24.038982, 5.449803, -3.181868, 3.859113, -63.870422, -8.748123, -596.368774
1733469609.964662, -26.906338, 18.590527, -23.427862, 7.078347, -2.490660, 3.861415, -62.128738, -6.333618, -597.544739
1733469609.974664, -29.427282, 18.574665, -20.190452, 8.437594, -1.679064, 3.788981, -60.661194, -3.804703, -601.430786
1733469609.984663, -32.297331, 18.913295, -16.009278, 9.473042, -0.630591, 3.618895, -60.021606, -1.696381, -605.205261
1733469609.994662, -35.789724, 19.229928, -10.302549, 9.963653, 0.327014, 3.200993, -59.460297, -0.168015, -608.991028
1733469610.004676, -39.288849, 18.954446, -1.947234, 9.747877, 0.570980, 2.421512, -58.412720, 0.377457, -612.149292
1733469610.014663, -41.255836, 17.535133, 5.436933, 9.104857, 0.347683, 1.445483, -58.381821, 0.595825, -616.233154
1733469610.024660, -41.554811, 15.387833, 9.163956, 8.391561, 0.094942, 0.500155, -58.844147, 0.177231, -619.114014
1733469610.034731, -41.455602, 12.834866, 11.326070, 7.612007, -0.218487, -0.465157, -59.373123, -0.179825, -621.503052
1733469610.044667, -40.781484, 10.225785, 12.826636, 6.792427, -0.518222, -1.480263, -60.619568, -1.541534, -623.744995
1733469610.054663, -38.981494, 9.042750, 13.065308, 6.031360, -0.777798, -2.373381, -61.937134, -2.971085, -624.677917
1733469610.064676, -35.719693, 9.570671, 12.880655, 5.405169, -0.923918, -3.065722, -63.712875, -4.461197, -626.839233
1733469610.074670, -32.925510, 10.157550, 11.896938, 4.908827, -0.865758, -3.558917, -65.279495, -6.422394, -628.116089
1733469610.084715, -30.528016, 10.596587, 10.930877, 4.485227, -0.564810, -3.965109, -67.084091, -8.503784, -629.801941
1733469610.094695, -28.589461, 10.699837, 11.014674, 4.076580, -0.268357, -4.330314, -68.927353, -10.882843, -630.796814
1733469610.104785, -26.541371, 10.559626, 11.401188, 3.705401, -0.050986, -4.675722, -70.654358, -13.510391, -632.143982
1733469610.114698, -24.294862, 10.180295, 11.990910, 3.335728, -0.012119, -5.022682, -72.607315, -16.147430, -632.436035
1733469610.123889, -22.010794, 9.708937, 12.555642, 2.957660, -0.061589, -5.366756, -74.082550, -18.852509, -633.175659
1733469610.134663, -17.392678, 9.033323, 13.201179, 2.072876, -0.240417, -5.906040, -75.610764, -21.828445, -633.766724
1733469610.144659, -14.793622, 9.032275, 13.459753, 1.516488, -0.318585, -6.038795, -76.804108, -24.741013, -633.374268
1733469610.154655, -12.232724, 9.008932, 13.533075, 0.896579, -0.368067, -6.069871, -78.050323, -27.717865, -633.317261
1733469610.164660, -9.795577, 9.006238, 13.476363, 0.254661, -0.440164, -5.998837, -79.086456, -30.574829, -633.281250
1733469610.174198, -9.795577, 9.006238, 13.476363, 0.254661, -0.440164, -5.998837, -79.086456, -30.574829, -633.281250
1733469610.184660, -5.856068, 8.528745, 12.452542, -0.857500, -0.776508, -5.692631, -80.593964, -35.658417, -632.814697
1733469610.194658, -4.546888, 8.002769, 11.479449, -1.265781, -0.994595, -5.540452, -81.265381, -38.203156, -632.280212
1733469610.204661, -3.563320, 7.225551, 10.308535, -1.550758, -1.175003, -5.436038, -81.719574, -40.781265, -631.837646
1733469610.214652, -2.682404, 6.598420, 9.340828, -1.757418, -1.344094, -5.337849, -82.135178, -43.152496, -631.328979
1733469610.224661, -1.919701, 6.376208, 8.711003, -1.940244, -1.488898, -5.243052, -82.192780, -45.185608, -630.395752
1733469610.234660, -1.282993, 6.506842, 8.317457, -2.144817, -1.626940, -5.131673, -82.101852, -47.452805, -630.071899
1733469610.244659, -0.600196, 6.727258, 8.045116, -2.396050, -1.741915, -4.997053, -82.010071, -49.553955, -629.247803
1733469610.254649, 0.108188, 6.927024, 7.526023, -2.675571, -1.800633, -4.820722, -81.787552, -51.629532, -628.074463
1733469610.264659, 0.995240, 7.267150, 6.944980, -2.938164, -1.870605, -4.589927, -81.787552, -51.629532, -628.074463
1733469610.274663, 1.988235, 7.507319, 6.314258, -3.139537, -1.944134, -4.319896, -81.775635, -53.263184, -628.250732
1733469610.284668, 2.846257, 7.511957, 5.499631, -3.298901, -2.006760, -4.016451, -81.326324, -54.893082, -627.778381
1733469610.294659, 3.497330, 7.431752, 4.335151, -3.393844, -2.004333, -3.665309, -80.901352, -56.651306, -627.799438
1733469610.304650, 4.014627, 7.162554, 2.941277, -3.377805, -1.930434, -3.290924, -80.807022, -57.966766, -627.034241
1733469610.314652, 4.572177, 6.662764, 1.803283, -3.263044, -1.822358, -2.909082, -80.574112, -59.130646, -626.859558
1733469610.324672, 5.352986, 6.245874, 1.201740, -3.102973, -1.803211, -2.510641, -80.329788, -60.126831, -626.669739
1733469610.334649, 5.873276, 5.889138, 1.135300, -2.931860, -1.915954, -2.111522, -79.932953, -60.806427, -626.553467
1733469610.344649, 6.109853, 5.564574, 1.190218, -2.771457, -2.144357, -1.736281, -79.978836, -61.421478, -626.205200
1733469610.354649, 6.213552, 5.229685, 1.071256, -2.629164, -2.375905, -1.372479, -79.858627, -61.974945, -626.148804
1733469610.364650, 6.345981, 5.000739, 0.834529, -2.507382, -2.609524, -0.982340, -79.567200, -62.333755, -625.629395
1733469610.374124, 6.477513, 4.865916, 0.745046, -2.417648, -2.814968, -0.562582, -79.662155, -62.395966, -624.611938
1733469610.384655, 6.635231, 4.702511, 0.716315, -2.436813, -2.954092, -0.108173, -79.789505, -62.397842, -624.136230
1733469610.394656, 6.598270, 4.794987, 0.836325, -2.594634, -3.027017, 0.370155, -79.833694, -62.099213, -623.711914
1733469610.404655, 6.495170, 5.264700, 0.775871, -2.885058, -2.974654, 0.878714, -80.055679, -61.641678, -622.717163
1733469610.414650, 6.261586, 5.939565, 0.484975, -3.246196, -2.891425, 1.415236, -80.505768, -60.873123, -622.399292
1733469610.424649, 5.966799, 6.848315, 0.242114, -3.596836, -2.888668, 1.968569, -81.006165, -59.847275, -621.446167
1733469610.434650, 5.512649, 7.691971, -0.190040, -3.894043, -3.049983, 2.497797, -80.908859, -58.576355, -620.963806
1733469610.444646, 4.947019, 8.639028, -0.664690, -4.102457, -3.412688, 3.061180, -82.037354, -56.946518, -620.210938
1733469610.454653, 4.382586, 10.183288, -1.749713, -4.192390, -3.815495, 3.722852, -82.233887, -55.197296, -618.968811
1733469610.464655, 3.632602, 12.236016, -3.414880, -4.175299, -4.164706, 4.491477, -82.592773, -52.907440, -617.494324
1733469610.474645, 2.462436, 14.386459, -5.471050, -4.019067, -4.397956, 5.332697, -83.050690, -50.288132, -616.120239
1733469610.484647, 0.586280, 16.101305, -7.938125, -3.699125, -4.470273, 6.100248, -82.873398, -47.280869, -614.057556
1733469610.494644, -2.139518, 16.732926, -10.368689, -3.244627, -4.419493, 6.664775, -83.032501, -44.112747, -612.051636
1733469610.504644, -5.355829, 16.681151, -12.667272, -2.674901, -4.214726, 7.041961, -82.772583, -40.504517, -610.045898
1733469610.514655, -8.702324, 16.726342, -15.199589, -2.079889, -3.664124, 7.279434, -81.733185, -36.854767, -607.910156
1733469610.524646, -11.632678, 16.504429, -17.572393, -1.657994, -2.734215, 7.367756, -81.081467, -33.214462, -606.456787
1733469610.534649, -14.208988, 15.730653, -19.151219, -1.469150, -1.682186, 7.213709, -80.099152, -29.627197, -605.303833
1733469610.544641, -16.654665, 15.471630, -20.095881, -1.277539, -0.828030, 6.886448, -78.995575, -26.296967, -603.685730
1733469610.554651, -18.021156, 16.227450, -20.841974, -0.906846, -0.409879, 6.556326, -77.809464, -23.362991, -603.660706
1733469610.564662, -18.700960, 17.357663, -21.215470, -0.297974, -0.419399, 6.274206, -76.298050, -20.440125, -603.416016
1733469610.574661, -18.965968, 18.402732, -21.268741, 0.456645, -0.717394, 6.076456, -74.543549, -17.762466, -603.038391
1733469610.584645, -19.072659, 19.095704, -20.918439, 1.223875, -1.186806, 6.022077, -72.745560, -15.001831, -602.578979
1733469610.594694, -19.664626, 18.808549, -21.014507, 2.017545, -1.605926, 6.029206, -70.727203, -12.429321, -602.741150
1733469610.604640, -21.871331, 17.674745, -21.319019, 2.784582, -1.952260, 5.856501, -68.547134, -9.905304, -602.897461
1733469610.614670, -25.204509, 16.403723, -20.861727, 3.572506, -2.319415, 5.425159, -66.416870, -7.436523, -602.516785
1733469610.624636, -28.197710, 15.312715, -20.827011, 4.514640, -2.453107, 4.919594, -63.828735, -5.100479, -602.791626
1733469610.634717, -30.866646, 14.733169, -20.269461, 5.463661, -2.228753, 4.416899, -61.587112, -3.108444, -603.536011
1733469610.644649, -33.656789, 14.844499, -18.002152, 6.145111, -1.640817, 3.950597, -59.259659, -1.085419, -604.626831
1733469610.654647, -36.202723, 14.800057, -15.106515, 6.440922, -0.747067, 3.467444, -58.058029, 0.516235, -607.333008
1733469610.664637, -38.689401, 14.127137, -11.283274, 6.329872, -0.114501, 2.762589, -57.054367, 1.680649, -609.735107
1733469610.674654, -40.208372, 12.333431, -6.862979, 5.894917, -0.119580, 1.725924, -56.684036, 2.451874, -612.341064
1733469610.684658, -39.252936, 10.484209, -4.389769, 5.557125, -0.571429, 0.718833, -56.363464, 2.712509, -614.287109
1733469610.694652, -36.793642, 10.383952, -4.695329, 5.619355, -0.977233, -0.034899, -56.073654, 2.722992, -616.145386
1733469610.704651, -34.716523, 11.445032, -5.347000, 5.912175, -1.067087, -0.524063, -55.688141, 2.581329, -618.605225
1733469610.714648, -33.599927, 12.301558, -4.714183, 6.169688, -0.853949, -0.903350, -56.414474, 2.048630, -620.783813
1733469610.724653, -33.325491, 11.979238, -2.842366, 6.197552, -0.543155, -1.390229, -57.387299, 1.459244, -622.988464
1733469610.734655, -32.847699, 10.983400, -0.263063, 6.032115, -0.386952, -2.011683, -58.432785, 0.243698, -625.645935
1733469610.744652, -31.566501, 10.712556, 1.675343, 5.842675, -0.291704, -2.615531, -59.364456, -1.422104, -627.024536
1733469610.754639, -29.720123, 11.137377, 3.250877, 5.634022, -0.284920, -3.159406, -60.976013, -2.725204, -629.755859
1733469610.764645, -27.458800, 11.141717, 5.071069, 5.348522, -0.344493, -3.624107, -62.676880, -4.848587, -631.576477
1733469610.774636, -25.384822, 10.835857, 6.374113, 4.986534, -0.384662, -4.041058, -64.439575, -6.800110, -633.274536
1733469610.784657, -23.439833, 10.366145, 7.039103, 4.607064, -0.347182, -4.408294, -66.098801, -9.349258, -634.660156
1733469610.794640, -21.483620, 10.180594, 7.715764, 4.193544, -0.291201, -4.728576, -67.835739, -12.065887, -635.809692
1733469610.804698, -19.227085, 9.938780, 8.390779, 3.749094, -0.264701, -4.973197, -69.344772, -14.590637, -636.773865
1733469610.814636, -17.009007, 9.505280, 8.790311, 3.305075, -0.225987, -5.156524, -71.123322, -17.230392, -637.571960
1733469610.824633, -15.177144, 9.282320, 8.977957, 2.848461, -0.183105, -5.294963, -72.731766, -20.310425, -638.675293
1733469610.834656, -13.468282, 8.920496, 9.160216, 2.387570, -0.167363, -5.417218, -73.854965, -23.087814, -638.681702
1733469610.844647, -11.930157, 8.349778, 9.246706, 1.948177, -0.213271, -5.525866, -75.077774, -25.914337, -638.136230
1733469610.854640, -10.449344, 7.804349, 9.241618, 1.548883, -0.302740, -5.632488, -76.010559, -28.628494, -639.059937
1733469610.864647, -8.989629, 7.343465, 9.385121, 1.200355, -0.507740, -5.704456, -76.783844, -31.399902, -638.912354
1733469610.874652, -7.405864, 7.109731, 9.406220, 0.897879, -0.769976, -5.696620, -77.612915, -34.339508, -638.849121
1733469610.884644, -5.744139, 7.209240, 9.266608, 0.602757, -1.034336, -5.581707, -78.171951, -36.994537, -638.453857
1733469610.894642, -3.996222, 7.280468, 9.115474, 0.316651, -1.285692, -5.384688, -78.829208, -39.812256, -637.863892
1733469610.904631, -2.727145, 6.927323, 8.855853, 0.021410, -1.484529, -5.151992, -79.169937, -42.229050, -637.040527
1733469610.914634, -1.995866, 6.619968, 8.296208, -0.296685, -1.549347, -4.911886, -79.670685, -44.294205, -636.003540
1733469610.924629, -1.497723, 6.392967, 7.703194, -0.639925, -1.529383, -4.702563, -79.963486, -46.502472, -635.534302
1733469610.934688, -1.087267, 6.063166, 7.290344, -0.990237, -1.470593, -4.540810, -79.939362, -48.538635, -635.258179
1733469610.944626, -0.729783, 5.759551, 6.910713, -1.336556, -1.434528, -4.395593, -79.909241, -50.296768, -633.998596
1733469610.954623, -0.142305, 5.489007, 6.420800, -1.631693, -1.469194, -4.225493, -79.719330, -51.985886, -634.282532
1733469610.964645, 0.526275, 5.324704, 6.014833, -1.866772, -1.609356, -4.031150, -79.882874, -53.463440, -633.833435
1733469610.974657, 1.083825, 5.132869, 5.631910, -2.041738, -1.844117, -3.826015, -79.620056, -54.954529, -633.354309
1733469610.984675, 1.604564, 4.897938, 5.037251, -2.161783, -2.115028, -3.597703, -79.411789, -56.233109, -632.530273
1733469610.994633, 1.965939, 4.569633, 4.338742, -2.224312, -2.383286, -3.367217, -79.176636, -57.657196, -632.053406
1733469611.004634, 2.136526, 4.098873, 3.544017, -2.240988, -2.604439, -3.149271, -79.455963, -58.555130, -631.637024
1733469611.014694, 2.289455, 3.573047, 2.816928, -2.236916, -2.768295, -2.929992, -79.105286, -59.542130, -630.826294
1733469611.024633, 2.632275, 3.111265, 1.969081, -2.235389, -2.801809, -2.696687, -79.038971, -60.625076, -630.013489
1733469611.034636, 3.217957, 2.681207, 1.208324, -2.236354, -2.765395, -2.428864, -78.677200, -61.328033, -629.277771
1733469611.044641, 3.894768, 2.402132, 0.688034, -2.214564, -2.740120, -2.110264, -78.549225, -62.068542, -627.914917
1733469611.054633, 4.472668, 2.197727, 0.281019, -2.161575, -2.723733, -1.761808, -78.861511, -62.498215, -627.725586
1733469611.064641, 4.962731, 1.910274, -0.011522, -2.120713, -2.716602, -1.403154, -78.969955, -62.824966, -627.211121
1733469611.074629, 5.297321, 1.585410, 0.004190, -2.138939, -2.749595, -1.038942, -78.697968, -62.946426, -626.505798
1733469611.084625, 5.568614, 1.414674, 0.067786, -2.246235, -2.787918, -0.648966, -78.953644, -63.038834, -625.877991
1733469611.094633, 5.719748, 1.695843, -0.025289, -2.445383, -2.794164, -0.224791, -78.964706, -62.901779, -625.197510
1733469611.104625, 5.707178, 2.367267, -0.138265, -2.713435, -2.821607, 0.230983, -79.571228, -62.376877, -624.277283
1733469611.114619, 5.610961, 3.040786, -0.418836, -2.996710, -2.876037, 0.696384, -79.846008, -61.770584, -623.832581
1733469611.124629, 5.298069, 3.825485, -1.034445, -3.252873, -2.944300, 1.144901, -80.185089, -61.004745, -623.265381
1733469611.134638, 4.895245, 4.692486, -1.935263, -3.435629, -3.091654, 1.577657, -80.670807, -59.986557, -622.844849
1733469611.144629, 4.574870, 5.609614, -3.158700, -3.472469, -3.387453, 2.077898, -81.278351, -58.665359, -620.983459
1733469611.154634, 4.159476, 6.405387, -4.601656, -3.308151, -3.777310, 2.644474, -81.779846, -56.991882, -620.631348
1733469611.164621, 3.728819, 7.013664, -6.230162, -3.003067, -4.145041, 3.282187, -81.997986, -55.316513, -618.990234
1733469611.174685, 3.002329, 7.968053, -7.641843, -2.628029, -4.471683, 3.960399, -82.502029, -52.966339, -617.169983
1733469611.184622, 1.906682, 9.027786, -8.757241, -2.220535, -4.729748, 4.641496, -83.043427, -50.515717, -615.062256
1733469611.194619, 0.385167, 9.953893, -9.961076, -1.775771, -4.868241, 5.310040, -82.976944, -47.634552, -612.526489
1733469611.204675, -1.490540, 10.859799, -11.382184, -1.208979, -4.876167, 5.924472, -83.062286, -44.538788, -610.580261
1733469611.214620, -3.735404, 11.314099, -12.656498, -0.504522, -4.700832, 6.445297, -82.281082, -41.348816, -608.493774
1733469611.224618, -6.422296, 11.636868, -13.553276, 0.162216, -4.218339, 6.858739, -81.967407, -37.613312, -606.280273
1733469611.234616, -9.335740, 11.576115, -13.933356, 0.577645, -3.390754, 7.086827, -81.377731, -34.022018, -604.842590
1733469611.243702, -12.314427, 10.488848, -13.928567, 0.661913, -2.291804, 7.086827, -80.477707, -30.403488, -603.608276
1733469611.254616, -15.169961, 9.202114, -13.580061, 0.468363, -1.162824, 6.817639, -79.739380, -26.823715, -603.444885
1733469611.264618, -17.629105, 8.473080, -13.153744, 0.165559, -0.245463, 6.377506, -78.526611, -24.059357, -603.228027
1733469611.274616, -19.043330, 9.072678, -13.258790, -0.003322, 0.326690, 5.961479, -77.367081, -21.317657, -603.852661
1733469611.284666, -19.485809, 10.248380, -13.860782, 0.060027, 0.520344, 5.649787, -76.032822, -18.826965, -603.751099
1733469611.294755, -19.421016, 10.920253, -14.900464, 0.367878, 0.497724, 5.474911, -74.350418, -16.494537, -603.882446
1733469611.304538, -19.611953, 11.293449, -16.123751, 0.847545, 0.416664, 5.381223, -73.012192, -13.980896, -604.163818
1733469611.314666, -20.507085, 11.566388, -16.862063, 1.359255, 0.272291, 5.224623, -71.647247, -11.860794, -604.393738
1733469611.324674, -21.511752, 11.455357, -16.622792, 1.862510, -0.103796, 5.024096, -69.803925, -9.790009, -605.036255
1733469611.334736, -22.957551, 11.421090, -16.201563, 2.436775, -0.607394, 4.742102, -68.264130, -7.763489, -605.439636
1733469611.344676, -25.320329, 11.176283, -16.096367, 3.029492, -1.080623, 4.281546, -66.262222, -6.088837, -605.326538
1733469611.354640, -27.338192, 10.328436, -15.932664, 3.627700, -1.420444, 3.749946, -64.775940, -4.343063, -606.656006
1733469611.364678, -28.560731, 9.713276, -16.366164, 4.338119, -1.384735, 3.265072, -63.345718, -3.108521, -607.424072
1733469611.374623, -29.559412, 9.687389, -16.159514, 4.992439, -1.035407, 2.829861, -62.452072, -1.855026, -609.013306
1733469611.384609, -30.133871, 10.143185, -14.308048, 5.454266, -0.556151, 2.471577, -61.283081, -0.720901, -610.989990
1733469611.394613, -30.714764, 10.947188, -12.077700, 5.710568, 0.029767, 2.178763, -60.317810, 0.021423, -613.228638
1733469611.404629, -31.449036, 11.303625, -9.634118, 5.837293, 0.548269, 1.890521, -59.674759, 0.545105, -615.616455
1733469611.414624, -32.482134, 11.031284, -7.093271, 5.867128, 0.914188, 1.524205, -59.461349, 0.575226, -618.874390
1733469611.424616, -33.420511, 10.008511, -4.792444, 5.765851, 1.067566, 0.971537, -59.533737, 0.480133, -621.089600
1733469611.434622, -33.762583, 8.127417, -2.632874, 5.543060, 0.952034, 0.215963, -59.544922, 0.156693, -623.417908
1733469611.444658, -32.950051, 7.184700, -0.779612, 5.243011, 0.565076, -0.629398, -59.840637, -0.589722, -624.896545
1733469611.454619, -31.156345, 7.433398, 0.259921, 5.001448, 0.082593, -1.312951, -60.368835, -1.612915, -627.289551
1733469611.464623, -28.850130, 8.777293, 0.420781, 4.925403, -0.289903, -1.759771, -61.050751, -2.849625, -628.697021
1733469611.474613, -27.163864, 9.548375, 0.551863, 4.944715, -0.531693, -2.081964, -62.162231, -4.109909, -630.361694
1733469611.484613, -26.104579, 9.336040, 1.241244, 4.912900, -0.621782, -2.381468, -63.443268, -5.576675, -631.992615
1733469611.494610, -25.662849, 9.058761, 2.237082, 4.787079, -0.577241, -2.726612, -64.784714, -7.633316, -633.572937
1733469611.504620, -25.350406, 8.363545, 3.316717, 4.582064, -0.460106, -3.165170, -66.369171, -9.525070, -634.694458
1733469611.514629, -24.502409, 7.479785, 4.537162, 4.291486, -0.360744, -3.649320, -67.889954, -11.769562, -635.676880
1733469611.524627, -23.109433, 7.175123, 5.739650, 3.939923, -0.310235, -4.121015, -69.217331, -14.085678, -636.625549
1733469611.534620, -21.290738, 7.179463, 6.790106, 3.546479, -0.335842, -4.529775, -70.675369, -16.788742, -637.421631
1733469611.544608, -19.093758, 7.172729, 7.536797, 3.147422, -0.425739, -4.845764, -72.167114, -19.404114, -637.057983
1733469611.554621, -16.860267, 7.201010, 8.018630, 2.745286, -0.557899, -5.060488, -73.578995, -22.179535, -638.062439
1733469611.564618, -14.769980, 7.121104, 8.156596, 2.353964, -0.659625, -5.203058, -74.606979, -24.997589, -638.137451
1733469611.574609, -12.911481, 6.825270, 7.985710, 1.975588, -0.703836, -5.291961, -76.191772, -27.726212, -637.697876
1733469611.584632, -11.197532, 6.529586, 7.994389, 1.595055, -0.742717, -5.318888, -77.144699, -30.098389, -637.902527
1733469611.594608, -9.651027, 6.226421, 7.973589, 1.200307, -0.791344, -5.307734, -77.942276, -33.003006, -637.528564
1733469611.604606, -8.370728, 5.808932, 7.774721, 0.823000, -0.852934, -5.284964, -78.722763, -35.553543, -637.350769
1733469611.614606, -7.303512, 5.316474, 7.442077, 0.496081, -0.928852, -5.257663, -79.352982, -38.048218, -636.878784
1733469611.624606, -6.341642, 4.866065, 7.154922, 0.230468, -1.072745, -5.214229, -79.815872, -40.335526, -636.322876
1733469611.634606, -5.505018, 4.679318, 7.038654, 0.018438, -1.312796, -5.153100, -80.074097, -42.749420, -636.019897
1733469611.644604, -4.898836, 4.738275, 6.839785, -0.182182, -1.532823, -5.088786, -80.308807, -45.106430, -633.998718
1733469611.654604, -4.232500, 5.036802, 6.464344, -0.427781, -1.634243, -4.990759, -80.181396, -47.278107, -634.287537
1733469611.664606, -3.480571, 5.321263, 5.952734, -0.735501, -1.614663, -4.838114, -80.192551, -49.332703, -633.495483
1733469611.674605, -2.523339, 5.453243, 5.438429, -1.064675, -1.510417, -4.632081, -79.978897, -51.263596, -633.073608
1733469611.684612, -1.520767, 5.524770, 5.045032, -1.368200, -1.421687, -4.377459, -79.840256, -52.910492, -632.724609
1733469611.694612, -0.524929, 5.491102, 4.757279, -1.638888, -1.401302, -4.081885, -79.802155, -54.446655, -632.193481
1733469611.704604, 0.377835, 5.233126, 4.430620, -1.859650, -1.447970, -3.781436, -79.379974, -56.080521, -632.244629
1733469611.714623, 0.974889, 4.823419, 3.972878, -2.033042, -1.538880, -3.508171, -79.518875, -57.193039, -631.539734
1733469611.724608, 1.263989, 4.437952, 3.493888, -2.152317, -1.686926, -3.258981, -79.409988, -58.288437, -631.084595
1733469611.734629, 1.523610, 3.982156, 2.917484, -2.193728, -1.848004, -3.033090, -79.247772, -59.255478, -631.126709
1733469611.744608, 1.806425, 3.585916, 2.277933, -2.164341, -2.004324, -2.822988, -79.143677, -60.163773, -629.832825
1733469611.754660, 2.331803, 3.210924, 1.835604, -2.101339, -2.184220, -2.609183, -78.844574, -60.928680, -630.126465
1733469611.764618, 2.909703, 2.677615, 1.487697, -2.023689, -2.356436, -2.368842, -78.844574, -60.928680, -630.126465
1733469611.774611, 3.446453, 2.255039, 1.066318, -1.947690, -2.439340, -2.104217, -78.816269, -61.604797, -629.262329
1733469611.784602, 4.024503, 2.086247, 0.741305, -1.899274, -2.436617, -1.797122, -78.612686, -62.204407, -628.781250
1733469611.794608, 4.516213, 2.001253, 0.638204, -1.920509, -2.340564, -1.456549, -78.628983, -62.716370, -628.528992
1733469611.804599, 4.963928, 1.999458, 0.776470, -2.052674, -2.193968, -1.097011, -78.810547, -63.060364, -627.581116
1733469611.814621, 5.323208, 2.135478, 1.053748, -2.303195, -2.041849, -0.716379, -78.665268, -63.055069, -627.576050
1733469611.824614, 5.696554, 2.237531, 1.238401, -2.639760, -1.892147, -0.325845, -78.889511, -62.750427, -627.205933
1733469611.834599, 6.123919, 2.238579, 1.176600, -3.005672, -1.801744, 0.090958, -79.048065, -62.421005, -627.226562
1733469611.844625, 6.492776, 2.355745, 0.885406, -3.324961, -1.779739, 0.534979, -79.264328, -61.774719, -626.921936
1733469611.854661, 6.645705, 2.674623, 0.434398, -3.568147, -1.803534, 0.975100, -79.999451, -61.072006, -627.227356
1733469611.864600, 6.471377, 3.076699, -0.042796, -3.765698, -1.889325, 1.403302, -80.472809, -59.950714, -627.105408
1733469611.874598, 6.143073, 3.599233, -0.393397, -3.932116, -2.063643, 1.801964, -81.080917, -58.639297, -626.935486
1733469611.884612, 5.736657, 4.330512, -0.792930, -4.073611, -2.325747, 2.197134, -81.565872, -57.320068, -626.540527
1733469611.894608, 5.410297, 5.215619, -1.495777, -4.178667, -2.654794, 2.617631, -81.899857, -55.510498, -626.430664
1733469611.904603, 4.898088, 6.172551, -2.429067, -4.225610, -3.088350, 3.033950, -82.731201, -53.461334, -625.320679
1733469611.914610, 4.339191, 7.216124, -3.755904, -4.109823, -3.617179, 3.477511, -83.271515, -51.232574, -624.176636
1733469611.924616, 3.695750, 8.466346, -5.173870, -3.778703, -4.275658, 4.008502, -83.633362, -48.923431, -622.158325
1733469611.934597, 2.595614, 10.229077, -6.745214, -3.277861, -4.874855, 4.631312, -83.871613, -46.118912, -619.553955
1733469611.944600, 1.061380, 11.931354, -8.420407, -2.703730, -5.263930, 5.309923, -83.588654, -43.335083, -617.287720
1733469611.954653, -1.014543, 13.611635, -10.195259, -2.202734, -5.257253, 6.010736, -83.192261, -39.964508, -614.261353
1733469611.964601, -3.272724, 14.640543, -12.038495, -1.842110, -4.876528, 6.630976, -82.892273, -36.449265, -611.840271
1733469611.974607, -5.963208, 14.524424, -14.537742, -1.507042, -4.051821, 7.082513, -82.027161, -32.662949, -609.289795
1733469611.984615, -9.163208, 14.768783, -17.107169, -1.232263, -2.899503, 7.311076, -81.186996, -29.048035, -608.299194
1733469611.994607, -12.602778, 14.630069, -18.885612, -1.032053, -1.652569, 7.269583, -80.087494, -25.482849, -607.187866
1733469612.004612, -15.648652, 14.209587, -20.134188, -0.866019, -0.487612, 7.009971, -78.594940, -22.276001, -607.071106
1733469612.014607, -17.709012, 14.454693, -20.783017, -0.669961, 0.416861, 6.626700, -77.358078, -19.558395, -607.459045
1733469612.024610, -18.101960, 14.678850, -20.595521, -0.392808, 0.825220, 6.276573, -75.919693, -16.493668, -607.618042
1733469612.034609, -17.249325, 15.311069, -20.113539, 0.052214, 0.835817, 6.094650, -74.374054, -14.090912, -607.364502
1733469612.044611, -16.401329, 16.674717, -19.628264, 0.619297, 0.527581, 6.062972, -72.599350, -11.591019, -607.814819
1733469612.054583, -16.296583, 17.647511, -18.183662, 1.180233, -0.108829, 6.113381, -70.681702, -8.885040, -608.106567
1733469612.064617, -17.157148, 17.524958, -16.954988, 1.683620, -0.823376, 6.108646, -68.525818, -6.646790, -608.290894
1733469612.074600, -19.534591, 16.455947, -16.630274, 2.101434, -1.365562, 5.858483, -66.500275, -4.377640, -608.425598
1733469612.084608, -22.445042, 14.880412, -16.512958, 2.476066, -1.760075, 5.367062, -63.896011, -2.567200, -608.765747
1733469612.094598, -24.600123, 13.777433, -16.973842, 3.012175, -1.873100, 4.922121, -61.425247, -0.804657, -609.125122
1733469612.104596, -26.239552, 13.995755, -17.745224, 3.709825, -1.646051, 4.603026, -59.239212, 0.886383, -610.074951
1733469612.114603, -28.340315, 13.833248, -17.111359, 4.304381, -1.148545, 4.298787, -57.297913, 2.035706, -611.536926
1733469612.124594, -30.694264, 13.083714, -15.674389, 4.645282, -0.418458, 3.902008, -55.998657, 3.213654, -613.427734
1733469612.134595, -33.248428, 11.804911, -13.493421, 4.606976, 0.280025, 3.218856, -54.971176, 3.932114, -614.918335
1733469612.144608, -34.397795, 10.259902, -10.954221, 4.353140, 0.630195, 2.399820, -54.137772, 4.148254, -616.660278
1733469612.154622, -33.632398, 9.662100, -9.262867, 4.220044, 0.519719, 1.580398, -53.349121, 4.388596, -619.256531
1733469612.164595, -32.103252, 9.961974, -7.933636, 4.315106, -0.122992, 0.854094, -52.883469, 4.326950, -620.527832
1733469612.174600, -30.192828, 11.067347, -7.222857, 4.608677, -0.910531, 0.345071, -52.801575, 4.207626, -622.039429
1733469612.184605, -29.163022, 12.002582, -7.561637, 5.002362, -1.418635, -0.063930, -52.872620, 3.739288, -624.286438
1733469612.194596, -29.349770, 12.183045, -7.740304, 5.327565, -1.509341, -0.502827, -53.493744, 2.973999, -626.000244
1733469612.204625, -29.841928, 11.668591, -7.220014, 5.494761, -1.317552, -1.041031, -54.152359, 2.017776, -628.295410
1733469612.214677, -29.864823, 11.065551, -6.096535, 5.550300, -1.041642, -1.671974, -55.479172, 0.675995, -630.515503
1733469612.224602, -29.027750, 10.867880, -4.478205, 5.564795, -0.876839, -2.314262, -56.834808, -0.866913, -632.390259
1733469612.234590, -27.322180, 11.126154, -2.646191, 5.546395, -0.833409, -2.873393, -58.339737, -2.749527, -634.486267
1733469612.244598, -25.324668, 11.410615, -0.663044, 5.449067, -0.894146, -3.342110, -60.137939, -5.010849, -635.191711
1733469612.254595, -23.356335, 11.417349, 1.389236, 5.240610, -1.039657, -3.727779, -61.823669, -7.063522, -637.339600
1733469612.264598, -21.532402, 11.098471, 3.092860, 4.911539, -1.185168, -4.060561, -63.669052, -9.420486, -638.196655
1733469612.274589, -19.879206, 10.440964, 4.293851, 4.484923, -1.273396, -4.370056, -65.766327, -12.102493, -639.047485
1733469612.284584, -18.180670, 9.667487, 4.973505, 4.027195, -1.283742, -4.624578, -67.778030, -14.722809, -639.774170
1733469612.294656, -16.472556, 8.976610, 5.353884, 3.562860, -1.228876, -4.825851, -69.664413, -17.663757, -640.214905
1733469612.304582, -14.882208, 8.397064, 5.597643, 3.115518, -1.148981, -5.008901, -71.235352, -20.187927, -641.060181
1733469612.314599, -13.339743, 7.954585, 5.883002, 2.691152, -1.090431, -5.162965, -72.649368, -22.888885, -640.625122
1733469612.324583, -11.815385, 7.517494, 6.304232, 2.289568, -1.123651, -5.302464, -74.235657, -25.693604, -640.464783
1733469612.334578, -10.367492, 7.076063, 6.744765, 1.912855, -1.264919, -5.412474, -75.325821, -28.518051, -640.210022
1733469612.344584, -9.010877, 6.729502, 6.983587, 1.560010, -1.449183, -5.499733, -76.171371, -31.533615, -639.343506
1733469612.354652, -7.678504, 6.491130, 6.896947, 1.241610, -1.597065, -5.514509, -77.269501, -33.972534, -639.395325
1733469612.364586, -6.304232, 6.479458, 6.638672, 0.937007, -1.673975, -5.456665, -78.140533, -36.631561, -638.324280
1733469612.374578, -5.077952, 6.384737, 6.793846, 0.594530, -1.726955, -5.350005, -78.972595, -39.307800, -637.898621
1733469612.384642, -3.938462, 6.271761, 6.984485, 0.177143, -1.724816, -5.201895, -79.373993, -41.555008, -636.662231
1733469612.394589, -2.890250, 6.256348, 6.959944, -0.257734, -1.667267, -5.025748, -79.616699, -44.002777, -636.329224
1733469612.404573, -2.173337, 6.061221, 6.799982, -0.680916, -1.601933, -4.873448, -80.196426, -46.029495, -635.730530
1733469612.414577, -1.643919, 5.749376, 6.609792, -1.079853, -1.558460, -4.754382, -79.974548, -47.886627, -634.759399
1733469612.424590, -0.985364, 5.526865, 5.975329, -1.415016, -1.478836, -4.629998, -79.951859, -49.745743, -634.580505
1733469612.434590, -0.129437, 5.327398, 5.228936, -1.676231, -1.396706, -4.469550, -79.754089, -51.470871, -634.049805
1733469612.444583, 0.695964, 5.074510, 4.601805, -1.876508, -1.329986, -4.278560, -79.672333, -53.030457, -632.847534
1733469612.454578, 1.495029, 4.901978, 3.898060, -1.994386, -1.252506, -4.036633, -79.439117, -54.483383, -633.613403
1733469612.464580, 2.451662, 4.825364, 3.324948, -2.035744, -1.226403, -3.723294, -79.331329, -55.750946, -633.624756
1733469612.474632, 3.287688, 4.606444, 3.242797, -2.030419, -1.344214, -3.366752, -79.345291, -56.965286, -633.383301
1733469612.484573, 3.783138, 4.280982, 3.229628, -1.995202, -1.576359, -3.009240, -79.009140, -57.827118, -632.794067
1733469612.494576, 4.073136, 3.763685, 2.973449, -1.955822, -1.816913, -2.673023, -79.003830, -58.582199, -632.180969
1733469612.504624, 4.336348, 3.117251, 2.477849, -1.929661, -2.002914, -2.353175, -78.860352, -59.363953, -632.349182
1733469612.514590, 4.507234, 2.558204, 1.962946, -1.939368, -2.085184, -2.032966, -78.769318, -59.752777, -631.487610
1733469612.524608, 4.639664, 2.137124, 1.253065, -1.986396, -2.019265, -1.703353, -79.053696, -60.203400, -630.929382
1733469612.533972, 4.810400, 1.860444, 0.707337, -2.054266, -1.853649, -1.372134, -78.685287, -60.384933, -630.671082
1733469612.544581, 5.012411, 1.564312, 0.430358, -2.154259, -1.652230, -1.055045, -78.984818, -60.543854, -630.257568
1733469612.554573, 5.412991, 1.303493, 0.724396, -2.290154, -1.517360, -0.723361, -79.215759, -60.287888, -630.674622
1733469612.564625, 5.553949, 1.343596, 0.929100, -2.423155, -1.517517, -0.392366, -79.209915, -60.031113, -630.374695
1733469612.574583, 5.602282, 1.583914, 1.119289, -2.635051, -1.904487, 0.290348, -79.574249, -59.649811, -630.239014
1733469612.584664, 5.443816, 1.946486, 1.344344, -2.746196, -2.254712, 0.619449, -80.033936, -58.899200, -629.883972
1733469612.594588, 5.055656, 2.311302, 1.312172, -2.877048, -2.616478, 0.935893, -80.584213, -58.039169, -629.239502
1733469612.604575, 4.564246, 2.971952, 0.998532, -3.028787, -2.990850, 1.230536, -81.082672, -57.135483, -628.771729
1733469612.614584, 4.074033, 3.711611, 0.591069, -3.183585, -3.390306, 1.521679, -81.597000, -55.897842, -627.765930
1733469612.624571, 3.832219, 4.458752, -0.111630, -3.321565, -3.779603, 1.849066, -81.803391, -54.565704, -626.357300
1733469612.634580, 3.653851, 5.456386, -1.121833, -3.423014, -4.125415, 2.268714, -82.404526, -53.137451, -625.157959
1733469612.644572, 3.448997, 6.691644, -2.209399, -3.480098, -4.472517, 2.777616, -82.862442, -51.552902, -622.739014
1733469612.653815, 3.448997, 6.691644, -2.209399, -3.480098, -4.472517, 2.777616, -83.418869, -49.544281, -621.209229
1733469612.664572, 2.280327, 10.208577, -5.632958, -3.245341, -5.033725, 4.078244, -83.441284, -47.262344, -618.498352
1733469612.674602, 1.141735, 12.125584, -8.160936, -2.874084, -5.074941, 4.869413, -83.122940, -44.637848, -616.289368
1733469612.684586, -0.398036, 13.899837, -10.738743, -2.448008, -4.789090, 5.742630, -82.928375, -41.477600, -613.865112
1733469612.694586, -2.353351, 15.360899, -13.812149, -2.041058, -4.104232, 6.587829, -82.520325, -37.966965, -611.455139
1733469612.703853, -2.353351, 15.360899, -13.812149, -2.041058, -4.104232, 6.587829, -82.049271, -34.513596, -609.869934
1733469612.714587, -8.732402, 14.866197, -19.239954, -1.116343, -1.993168, 7.503380, -81.700867, -30.889069, -609.186951
1733469612.724572, -12.283901, 13.247567, -20.030041, -0.768202, -1.124066, 7.399710, -80.472717, -27.152573, -608.416870
1733469612.734591, -15.334862, 11.922825, -19.985299, -0.526079, -0.593568, 6.994425, -79.528305, -23.961945, -608.004028
1733469612.744577, -17.474081, 11.738621, -19.293375, -0.314398, -0.512926, 6.455620, -78.149536, -20.748795, -606.492432
1733469612.754574, -18.154184, 12.298266, -18.576910, -0.090814, -0.808590, 6.010111, -76.445984, -17.900772, -607.043274
1733469612.764571, -17.999458, 13.275848, -18.614619, 0.252993, -1.307556, 5.733539, -74.804398, -15.396454, -606.418396
1733469612.774574, -18.333749, 14.349049, -19.807979, 0.798297, -1.702980, 5.600861, -72.584106, -13.092804, -605.755371
1733469612.784573, -19.300557, 15.148413, -21.679047, 1.509568, -1.851075, 5.562216, -70.766129, -10.403748, -604.704468
1733469612.794576, -21.028872, 15.466692, -22.792501, 2.298999, -1.813415, 5.488328, -68.590530, -8.235870, -605.315186
1733469612.804581, -23.302017, 15.179089, -23.323564, 3.139576, -1.533144, 5.311699, -66.408173, -5.877396, -605.155396
1733469612.814581, -25.248652, 14.627974, -23.376985, 4.012281, -1.002846, 5.126835, -64.534363, -3.874146, -606.446960
1733469612.824573, -27.291804, 14.486267, -21.220408, 4.730564, -0.620190, 4.836045, -62.542847, -2.109253, -607.708435
1733469612.834574, -29.453319, 14.089129, -17.379659, 5.225047, -0.478881, 4.422253, -60.470016, -0.429672, -609.531372
1733469612.844580, -31.314512, 13.422643, -14.293833, 5.536778, -0.344643, 3.921439, -59.087372, 0.845520, -611.094543
1733469612.854567, -33.150715, 12.393435, -11.383681, 5.558342, -0.199407, 3.247636, -58.053009, 1.943359, -613.614197
1733469612.864563, -34.075475, 11.017517, -8.510489, 5.339007, -0.196421, 2.435042, -57.043365, 2.464447, -615.634888
1733469612.874570, -33.522564, 10.415675, -6.571784, 5.125854, -0.292812, 1.686259, -56.161270, 2.902069, -618.047607
1733469612.884576, -32.094273, 10.988488, -5.639841, 5.073149, -0.467755, 1.149722, -55.619766, 3.008545, -619.262878
1733469612.894590, -30.802452, 11.585243, -4.960337, 5.180194, -0.610593, 0.777295, -55.111176, 2.870087, -621.670410
1733469612.904576, -30.431351, 11.725154, -4.544045, 5.342828, -0.544066, 0.432029, -54.975754, 2.663147, -623.708984
1733469612.914573, -30.793623, 11.256189, -3.534291, 5.438399, -0.356834, -0.023769, -55.290955, 2.037979, -625.803040
1733469612.924594, -31.142129, 10.515334, -1.767519, 5.438647, -0.243715, -0.634848, -55.921707, 1.265732, -628.010071
1733469612.934586, -30.922162, 10.216657, 0.024840, 5.366813, -0.187308, -1.296872, -56.522995, 0.523102, -630.296143
1733469612.944570, -29.905973, 10.302848, 1.752556, 5.228521, -0.228988, -1.938127, -57.657684, -1.201553, -631.126831
1733469612.954573, -28.299015, 10.303896, 3.626767, 5.024208, -0.407966, -2.512193, -58.999878, -2.697815, -633.327271
1733469612.964572, -26.309134, 10.284443, 5.160851, 4.777956, -0.625670, -2.992092, -60.396225, -4.551620, -635.209351
1733469612.974567, -24.337210, 10.058789, 6.378153, 4.458742, -0.866969, -3.405800, -61.976669, -6.609634, -636.339355
1733469612.984571, -22.486641, 9.468469, 7.367707, 4.067524, -1.074427, -3.775763, -63.897156, -8.763733, -637.659119
1733469612.994562, -20.785860, 8.828020, 7.839963, 3.614093, -1.162205, -4.112160, -65.557220, -10.844208, -638.221680
1733469613.004582, -19.031659, 8.247875, 8.100781, 3.107219, -1.157583, -4.390478, -67.429230, -13.074310, -638.574585
1733469613.014565, -17.317410, 7.932439, 8.466496, 2.578718, -1.151641, -4.613100, -69.160782, -15.568192, -638.853821
1733469613.024565, -15.730803, 7.658602, 8.601169, 2.063032, -1.123397, -4.791072, -70.830978, -17.926300, -639.029297
1733469613.034575, -14.162301, 7.391349, 8.319252, 1.573725, -1.046831, -4.928422, -72.601044, -20.102371, -639.535034
1733469613.044561, -12.647969, 7.218967, 7.869591, 1.120426, -0.908406, -5.019834, -73.647415, -22.487000, -638.091736
1733469613.054555, -11.151294, 7.045387, 7.434295, 0.734441, -0.769614, -5.060692, -74.853683, -24.828156, -638.302368
1733469613.064559, -9.718364, 6.942287, 7.163900, 0.419603, -0.672759, -5.051015, -76.125076, -27.177246, -638.108398
1733469613.074558, -8.293515, 6.925378, 7.065738, 0.167892, -0.665745, -4.988618, -76.996552, -29.346024, -637.744080
1733469613.084614, -6.987777, 6.628647, 7.143250, -0.045475, -0.765060, -4.911151, -77.929077, -31.607697, -637.521667
1733469613.094555, -6.033089, 6.296750, 7.305308, -0.245743, -0.950558, -4.837570, -78.867569, -33.648605, -636.490234
1733469613.104561, -5.358523, 6.071995, 7.436839, -0.467953, -1.174270, -4.782842, -79.351791, -35.775620, -636.029480
1733469613.114617, -4.815039, 5.956474, 7.497742, -0.739096, -1.364593, -4.738630, -79.978043, -37.671021, -635.457397
1733469613.124549, -4.219332, 5.933430, 7.094618, -1.052323, -1.452535, -4.666559, -80.330750, -39.771957, -634.866577
1733469613.134550, -3.522320, 5.869834, 6.310218, -1.372549, -1.361191, -4.562826, -80.819229, -41.451462, -634.922424
1733469613.144614, -2.811691, 5.853225, 5.489306, -1.682465, -1.157975, -4.439580, -80.860748, -43.642578, -634.115967
1733469613.154554, -1.980005, 5.846491, 4.910508, -1.965461, -0.956064, -4.280807, -80.825119, -45.189713, -633.942993
1733469613.164558, -0.991648, 5.862502, 4.374506, -2.160409, -0.853694, -4.082625, -80.957764, -46.894028, -633.870422
1733469613.174552, -0.180912, 5.884798, 3.957466, -2.231031, -0.939360, -3.877197, -80.872299, -48.202866, -633.692749
1733469613.184553, 0.523881, 5.605574, 3.672107, -2.189742, -1.245591, -3.686331, -81.250046, -49.435226, -633.164917
1733469613.194556, 1.243339, 5.097255, 3.395277, -2.081445, -1.659040, -3.485525, -81.153458, -50.875320, -632.450195
1733469613.204550, 1.999607, 4.591331, 2.886809, -1.985204, -1.991076, -3.231920, -80.885468, -52.063629, -631.942322
1733469613.214551, 2.606687, 4.179678, 1.982998, -1.941875, -2.072562, -2.927868, -81.055313, -53.005386, -631.358215
1733469613.224553, 3.218256, 3.879205, 1.146673, -1.951988, -1.950663, -2.580558, -81.072800, -53.955368, -630.636841
1733469613.234554, 3.829226, 3.604920, 0.803105, -1.991544, -1.789962, -2.198625, -81.072800, -53.955368, -630.636841
1733469613.244600, 4.476409, 3.387795, 0.636259, -2.035989, -1.649454, -1.800589, -80.858337, -54.449829, -630.334961
1733469613.254557, 4.882825, 3.210026, 0.688183, -2.076361, -1.625135, -1.424320, -81.184341, -55.027771, -629.260376
1733469613.264552, 5.155015, 3.094206, 0.921768, -2.110842, -1.754657, -1.067682, -81.293884, -55.203674, -629.307983
1733469613.274600, 5.357625, 2.999186, 1.173308, -2.166322, -1.991793, -0.714797, -81.285217, -55.410294, -629.062073
1733469613.284558, 5.501576, 2.875436, 1.138144, -2.256072, -2.226358, -0.353093, -81.570633, -55.501862, -628.453857
1733469613.294546, 5.655254, 2.782511, 0.796072, -2.406213, -2.398117, 0.024514, -81.916306, -55.162384, -628.203003
1733469613.304556, 5.716456, 2.799420, 0.423325, -2.617513, -2.544729, 0.398742, -82.231506, -54.770493, -627.129333
1733469613.314567, 5.608717, 2.910900, -0.030526, -2.845022, -2.693482, 0.742502, -82.284607, -54.268539, -626.773438
1733469613.324550, 5.430798, 3.284246, -0.445770, -3.054684, -2.963451, 1.040988, -83.055832, -53.425858, -625.509644
1733469613.334620, 5.211728, 4.221127, -0.536152, -3.205627, -3.493242, 1.363421, -83.272644, -52.454330, -624.687378
1733469613.344547, 5.430947, 5.310339, -1.066617, -3.207121, -4.191671, 1.840148, -83.588043, -51.326431, -623.111511
1733469613.354553, 5.680393, 6.523302, -2.308908, -3.083841, -4.816635, 2.509378, -83.929718, -49.942932, -620.958984
1733469613.364556, 5.363461, 8.106318, -3.531747, -2.984923, -5.286629, 3.327628, -83.972290, -48.290985, -619.234009
1733469613.374555, 4.223372, 9.517251, -4.904073, -2.980977, -5.537805, 4.162890, -83.983582, -46.182343, -616.243530
1733469613.384546, 2.397045, 10.921301, -6.709900, -2.977831, -5.616643, 4.954589, -83.941086, -43.627609, -613.370483
1733469613.394608, -0.377985, 11.991658, -9.196428, -2.844244, -5.570799, 5.566059, -83.876923, -40.717453, -610.633667
1733469613.404548, -4.027197, 11.621006, -12.667122, -2.453459, -5.374509, 5.889300, -83.183258, -37.784271, -608.119873
1733469613.414539, -8.189367, 10.306589, -16.095619, -1.838268, -5.019094, 5.885989, -82.211548, -35.028519, -605.501038
1733469613.424545, -11.956194, 9.058462, -19.004874, -1.126274, -4.347255, 5.721382, -81.055359, -32.114349, -602.773438
1733469613.434600, -14.526519, 8.598925, -20.866515, -0.494773, -3.327781, 5.497985, -79.749802, -29.424240, -601.017395
1733469613.444554, -15.878794, 8.602965, -22.183475, 0.003139, -1.973194, 5.368073, -78.397293, -26.718018, -600.074341
1733469613.454562, -16.251093, 9.005490, -22.468685, 0.431592, -0.626660, 5.361889, -77.261658, -24.317429, -599.498108
1733469613.464553, -16.295385, 9.660753, -22.097583, 0.935301, 0.466220, 5.457813, -76.148132, -21.814926, -599.603149
1733469613.474553, -16.591219, 11.117176, -21.061343, 1.471669, 1.116337, 5.602757, -74.880554, -19.127274, -600.021057
1733469613.484551, -17.370981, 12.245893, -19.194165, 2.006603, 1.308237, 5.731413, -73.736618, -16.524551, -600.960815
1733469613.494547, -18.818724, 12.800749, -17.529596, 2.479254, 1.266061, 5.761514, -72.654816, -13.708023, -602.371887
1733469613.504541, -20.911406, 12.581979, -16.136171, 2.775166, 1.234109, 5.661623, -70.991241, -11.203323, -603.442566
1733469613.514604, -22.936003, 11.248408, -15.204078, 2.897729, 1.217092, 5.415010, -69.483459, -8.732407, -604.796143
1733469613.524542, -25.019557, 10.367641, -13.529185, 2.906541, 0.876044, 4.931794, -67.899109, -6.612778, -605.793396
1733469613.534548, -26.409092, 10.351181, -11.603798, 3.010771, 0.066689, 4.320963, -66.194656, -5.084290, -606.887268
1733469613.544545, -27.047296, 10.794857, -10.531195, 3.378124, -1.019102, 3.699562, -64.450867, -3.537552, -607.496338
1733469613.554552, -27.826310, 11.249755, -10.377069, 3.994519, -1.941129, 3.159033, -62.759491, -2.214615, -608.627686
1733469613.564559, -29.020717, 10.721834, -10.534637, 4.641732, -2.314945, 2.651084, -61.466644, -1.035248, -609.628906
1733469613.574553, -30.956279, 9.159168, -9.726744, 4.898264, -2.093174, 2.005172, -60.461685, 0.136734, -610.763550
1733469613.584549, -32.423326, 7.904307, -8.295161, 4.741290, -1.430875, 1.298016, -59.816742, 0.714844, -611.553528
1733469613.594551, -32.169092, 8.055740, -6.935404, 4.411654, -0.822610, 0.657422, -59.768875, 0.863556, -613.319824
1733469613.604551, -30.972141, 9.289652, -5.103690, 4.166507, -0.603779, 0.159490, -59.508240, 1.033859, -614.419617
1733469613.614551, -29.977350, 11.062259, -4.825214, 4.302239, -0.445048, -0.124792, -59.294678, 0.937881, -616.102905
1733469613.624550, -29.611037, 12.242301, -5.189432, 4.662838, -0.192428, -0.367745, -59.387390, 0.826111, -617.824829
1733469613.634544, -29.886370, 11.461792, -4.247314, 4.968648, 0.102136, -0.685006, -60.093567, 0.477600, -620.037109
1733469613.644571, -30.197018, 10.403854, -2.386570, 5.044235, 0.377713, -1.163716, -60.801071, -0.125046, -621.552429
1733469613.654544, -30.192230, 9.821614, 0.610073, 4.876704, 0.294441, -1.753512, -61.455109, -1.138458, -624.098511
1733469613.664552, -29.216293, 9.674071, 2.532916, 4.722340, 0.070738, -2.298321, -62.378082, -2.121643, -625.659424
1733469613.674547, -27.792791, 9.755175, 2.876184, 4.666902, -0.130736, -2.785199, -63.601028, -3.434296, -627.193115
1733469613.684553, -26.523714, 9.720010, 3.536834, 4.604850, -0.307232, -3.243330, -64.977005, -5.317184, -628.538391
1733469613.694535, -25.230546, 9.694571, 4.417601, 4.506474, -0.367669, -3.652280, -66.448868, -7.137726, -629.793457
1733469613.704545, -23.638552, 9.818920, 5.520281, 4.357312, -0.389158, -3.978090, -68.046707, -9.148621, -631.330261
1733469613.714531, -21.852926, 9.669732, 7.102100, 4.112267, -0.409862, -4.241137, -69.368927, -11.334641, -632.312988
1733469613.724666, -20.112491, 8.983194, 8.610597, 3.719946, -0.426177, -4.518089, -71.403214, -14.004715, -633.398132
1733469613.734545, -18.422933, 8.132953, 9.768941, 3.233391, -0.450115, -4.802800, -72.757065, -16.453262, -633.923584
1733469613.744534, -16.455797, 7.712472, 10.497826, 2.715657, -0.534359, -5.051765, -74.263763, -19.477646, -633.952209
1733469613.754550, -14.312687, 7.553407, 10.772261, 2.236801, -0.682043, -5.241074, -75.785522, -22.018112, -634.426636
1733469613.764553, -12.095956, 7.550863, 10.694151, 1.781154, -0.823070, -5.345109, -76.847092, -24.659607, -634.388428
1733469613.774554, -9.855432, 7.544429, 10.608857, 1.326768, -0.967203, -5.340137, -78.088531, -27.446945, -634.367981
1733469613.784552, -7.620894, 7.440281, 10.545112, 0.879147, -1.080350, -5.222291, -79.098740, -29.991669, -634.006714
1733469613.794548, -5.586870, 7.117662, 10.285341, 0.437155, -1.144598, -5.018028, -79.997681, -32.340317, -633.315308
1733469613.804545, -3.989638, 6.574029, 9.940426, 0.022044, -1.177908, -4.764757, -80.737823, -34.793106, -633.342529
1733469613.814550, -2.824859, 6.001366, 9.433155, -0.335271, -1.207079, -4.506056, -81.257950, -36.930954, -632.545349
1733469613.824542, -2.157176, 5.357625, 8.829068, -0.633929, -1.215400, -4.281636, -81.557343, -38.953552, -632.126099
1733469613.834534, -1.835754, 4.783316, 8.203582, -0.900793, -1.213324, -4.111463, -82.043610, -40.892273, -631.440979
1733469613.844531, -1.625364, 4.382437, 7.627926, -1.160898, -1.148301, -3.975042, -82.184464, -42.667007, -630.333252
1733469613.854543, -1.073051, 4.284873, 6.755839, -1.419891, -0.974327, -3.811345, -82.481766, -44.220779, -630.809814
1733469613.864539, -0.264410, 4.392462, 5.986552, -1.656524, -0.784295, -3.594572, -82.385300, -45.523270, -630.280640
1733469613.874534, 0.583138, 4.491522, 5.486014, -1.848846, -0.627585, -3.331282, -82.436432, -47.240295, -630.312012
1733469613.884544, 1.418265, 4.378097, 5.092617, -1.994468, -0.575637, -3.047897, -82.233444, -48.348923, -630.232666
1733469613.894543, 2.067842, 4.048745, 4.786159, -2.097030, -0.653314, -2.760738, -82.179703, -49.373154, -630.079773
1733469613.904528, 2.518850, 3.854964, 4.463989, -2.160921, -0.830954, -2.483425, -82.307083, -50.170120, -629.937622
1733469613.914524, 2.701108, 3.547459, 3.975422, -2.193981, -1.066496, -2.238276, -82.140381, -51.053314, -629.899963
1733469613.924599, 2.658013, 3.099444, 3.366547, -2.205153, -1.284798, -2.040293, -82.348969, -51.759354, -629.422974
1733469613.934533, 2.667889, 2.719364, 2.523339, -2.196344, -1.402886, -1.839743, -82.358154, -52.314194, -628.787292
1733469613.944534, 3.002479, 2.423680, 1.856853, -2.176141, -1.462071, -1.596718, -82.137756, -53.035034, -628.263916
1733469613.954527, 3.233369, 2.076970, 1.457171, -2.179241, -1.448349, -1.345470, -82.418304, -53.122086, -628.129456
1733469613.964523, 3.378817, 1.795352, 0.912340, -2.226376, -1.301296, -1.091882, -82.262146, -53.364563, -627.794983
1733469613.974526, 3.741838, 1.539621, 0.539743, -2.318586, -1.095796, -0.818824, -82.370361, -53.455261, -627.935852
1733469613.984590, 4.215291, 1.440262, 0.619051, -2.452804, -0.947730, -0.520401, -82.455124, -53.474243, -627.896973
1733469613.994524, 4.561702, 1.464354, 0.806846, -2.628304, -0.852088, -0.220703, -82.684387, -53.225143, -628.026611
1733469614.004545, 4.821773, 1.672051, 1.015890, -2.849269, -0.841097, 0.061626, -82.835251, -52.806320, -628.196777
1733469614.014531, 4.948067, 1.851616, 1.312023, -3.100092, -1.007805, 0.339215, -83.084152, -52.197708, -627.916199
1733469614.024524, 4.892850, 1.882291, 1.407940, -3.337545, -1.332491, 0.572297, -83.706009, -51.349335, -627.649170
1733469614.034522, 4.601207, 1.902792, 1.039383, -3.539518, -1.730748, 0.765626, -83.647995, -50.685638, -627.221252
1733469614.044526, 4.415207, 2.028936, 0.291943, -3.691592, -2.142337, 0.957585, -83.898026, -49.771942, -625.901184
1733469614.054576, 4.271854, 2.333299, -0.698209, -3.775753, -2.535493, 1.160443, -84.416306, -48.487488, -625.693420
1733469614.064540, 3.982904, 3.044676, -1.794005, -3.789129, -2.899726, 1.375827, -84.485001, -47.363968, -624.638672
1733469614.074535, 3.797054, 4.094983, -2.823811, -3.756398, -3.197332, 1.648579, -84.795395, -46.136108, -623.160095
1733469614.084538, 3.926341, 5.625177, -3.774160, -3.691943, -3.501299, 2.048451, -84.633377, -44.809784, -621.786865
1733469614.094533, 3.915268, 7.283161, -4.708497, -3.537494, -3.829487, 2.585255, -84.704361, -43.038528, -619.512329
1733469614.104529, 3.373430, 8.720281, -6.022165, -3.277615, -4.063450, 3.203938, -84.611343, -40.940735, -617.576721
1733469614.114521, 2.577957, 9.872341, -7.505074, -3.041237, -4.154896, 3.914228, -84.236328, -38.769958, -615.336182
1733469614.124521, 1.260996, 11.027394, -9.037213, -2.878500, -4.071556, 4.603581, -84.079773, -36.151947, -613.510803
1733469614.134585, -0.914735, 11.773187, -10.820744, -2.699260, -3.929869, 5.132401, -83.595810, -33.567612, -611.507446
1733469614.144523, -3.747524, 12.312481, -12.979266, -2.350447, -3.807285, 5.480985, -82.572067, -30.857941, -608.814575
1733469614.154541, -6.343437, 12.839804, -15.513379, -1.686801, -3.781916, 5.700787, -81.203751, -27.882126, -607.338989
1733469614.164535, -8.936956, 12.362161, -17.799992, -0.717264, -3.717281, 5.801545, -79.740128, -25.077286, -605.386902
1733469614.174578, -10.923994, 12.141446, -19.591004, 0.276999, -3.398818, 5.917511, -78.240860, -22.045715, -603.899780
1733469614.184533, -12.955773, 12.100146, -20.205266, 1.054942, -2.695615, 5.989862, -76.608749, -18.914474, -603.302246
1733469614.194520, -15.051747, 11.506234, -19.773113, 1.569351, -1.753658, 5.977493, -74.736069, -16.244141, -602.977051
1733469614.204532, -16.653319, 11.099968, -18.758121, 1.819052, -0.708030, 5.920139, -73.176437, -13.587631, -603.409119
1733469614.214581, -17.822736, 11.326968, -17.074548, 1.836142, 0.140786, 5.842282, -71.535873, -10.869186, -603.696533
1733469614.224527, -18.600852, 11.879131, -15.114146, 1.722503, 0.586825, 5.776581, -69.574448, -8.634369, -604.516602
1733469614.234520, -19.428198, 12.762890, -13.817686, 1.623772, 0.633020, 5.699122, -67.716934, -6.360001, -604.894470
1733469614.244518, -20.696676, 13.311761, -13.364284, 1.672043, 0.347137, 5.537993, -65.684662, -4.450272, -605.289307
1733469614.254536, -22.304682, 13.459603, -13.892505, 2.070349, -0.097625, 5.359539, -63.390213, -2.577377, -606.502625
1733469614.264520, -24.719683, 13.587094, -14.730176, 2.762095, -0.554271, 5.069699, -61.480698, -0.886002, -607.284729
1733469614.274535, -27.982232, 12.408399, -14.110676, 3.414364, -0.920555, 4.555889, -59.661972, 0.658188, -608.747437
1733469614.284533, -31.383944, 10.452187, -12.734010, 3.803936, -1.005794, 3.798755, -58.223190, 2.042007, -609.944031
1733469614.294516, -33.879300, 8.819940, -10.787973, 3.809295, -0.907056, 2.868732, -56.878342, 2.734192, -610.580872
1733469614.304525, -34.069340, 7.994090, -8.835502, 3.616207, -0.755840, 2.043641, -56.269119, 3.197342, -612.093994
1733469614.314523, -32.815078, 8.300248, -8.153005, 3.543895, -0.645441, 1.447479, -55.477295, 3.577606, -613.568909
1733469614.324515, -31.576078, 8.866477, -7.752724, 3.662199, -0.659088, 0.980295, -55.304398, 3.725525, -614.995972
1733469614.334527, -30.922461, 9.691878, -7.533505, 4.001208, -0.628594, 0.627180, -55.199677, 3.966553, -616.591370
1733469614.344525, -30.974834, 9.793781, -7.233631, 4.351921, -0.470753, 0.221764, -55.433914, 3.570251, -617.976929
1733469614.354517, -31.472379, 9.017910, -5.859809, 4.482807, -0.259618, -0.330027, -55.992569, 3.436417, -620.334778
1733469614.364514, -31.461905, 8.476970, -4.112341, 4.441678, -0.094920, -0.966513, -56.543015, 2.727142, -622.298462
1733469614.374524, -30.446763, 8.372523, -2.348413, 4.311481, -0.157576, -1.606625, -57.119720, 1.866745, -623.277344
1733469614.384565, -28.830976, 9.263166, -0.938078, 4.242382, -0.359762, -2.126696, -58.136475, 0.947525, -625.328918
1733469614.394510, -27.308264, 10.925191, -0.642245, 4.280138, -0.489286, -2.467080, -59.138657, -0.266922, -626.700806
1733469614.404509, -26.224738, 11.401488, -0.411952, 4.305642, -0.453682, -2.753639, -60.842880, -1.584747, -628.102905
1733469614.414513, -25.528923, 10.915465, 0.150236, 4.228296, -0.242205, -3.080257, -62.057312, -3.270035, -629.892822
1733469614.424561, -24.746169, 10.371682, 0.978181, 4.061354, 0.026668, -3.445563, -63.690323, -4.966064, -631.493835
1733469614.434518, -23.372945, 9.926959, 1.951424, 3.839583, 0.244889, -3.786339, -65.221909, -7.111679, -632.464722
1733469614.444508, -21.481376, 9.708039, 2.865560, 3.598754, 0.347262, -4.075234, -66.561707, -9.279327, -633.028320
1733469614.454511, -19.528306, 9.863213, 3.692009, 3.381407, 0.314822, -4.288143, -68.277054, -11.375809, -634.650391
1733469614.464526, -17.755100, 9.886556, 4.183867, 3.190665, 0.204354, -4.448027, -69.713593, -13.752594, -635.709961
1733469614.474508, -16.311097, 9.588179, 4.518158, 2.984563, 0.085640, -4.603547, -70.948135, -16.155548, -636.629517
1733469614.484512, -14.941464, 8.964789, 4.581455, 2.776614, 0.018281, -4.741349, -72.173752, -18.536285, -636.814514
1733469614.494506, -13.570485, 8.392874, 4.610335, 2.582294, -0.027969, -4.840698, -73.516541, -21.298828, -637.785767
1733469614.504510, -12.158205, 8.209717, 4.998046, 2.346904, -0.010518, -4.869018, -74.639389, -23.573486, -637.917358
1733469614.514521, -10.729914, 7.926753, 5.342960, 2.050524, 0.043522, -4.822301, -75.499146, -26.057083, -637.963684
1733469614.524507, -9.354296, 7.404069, 5.704934, 1.718373, 0.115055, -4.705900, -76.151627, -28.388687, -638.116394
1733469614.534507, -8.279898, 6.921936, 5.990442, 1.370428, 0.165069, -4.571700, -76.707779, -30.771942, -638.387756
1733469614.544508, -7.507917, 6.507889, 6.140828, 1.064524, 0.168738, -4.436832, -77.494843, -32.908707, -637.957336
1733469614.554508, -6.721123, 5.759851, 6.055235, 0.841741, 0.126918, -4.336036, -78.030289, -35.099823, -638.798401
1733469614.564516, -6.158485, 4.634576, 6.122722, 0.696254, -0.012466, -4.295551, -78.379227, -37.296432, -639.207458
1733469614.574507, -5.626224, 3.750816, 6.402993, 0.564178, -0.191652, -4.312105, -78.692123, -39.187347, -638.506226
1733469614.584519, -5.119851, 3.262698, 6.928071, 0.373099, -0.420137, -4.351021, -78.815872, -41.251511, -638.621948
1733469614.594506, -4.448576, 3.113210, 7.236475, 0.105563, -0.584400, -4.354590, -79.113937, -43.255554, -638.287109
1733469614.604507, -3.476082, 3.340959, 7.268497, -0.200673, -0.718482, -4.282445, -79.019287, -45.252029, -637.534485
1733469614.614506, -2.263568, 3.678840, 7.268946, -0.508065, -0.858075, -4.122157, -78.993484, -46.882309, -637.529053
1733469614.624505, -1.149666, 3.927089, 7.217321, -0.826014, -1.035653, -3.907207, -79.358414, -48.178116, -636.581604
1733469614.634503, -0.313341, 4.053084, 6.983737, -1.112963, -1.259485, -3.657238, -79.474014, -49.434464, -636.235535
1733469614.644508, 0.396091, 3.952977, 6.444742, -1.333727, -1.519877, -3.402216, -79.645767, -50.880005, -634.706482
1733469614.654507, 0.836773, 3.675848, 5.855170, -1.513085, -1.810788, -3.159527, -79.709045, -51.875809, -634.797363
1733469614.664502, 0.941819, 3.271078, 5.152621, -1.653000, -2.048735, -2.957600, -79.795715, -52.955383, -634.441772
1733469614.674520, 0.888548, 2.757671, 4.274847, -1.762769, -2.174829, -2.800324, -79.903046, -53.693420, -633.561523
1733469614.684502, 0.979977, 2.272995, 3.453786, -1.850721, -2.187086, -2.649901, -79.874146, -54.540756, -632.958984
1733469614.694501, 1.405247, 1.901894, 2.846556, -1.919739, -2.130230, -2.473708, -79.930054, -55.257095, -632.445740
1733469614.704501, 1.995268, 1.813458, 2.595464, -1.989470, -2.058729, -2.267212, -80.093201, -55.902206, -631.698120
1733469614.714514, 2.666542, 1.870320, 2.418892, -2.072271, -1.968227, -2.009079, -80.357422, -56.347092, -631.565125
1733469614.724513, 3.273173, 1.994969, 2.213140, -2.163495, -1.866397, -1.695856, -80.357422, -56.347092, -631.565125
1733469614.734512, 3.770718, 2.067992, 2.065597, -2.259557, -1.750978, -1.349351, -80.395020, -56.534790, -630.869507
1733469614.744578, 4.179977, 2.002002, 2.042104, -2.375579, -1.680306, -0.997950, -80.391296, -56.595810, -630.552063
1733469614.754498, 4.443189, 1.892317, 2.149993, -2.495546, -1.690003, -0.648919, -80.513123, -56.729095, -629.965210
1733469614.764500, 4.695778, 1.699584, 2.352303, -2.646941, -1.744498, -0.295157, -80.672348, -56.396744, -630.288452
1733469614.774513, 4.668843, 1.445050, 2.622399, -2.900807, -1.814523, 0.019932, -81.153152, -55.940506, -629.930176
1733469614.784504, 4.169951, 1.519420, 2.693327, -3.234414, -1.889083, 0.263257, -81.237411, -55.316986, -629.461182
1733469614.794501, 3.803189, 1.741632, 2.322226, -3.560949, -1.979080, 0.474364, -81.616425, -54.513458, -629.257141
1733469614.804503, 3.614496, 2.121412, 1.693299, -3.836819, -2.117047, 0.657712, -82.108734, -53.670166, -628.326172
1733469614.814515, 3.377321, 3.005322, 0.984765, -4.052014, -2.358358, 0.818179, -82.745209, -52.615723, -627.866150
1733469614.824516, 3.400365, 3.909432, 0.076016, -4.171186, -2.736816, 1.032902, -82.934952, -51.631180, -627.571899
1733469614.834511, 3.636343, 4.621408, -1.078289, -4.165639, -3.211729, 1.329804, -82.977509, -50.410736, -626.384460
1733469614.844506, 3.794510, 5.616797, -2.514361, -4.080300, -3.668618, 1.734791, -83.448761, -48.932770, -624.710449
1733469614.854499, 3.698593, 7.010971, -4.090793, -4.003253, -3.994009, 2.237764, -83.586685, -47.599731, -623.141541
1733469614.864501, 3.199851, 8.574534, -5.770176, -3.925796, -4.206676, 2.796052, -83.683060, -45.443756, -621.301758
1733469614.874505, 2.193687, 10.291775, -7.787141, -3.731151, -4.320090, 3.393877, -84.230896, -43.378311, -618.913574
1733469614.884503, 0.897975, 11.539603, -10.243592, -3.383228, -4.322836, 4.006723, -83.973831, -41.147034, -616.783752
1733469614.894503, -0.709133, 12.147880, -12.665177, -2.905118, -4.227512, 4.564491, -83.458054, -38.473740, -615.084534
1733469614.904496, -2.858527, 12.830227, -14.847492, -2.416370, -3.919376, 5.058488, -83.271210, -35.864471, -612.921692
1733469614.914494, -5.037849, 13.305626, -16.921768, -2.018566, -3.358052, 5.430197, -82.540665, -32.977722, -611.451782
1733469614.924498, -7.174225, 13.094039, -18.723555, -1.697960, -2.656576, 5.655817, -82.128967, -30.178604, -610.059265
1733469614.934500, -8.858546, 12.817808, -20.242227, -1.389317, -1.958801, 5.803544, -81.137604, -27.206055, -609.032349
1733469614.944507, -10.395923, 12.581979, -21.722891, -0.979204, -1.305779, 5.861532, -80.106842, -24.321777, -608.367310
1733469614.954517, -11.760019, 12.427702, -22.925977, -0.446641, -0.699552, 5.886920, -78.561905, -21.712738, -607.837219
1733469614.964504, -12.788329, 12.890082, -23.116017, 0.076930, -0.230491, 5.924387, -77.117844, -18.990540, -608.037354
1733469614.974559, -13.777284, 13.350517, -22.314558, 0.558771, 0.055938, 5.951158, -75.620407, -15.998978, -607.244568
1733469614.984627, -14.817864, 14.076858, -21.417481, 0.982462, 0.223511, 5.996461, -74.088959, -13.459503, -608.011353
1733469614.994625, -15.793950, 14.237270, -20.504242, 1.352744, 0.165803, 6.008392, -72.418503, -11.024277, -608.483643
1733469615.004591, -17.406295, 13.728053, -19.310284, 1.756731, -0.239887, 5.841064, -70.640991, -8.839478, -608.865051
1733469615.014543, -19.523517, 13.042114, -18.262372, 2.266678, -0.937606, 5.478322, -68.581207, -6.798752, -609.703125
1733469615.024648, -21.148582, 12.041937, -17.736695, 2.890595, -1.667422, 5.041317, -66.515732, -4.719208, -609.581543
1733469615.034699, -24.746618, 11.119271, -16.386814, 3.994030, -2.092677, 4.167995, -64.131027, -2.863373, -609.955566
1733469615.044548, -24.746618, 11.119271, -16.386814, 3.994030, -2.092677, 4.167995, -62.080307, -1.440491, -610.819275
1733469615.054538, -26.107572, 11.597214, -15.892561, 4.397031, -1.495945, 3.965838, -59.887436, -0.042786, -611.456299
1733469615.064524, -30.070125, 12.685677, -12.809129, 4.591087, -0.548839, 3.881139, -58.364044, 1.273605, -613.321594
1733469615.074496, -33.319207, 12.020688, -10.286837, 4.593533, 0.601671, 3.785487, -57.251541, 2.474167, -615.889648
1733469615.084497, -35.392585, 10.129269, -7.191434, 4.282725, 1.414133, 3.332026, -56.300461, 2.708023, -617.735657
1733469615.094486, -35.456929, 8.949376, -5.616498, 3.634660, 0.954171, 1.614496, -55.573563, 3.115051, -620.009521
1733469615.104503, -34.136827, 8.496872, -5.040842, 3.721139, 0.013519, 0.717565, -55.034851, 3.121796, -621.507202
1733469615.114505, -32.277130, 8.643218, -4.947618, 4.016814, -0.898263, -0.021198, -54.851639, 3.041779, -623.508545
1733469615.124506, -30.624233, 8.771906, -5.318719, 4.397756, -1.488640, -0.636328, -54.930679, 2.755051, -624.609436
1733469615.134497, -29.659669, 8.942942, -5.488707, 4.709380, -1.578167, -1.129676, -55.118759, 2.147064, -625.965576
1733469615.144505, -29.014133, 9.589227, -5.180155, 4.855694, -1.208590, -1.545128, -56.055725, 1.161118, -626.402466
1733469615.154493, -28.430696, 9.837176, -3.792116, 4.828919, -0.658690, -1.943545, -56.940811, -0.049759, -629.342896
1733469615.164497, -27.523443, 9.681254, -1.734898, 4.634910, -0.178291, -2.367015, -58.255432, -1.287003, -630.686829
1733469615.174488, -26.132412, 9.693524, 0.355838, 4.347681, 0.120231, -2.785931, -59.748734, -2.664734, -632.069092
1733469615.184506, -24.399459, 9.785102, 2.063503, 4.043215, 0.225128, -3.176299, -60.937912, -4.319473, -633.407227
1733469615.194489, -22.475568, 9.629030, 3.320758, 3.776232, 0.127291, -3.543105, -62.529907, -6.271408, -635.062683
1733469615.204487, -20.634726, 9.389311, 3.990685, 3.586231, -0.051074, -3.867860, -63.893311, -8.175186, -636.634888
1733469615.214499, -18.880525, 9.205406, 4.192696, 3.462731, -0.206933, -4.138644, -65.635330, -10.332901, -637.652344
1733469615.224496, -17.197999, 8.771307, 4.585495, 3.305629, -0.339864, -4.378891, -67.098190, -12.802521, -638.339600
1733469615.234484, -15.541810, 8.239346, 5.136011, 3.090002, -0.389721, -4.591610, -68.600647, -15.248123, -639.359314
1733469615.244498, -13.851205, 7.851934, 5.584176, 2.806278, -0.360103, -4.766396, -70.265594, -17.628433, -639.409241
1733469615.254542, -12.106430, 7.737012, 6.328025, 2.438281, -0.344324, -4.864700, -71.561249, -20.248428, -640.939880
1733469615.264492, -10.402507, 7.584831, 6.987029, 2.029745, -0.351820, -4.898843, -72.873993, -22.618759, -640.505798
1733469615.274485, -8.974964, 7.347356, 7.259369, 1.612312, -0.329945, -4.880080, -73.874908, -24.935989, -640.598633
1733469615.283546, -7.821109, 6.917298, 7.464822, 1.192436, -0.350475, -4.832741, -74.682724, -27.706299, -640.451111
1733469615.294490, -6.875249, 6.274454, 7.392098, 0.822938, -0.366826, -4.777186, -75.505844, -29.918884, -641.205933
1733469615.304482, -6.069301, 5.630414, 6.925228, 0.530875, -0.389214, -4.733613, -76.181915, -32.346405, -640.997009
1733469615.314484, -5.129727, 5.174768, 6.668301, 0.325562, -0.505630, -4.684075, -77.076385, -34.423981, -640.921936
1733469615.324483, -4.092588, 4.875492, 6.446837, 0.199825, -0.684408, -4.613552, -77.282089, -36.625732, -640.783203
1733469615.334536, -3.200150, 4.644302, 6.145766, 0.088093, -0.849742, -4.526813, -78.011322, -38.736252, -640.091614
1733469615.344454, -2.441038, 4.408773, 5.919215, -0.051129, -0.987291, -4.440312, -78.286194, -40.818542, -639.098267
1733469615.354482, -1.717092, 4.233846, 5.768380, -0.223171, -1.124215, -4.331666, -78.600388, -42.706253, -639.474670
1733469615.364479, -1.019481, 4.068796, 5.626972, -0.405880, -1.282458, -4.189071, -78.719330, -44.500336, -638.787292
1733469615.374489, -0.270246, 3.848081, 5.315726, -0.574311, -1.408509, -4.015423, -79.063217, -46.388672, -638.340515
1733469615.384483, 0.615160, 3.853019, 4.991162, -0.748320, -1.521425, -3.775692, -79.179138, -47.980347, -637.549255
1733469615.394479, 1.537077, 3.786879, 4.929960, -0.942042, -1.661482, -3.487317, -79.022552, -49.613815, -637.102478
1733469615.404478, 2.313697, 3.511097, 4.803367, -1.159773, -1.803053, -3.169814, -79.386459, -50.700775, -636.550842
1733469615.414477, 2.838625, 3.154959, 4.396951, -1.374089, -1.886534, -2.854481, -79.515823, -51.675690, -635.661987
1733469615.424478, 3.247884, 2.733131, 3.760842, -1.551864, -1.912730, -2.534595, -79.768448, -52.813507, -634.883972
1733469615.434489, 3.628562, 2.110489, 3.221698, -1.697878, -1.944123, -2.225614, -79.679306, -53.512787, -634.751343
1733469615.444480, 3.839551, 1.617582, 2.918532, -1.801663, -2.030326, -1.934304, -79.775604, -54.216675, -633.546814
1733469615.454478, 4.025102, 1.272219, 2.481740, -1.857719, -2.097023, -1.652675, -80.058228, -54.584625, -633.398560
1733469615.464476, 4.400692, 1.040879, 2.022951, -1.896805, -2.130099, -1.340027, -80.294479, -54.879807, -632.814209
1733469615.474484, 4.934899, 1.061529, 1.785775, -1.937618, -2.174320, -0.993095, -80.499451, -55.073853, -632.009888
1733469615.484477, 5.428703, 1.120486, 1.698985, -1.989148, -2.245394, -0.609465, -80.644470, -55.105286, -631.525208
1733469615.494475, 5.869086, 1.149067, 1.577180, -2.071666, -2.331846, -0.204636, -81.138611, -54.803223, -630.693420
1733469615.504474, 6.125116, 1.220744, 1.371728, -2.198531, -2.385036, 0.193344, -81.605606, -54.427643, -630.213135
1733469615.514526, 6.099229, 1.496526, 1.164629, -2.380336, -2.431613, 0.564941, -81.999237, -53.673019, -628.681396
1733469615.524477, 5.967697, 1.998111, 0.963965, -2.594218, -2.520673, 0.918632, -82.369217, -52.883133, -628.429749
1733469615.534476, 5.782446, 2.741511, 0.754622, -2.785555, -2.735826, 1.261243, -82.926743, -51.987946, -627.488525
1733469615.544472, 5.717952, 3.611055, 0.336834, -2.884816, -3.089298, 1.623287, -83.067001, -51.079727, -625.829529
1733469615.554519, 5.825691, 4.319888, -0.433949, -2.857103, -3.553640, 2.049651, -83.859390, -49.616302, -625.196716
1733469615.564484, 5.694609, 4.861277, -1.517325, -2.701882, -4.039289, 2.504676, -84.142258, -48.093750, -623.397949
1733469615.574491, 5.310489, 5.678897, -2.738069, -2.442301, -4.488874, 2.983521, -84.288208, -46.488815, -621.419983
1733469615.584490, 4.790349, 6.906973, -4.291307, -2.085744, -4.865726, 3.571319, -84.405197, -44.414764, -618.770752
1733469615.594496, 4.471172, 7.991097, -6.255151, -1.680168, -5.069944, 4.293732, -84.388733, -42.031769, -616.388794
1733469615.604491, 3.869628, 9.547627, -8.247725, -1.388391, -4.913067, 5.046084, -83.599701, -39.338242, -613.580688
1733469615.614482, 2.309656, 11.851597, -9.555857, -1.260713, -4.597620, 5.886031, -82.840881, -36.292053, -611.169006
1733469615.624478, -0.062549, 14.012215, -10.856059, -1.060736, -4.084249, 6.732289, -81.979889, -32.802307, -608.855591
1733469615.634543, -3.415478, 15.321694, -12.268338, -0.874452, -3.345405, 7.448228, -80.716888, -29.199814, -607.352722
1733469615.644475, -8.209119, 15.554979, -12.790873, -0.969380, -2.471786, 7.824357, -79.347122, -25.442123, -605.536560
1733469615.654472, -13.782222, 14.543428, -12.764836, -1.397997, -1.554565, 7.717081, -77.941559, -21.754105, -605.444519
1733469615.664488, -18.788348, 13.186963, -13.755287, -1.947003, -0.652131, 7.225456, -76.320572, -18.688736, -604.489624
1733469615.674052, -22.256050, 11.609035, -16.463877, -2.251195, 0.091805, 6.498746, -74.881149, -16.095993, -604.485962
1733469615.684494, -23.860614, 10.654197, -19.396475, -2.135146, 0.427267, 5.733657, -73.126266, -13.857758, -603.810059
1733469615.694480, -23.516447, 11.265467, -21.593305, -1.577333, 0.274139, 5.129581, -71.521011, -12.064636, -603.075806
1733469615.704479, -22.192005, 12.713061, -23.132028, -0.609741, -0.266148, 4.780545, -69.825226, -10.126389, -602.851379
1733469615.714482, -21.168633, 13.888465, -24.020576, 0.636939, -0.892934, 4.619422, -68.038651, -8.478928, -602.488098
1733469615.724479, -21.537191, 14.565724, -24.024317, 1.945293, -1.360913, 4.506088, -66.319199, -6.584335, -602.756714
1733469615.734471, -23.161058, 14.332290, -22.472276, 3.014896, -1.683903, 4.256927, -64.866486, -4.852249, -603.480896
1733469615.744487, -25.009531, 13.493571, -20.170700, 3.798267, -1.745162, 3.917407, -62.765594, -3.098053, -603.082153
1733469615.754486, -26.574890, 12.707225, -18.577957, 4.432568, -1.403452, 3.584995, -61.142258, -1.600464, -605.142944
1733469615.764480, -28.135610, 12.080543, -16.427964, 4.851630, -0.902022, 3.207525, -59.822021, -0.246170, -606.538574
1733469615.774473, -29.576920, 11.763611, -13.513622, 5.009174, -0.356352, 2.797698, -58.552338, 0.834015, -608.605286
1733469615.784477, -30.727184, 11.644649, -11.141866, 4.974913, 0.181618, 2.295963, -57.952286, 1.618515, -610.570557
1733469615.794488, -31.066712, 11.268460, -8.462306, 4.762558, 0.417080, 1.732767, -57.548584, 2.131424, -612.376831
1733469615.804471, -30.342017, 11.227459, -6.065560, 4.527252, 0.337216, 1.175133, -56.861420, 2.364563, -614.037048
1733469615.814483, -29.520058, 11.771541, -4.983231, 4.471547, 0.059815, 0.682756, -56.366608, 2.556213, -616.108887
1733469615.824475, -28.920310, 13.020417, -5.052364, 4.681242, -0.127116, 0.371580, -55.844177, 2.661072, -617.648804
1733469615.834471, -29.229012, 14.057405, -5.696554, 4.974180, 0.022642, 0.147011, -55.673431, 2.741074, -619.782593
1733469615.844480, -30.966155, 14.368053, -5.381866, 5.032229, 0.489574, -0.250689, -55.901001, 2.262100, -621.472595
1733469615.854483, -32.574610, 13.817985, -4.231153, 4.876294, 1.115734, -0.811067, -56.616547, 1.799118, -624.747314
1733469615.864478, -33.184832, 13.325229, -3.179350, 4.730593, 1.722274, -1.495927, -57.344788, 0.764618, -627.096558
1733469615.874476, -32.261568, 12.921656, -1.753005, 4.682237, 1.954134, -2.212806, -58.283554, -0.546555, -629.407837
1733469615.884470, -29.609840, 12.972383, 0.064195, 4.811515, 1.718256, -2.814253, -59.327271, -2.150711, -631.836304
1733469615.894479, -26.081535, 13.230358, 1.820192, 5.114051, 1.151240, -3.227072, -60.531143, -3.956055, -633.781067
1733469615.904473, -22.612935, 12.997522, 3.742137, 5.494029, 0.460069, -3.456234, -61.772552, -6.159714, -636.131592
1733469615.913962, -20.158579, 12.596344, 5.743989, 5.815871, -0.095276, -3.557536, -63.212921, -8.639420, -637.644348
1733469615.924463, -18.838028, 11.993903, 8.054244, 5.838689, -0.434019, -3.617311, -64.472275, -11.081848, -639.160889
1733469615.934472, -18.233192, 10.759542, 10.909778, 5.387863, -0.658812, -3.740524, -65.926773, -13.561966, -640.865356
1733469615.943941, -17.837999, 9.124452, 13.454366, 4.510580, -0.768045, -3.933725, -67.274307, -16.284164, -640.954529
1733469615.954470, -16.985514, 7.503129, 14.346505, 3.431548, -0.643305, -4.135048, -68.778793, -18.602203, -642.092346
1733469615.964462, -15.714193, 6.235549, 14.021792, 2.355162, -0.396041, -4.319067, -70.025040, -21.053726, -642.395874
1733469615.974462, -14.403816, 5.598242, 13.346627, 1.434352, -0.267535, -4.457993, -71.009476, -22.901306, -642.364136
1733469615.984459, -12.950686, 5.273828, 12.124686, 0.758567, -0.298855, -4.571446, -72.189270, -24.901703, -642.726929
1733469615.994472, -11.668142, 5.045780, 10.638934, 0.307936, -0.448502, -4.689199, -73.289398, -26.899429, -642.441650
1733469616.004459, -10.465953, 4.812944, 9.230096, 0.020432, -0.653573, -4.803739, -74.253662, -29.084961, -642.259094
1733469616.014369, -9.382128, 4.578911, 7.999028, -0.163924, -0.847432, -4.905894, -75.142700, -31.130615, -642.020325
1733469616.023667, -8.298752, 4.326472, 6.814048, -0.300339, -0.949661, -4.984622, -75.967499, -33.247879, -641.253967
1733469616.034457, -7.145196, 4.319439, 6.124966, -0.426091, -1.027054, -5.010003, -76.582169, -35.359665, -640.817200
1733469616.044459, -5.865196, 4.481197, 5.856666, -0.543254, -1.127941, -4.969961, -77.105606, -37.299301, -639.611145
1733469616.054456, -4.473416, 4.845116, 5.623531, -0.645999, -1.262312, -4.856575, -77.938644, -39.357971, -639.990112
1733469616.064465, -3.090465, 5.128230, 5.551854, -0.759424, -1.461556, -4.694113, -78.670715, -41.260391, -639.062988
1733469616.074471, -1.859247, 5.117456, 5.332486, -0.908274, -1.613012, -4.496612, -78.776840, -42.955750, -638.197327
1733469616.084524, -0.865504, 5.040243, 4.675577, -1.075188, -1.626993, -4.262213, -79.368683, -44.719910, -637.947266
1733469616.094456, 0.090531, 5.093365, 3.931878, -1.253296, -1.528900, -3.990163, -79.286789, -46.028870, -637.436218
1733469616.104468, 1.203386, 5.188983, 3.479523, -1.419081, -1.454764, -3.667122, -79.545700, -47.514908, -636.479614
1733469616.114466, 2.290802, 5.196465, 3.074155, -1.515688, -1.419036, -3.292353, -79.645126, -48.662003, -636.636169
1733469616.124454, 3.187880, 5.082292, 2.617611, -1.529805, -1.423400, -2.885661, -79.779861, -49.585876, -635.918762
1733469616.134474, 3.741239, 4.770447, 2.469020, -1.516851, -1.484812, -2.494637, -79.930389, -50.403549, -635.437256
1733469616.144464, 3.991134, 4.212448, 2.455104, -1.530694, -1.542286, -2.148735, -80.104004, -51.105911, -634.136963
1733469616.154455, 3.962703, 3.460220, 2.577059, -1.620778, -1.585287, -1.864214, -80.317032, -51.631439, -634.391602
1733469616.164453, 3.900304, 2.829946, 2.801814, -1.778634, -1.620532, -1.630478, -80.527649, -51.971832, -634.407104
1733469616.173566, 4.054132, 2.426823, 2.861670, -1.972664, -1.628401, -1.408948, -80.527649, -51.971832, -634.407104
1733469616.184474, 4.332607, 2.188899, 2.845060, -2.181426, -1.619359, -1.176273, -80.657669, -52.167068, -633.201965
1733469616.194518, 4.633678, 2.109292, 2.972102, -2.405239, -1.644633, -0.926814, -80.970490, -52.299561, -633.158203
1733469616.204463, 4.893449, 2.239327, 3.172616, -2.633995, -1.756397, -0.672128, -81.241180, -52.192612, -632.893677
1733469616.214464, 5.273528, 2.254141, 3.309685, -2.874112, -1.925564, -0.400783, -81.507660, -52.076340, -632.272095
1733469616.224459, 5.531504, 2.244714, 3.199252, -3.125259, -2.053907, -0.100312, -81.801453, -51.597702, -631.902771
1733469616.234457, 5.787384, 2.475305, 2.830545, -3.394740, -2.130452, 0.234970, -82.119003, -51.046219, -631.650269
1733469616.244468, 6.165668, 2.884265, 2.559252, -3.680005, -2.217839, 0.617336, -82.527573, -50.197754, -630.788452
1733469616.254530, 6.226121, 3.413084, 2.246958, -3.993252, -2.315933, 0.989188, -82.968277, -49.209137, -629.384155
1733469616.264459, 5.794267, 4.212897, 1.780388, -4.326291, -2.447671, 1.294710, -83.264282, -48.168289, -629.069275
1733469616.274468, 5.399374, 5.161151, 1.284340, -4.629976, -2.715966, 1.585091, -83.595718, -46.680344, -628.331665
1733469616.284465, 5.259462, 6.235997, 0.751480, -4.817906, -3.192817, 1.926801, -83.809799, -45.199692, -627.448486
1733469616.294451, 4.943278, 7.436091, -0.212186, -4.884408, -3.692699, 2.362480, -83.780533, -43.510376, -625.809509
1733469616.304448, 4.175488, 9.017312, -1.864036, -4.960087, -3.934986, 2.885767, -84.085403, -41.569794, -623.703491
1733469616.314464, 3.096601, 11.030087, -3.705177, -5.151295, -3.894768, 3.452983, -83.776123, -39.049515, -621.650024
1733469616.324458, 1.584213, 13.471873, -5.537489, -5.451218, -3.639919, 4.055943, -83.523315, -36.719559, -619.269897
1733469616.334456, -0.137667, 16.351051, -8.060080, -5.718662, -3.163122, 4.703186, -82.634644, -33.961136, -617.100220
1733469616.344462, -1.947683, 19.011458, -11.530774, -5.783322, -2.464665, 5.402843, -82.033936, -31.040131, -615.710022
1733469616.354459, -4.220678, 20.917841, -15.774796, -5.538359, -1.557686, 6.078050, -81.144424, -28.017975, -614.005310
1733469616.364457, -6.769156, 21.809980, -19.536237, -5.081998, -0.695989, 6.621263, -80.005356, -24.656662, -613.143799
1733469616.374455, -10.101586, 21.626973, -22.252608, -4.436571, -0.082765, 6.799719, -78.725677, -21.584976, -612.510864
1733469616.384446, -13.932159, 20.154090, -24.474726, -3.579192, 0.235333, 6.549921, -77.832062, -18.541534, -611.450500
1733469616.394447, -16.644191, 18.092683, -25.417294, -2.654874, 0.172582, 5.973579, -76.745102, -15.794418, -611.018188
1733469616.404460, -17.539622, 15.811008, -25.116971, -1.777205, -0.146258, 5.241665, -75.656326, -13.473068, -610.496338
1733469616.414448, -16.746393, 14.689475, -23.658004, -1.081060, -0.783410, 4.617894, -73.569870, -11.596405, -609.913330
1733469616.424449, -14.469358, 14.176517, -22.011991, -0.435284, -1.569784, 4.322578, -72.083099, -9.753494, -608.946899
1733469616.434452, -13.149704, 14.398130, -21.834970, 0.326278, -2.192890, 4.276263, -70.112793, -8.322327, -608.089355
1733469616.444452, -13.334057, 14.544925, -21.956775, 1.158138, -2.565224, 4.355333, -68.540436, -6.389771, -607.712402
1733469616.454449, -14.528764, 14.200010, -21.784841, 1.943149, -2.602082, 4.388874, -66.781097, -4.835815, -607.211975
1733469616.464451, -16.463279, 13.578415, -21.031565, 2.499323, -2.331060, 4.270617, -65.066055, -3.240097, -607.318604
1733469616.474455, -18.012627, 13.199084, -19.261502, 2.753405, -2.011425, 4.023161, -63.668365, -1.793930, -607.403564
1733469616.484450, -18.915839, 13.385533, -16.859220, 2.850402, -1.915871, 3.693092, -61.612793, -0.521439, -607.898804
1733469616.494443, -19.009063, 14.016105, -15.031097, 3.022242, -2.052052, 3.497116, -59.835663, 0.366608, -608.677734
1733469616.504446, -19.317766, 14.709526, -14.363414, 3.407009, -2.203453, 3.424855, -58.404114, 1.786835, -608.886841
1733469616.514459, -21.260361, 14.679748, -14.064438, 3.870840, -2.219605, 3.286550, -56.612381, 2.919876, -610.114746
1733469616.524452, -24.051551, 13.701418, -13.407529, 4.215156, -2.040647, 2.946579, -55.222504, 4.006058, -611.093811
1733469616.534448, -26.904841, 12.469451, -12.576292, 4.405589, -1.683500, 2.395517, -54.168625, 4.602753, -612.236328
1733469616.544450, -28.624327, 11.710639, -11.640160, 4.488254, -1.284863, 1.797563, -53.279007, 5.048721, -614.338257
1733469616.554442, -29.004107, 11.768698, -10.701483, 4.551630, -0.877215, 1.264862, -52.502853, 5.379257, -615.927002
1733469616.564449, -28.781147, 12.108675, -9.690232, 4.644234, -0.562271, 0.831982, -51.960403, 5.617462, -617.375671
1733469616.574455, -28.808830, 12.591555, -8.631396, 4.786261, -0.327674, 0.443494, -52.031448, 5.433685, -619.408813
1733469616.584451, -29.068302, 12.338069, -7.704391, 4.917383, -0.170369, -0.036962, -52.065826, 4.982254, -621.747559
1733469616.594441, -29.038973, 11.826458, -6.811953, 5.043738, -0.067308, -0.580575, -52.436218, 4.588257, -623.940552
1733469616.604448, -28.589761, 12.012907, -6.103269, 5.213759, 0.115278, -1.108532, -53.156311, 3.630829, -625.823975
1733469616.614451, -27.674128, 12.224943, -4.940884, 5.348687, 0.230904, -1.617045, -53.939209, 2.598495, -628.207581
1733469616.624445, -26.407895, 12.488904, -2.993351, 5.395753, 0.166952, -2.101233, -55.142670, 1.233932, -630.634766
1733469616.634450, -25.132683, 12.908338, -1.335815, 5.389083, 0.043142, -2.520264, -56.136475, -0.362534, -632.698975
1733469616.644448, -23.889494, 13.167511, -0.287304, 5.362819, -0.006265, -2.870224, -57.410736, -2.099045, -634.365845
1733469616.654503, -22.619071, 12.750770, 0.711676, 5.280478, 0.038813, -3.195933, -59.084946, -4.185669, -636.698486
1733469616.664437, -21.403115, 11.909208, 1.899949, 5.083282, 0.147225, -3.543981, -60.757874, -6.369446, -638.414001
1733469616.674444, -20.093337, 11.155932, 3.058742, 4.779658, 0.301964, -3.894975, -62.032806, -8.451050, -640.157227
1733469616.684435, -18.360085, 10.511892, 4.213795, 4.407734, 0.406978, -4.205518, -63.700302, -11.201019, -641.912659
1733469616.694494, -16.364518, 9.927108, 5.415235, 4.011154, 0.359030, -4.460910, -65.105438, -13.865875, -642.949341
1733469616.704430, -14.271238, 9.435698, 6.405687, 3.622465, 0.160605, -4.655376, -66.546616, -16.528351, -643.908936
1733469616.714437, -12.320262, 8.810213, 6.913257, 3.263113, -0.117479, -4.795666, -67.786041, -19.282639, -644.712158
1733469616.724492, -10.756250, 8.159290, 7.048380, 2.921631, -0.414785, -4.895745, -68.890396, -21.679764, -644.972046
1733469616.734433, -9.396793, 7.656657, 6.922086, 2.596364, -0.664311, -4.944590, -70.117889, -24.494781, -645.235474
1733469616.744437, -8.127118, 7.179463, 6.819584, 2.279188, -0.904769, -4.952063, -71.336273, -27.189392, -644.552002
1733469616.754434, -7.018153, 6.579117, 6.714239, 1.968410, -1.130536, -4.927659, -72.337494, -29.545441, -645.292908
1733469616.764483, -6.131850, 6.059126, 6.437559, 1.658467, -1.296364, -4.888380, -73.393326, -31.976959, -644.463623
1733469616.774448, -5.278167, 5.533898, 6.028600, 1.356786, -1.384119, -4.829822, -74.235245, -34.521103, -644.390747
1733469616.784439, -4.504541, 5.036502, 5.805640, 1.071172, -1.448691, -4.762033, -75.042053, -36.930038, -643.765564
1733469616.794446, -3.762039, 4.554370, 5.601983, 0.788885, -1.474929, -4.679286, -75.861221, -39.139465, -642.971252
1733469616.804488, -3.006968, 4.224419, 5.347449, 0.508460, -1.471286, -4.579886, -76.312637, -41.161057, -642.777771
1733469616.814455, -2.357840, 3.945495, 5.228039, 0.232936, -1.492466, -4.492340, -76.652451, -43.197876, -642.272095
1733469616.824442, -1.784129, 3.714754, 5.191228, -0.033519, -1.574041, -4.415791, -77.119095, -44.930405, -641.203064
1733469616.834433, -1.111059, 3.610606, 5.047875, -0.266491, -1.694643, -4.305351, -77.333572, -46.954041, -640.678528
1733469616.844438, -0.220117, 3.558083, 4.739322, -0.479530, -1.785562, -4.148284, -77.573563, -48.791824, -639.472412
1733469616.854507, 0.784251, 3.548656, 4.693683, -0.692237, -1.940609, -3.923079, -77.859192, -50.136520, -639.384888
1733469616.864430, 1.890671, 3.579481, 4.577564, -0.917331, -2.039843, -3.615322, -77.997162, -51.420746, -638.713440
1733469616.874435, 2.971952, 3.527856, 4.084508, -1.160806, -2.064728, -3.233703, -77.821091, -52.534943, -638.041016
1733469616.884442, 3.677045, 3.328838, 3.780893, -1.396005, -2.085176, -2.821904, -78.069229, -53.639862, -637.468445
1733469616.894500, 4.047548, 2.953547, 3.411288, -1.597955, -2.085772, -2.424691, -78.212967, -54.156509, -636.840942
1733469616.904427, 4.197634, 2.480692, 3.013252, -1.767431, -2.069937, -2.052658, -78.630890, -54.801910, -636.171143
1733469616.914430, 4.278139, 1.858798, 2.717868, -1.945326, -2.047064, -1.716146, -78.817673, -55.115768, -635.740479
1733469616.924427, 4.282030, 1.297657, 2.441188, -2.132399, -1.998319, -1.409471, -79.045410, -55.304016, -635.640503
1733469616.934491, 4.309713, 0.898873, 2.010830, -2.316422, -1.865011, -1.120733, -79.235657, -55.177979, -635.154419
1733469616.944438, 4.453664, 0.559645, 1.671901, -2.511760, -1.706638, -0.841385, -79.173416, -55.226654, -634.001587
1733469616.954448, 4.641609, 0.395193, 1.509245, -2.732713, -1.536429, -0.568316, -79.880463, -54.738510, -634.605530
1733469616.964270, 4.890606, 0.516549, 1.449839, -2.987332, -1.407022, -0.306162, -80.302689, -54.234909, -634.191040
1733469616.974435, 5.177611, 0.858022, 1.608604, -3.264907, -1.406950, -0.032688, -80.418533, -53.730377, -634.230530
1733469616.984428, 5.329643, 1.433977, 1.692102, -3.543286, -1.520546, 0.239149, -80.615265, -52.997772, -634.055054
1733469616.994441, 5.310938, 2.127099, 1.442806, -3.791572, -1.781986, 0.466181, -81.134964, -51.991196, -633.956787
1733469617.004425, 5.315726, 2.699313, 0.934337, -3.947263, -2.225719, 0.702721, -81.741592, -50.734482, -633.100830
1733469617.014488, 5.454440, 3.379565, -0.034866, -3.947766, -2.820665, 0.974862, -82.123962, -49.484528, -632.303955
1733469617.024424, 5.532701, 4.030040, -1.091157, -3.820776, -3.564562, 1.282185, -82.586060, -48.230698, -630.453979
1733469617.034423, 5.397578, 4.791845, -2.190844, -3.570881, -4.338159, 1.668189, -83.090759, -46.631958, -628.239014
1733469617.043922, 4.795736, 5.850082, -3.414281, -3.272454, -4.965448, 2.124668, -83.475006, -44.952515, -625.422729
1733469617.054468, 3.818901, 7.148937, -4.377199, -3.036231, -5.423790, 2.642124, -83.804367, -43.102829, -623.341187
1733469617.064435, 2.721010, 8.555380, -4.901230, -2.906761, -5.763281, 3.192997, -83.898987, -41.015213, -619.943909
1733469617.074433, 1.273566, 9.744700, -5.696704, -2.865152, -5.928859, 3.736890, -83.717529, -38.761169, -616.987305
1733469617.084124, -0.418686, 10.753257, -6.938396, -2.849493, -5.910037, 4.251503, -83.418549, -36.196152, -614.006775
1733469617.094422, -2.255637, 11.513267, -8.947581, -2.774883, -5.643450, 4.727321, -82.674835, -33.553238, -611.367859
1733469617.104426, -4.414160, 12.400468, -11.408221, -2.607865, -5.140108, 5.132011, -81.739273, -30.979858, -608.832764
1733469617.114481, -6.887071, 13.370419, -13.744962, -2.341316, -4.508346, 5.417614, -80.668365, -28.178192, -606.291504
1733469617.124421, -9.370905, 13.827861, -16.081853, -1.923691, -3.743461, 5.571429, -79.359055, -25.657242, -604.621582
1733469617.134432, -11.606790, 14.144794, -18.532019, -1.351630, -2.815597, 5.627267, -77.963135, -23.150558, -603.459045
1733469617.144428, -13.117382, 14.138060, -20.259884, -0.701191, -1.825436, 5.656227, -76.455185, -20.296051, -602.123169
1733469617.154433, -14.110078, 14.498836, -20.896293, -0.094422, -0.874301, 5.713745, -75.134064, -17.888077, -602.937805
1733469617.164430, -14.773870, 15.531785, -20.535517, 0.399615, -0.128969, 5.822253, -73.865021, -15.337051, -603.377075
1733469617.174429, -15.244181, 15.793800, -19.216611, 0.824975, 0.216161, 5.889442, -72.427414, -12.918350, -603.361572
1733469617.184420, -16.267254, 15.904682, -17.534385, 1.197920, 0.137474, 5.826694, -70.732773, -10.525620, -603.558777
1733469617.194421, -17.620426, 15.907225, -15.594184, 1.543698, -0.486512, 5.581572, -68.788376, -8.345551, -603.328186
1733469617.204424, -19.104981, 15.709255, -14.087183, 1.970264, -1.444035, 5.182883, -66.903091, -6.313858, -603.487000
1733469617.214422, -20.647745, 15.494675, -13.909713, 2.543973, -2.369387, 4.744991, -64.500641, -4.487732, -603.254395
1733469617.224425, -22.247820, 15.391125, -14.531607, 3.279984, -2.967930, 4.373725, -62.095230, -2.692215, -603.556824
1733469617.234416, -24.307581, 15.072547, -14.915278, 4.042351, -3.109067, 4.014202, -60.019913, -1.185318, -604.437805
1733469617.244425, -26.690560, 14.037803, -14.755764, 4.699676, -2.670622, 3.654645, -58.773849, 0.250458, -604.668091
1733469617.254428, -29.116784, 13.431471, -13.821726, 5.130960, -1.776025, 3.248030, -57.136505, 1.918472, -606.837769
1733469617.264419, -30.874128, 13.307122, -11.886613, 5.187785, -0.701273, 2.808982, -56.049789, 2.490326, -609.332825
1733469617.273436, -31.366436, 13.295301, -9.479093, 5.002466, 0.217166, 2.448928, -55.971756, 3.425964, -611.102356
1733469617.284420, -31.471332, 13.356204, -7.074866, 4.788226, 0.692133, 2.059012, -55.027390, 4.064056, -613.454041
1733469617.294407, -31.605557, 13.010391, -4.864868, 4.668288, 0.588835, 1.582003, -54.431854, 4.315887, -615.540588
1733469617.304415, -31.188068, 12.612804, -3.829376, 4.829922, 0.213151, 1.122428, -53.867767, 4.464600, -617.833008
1733469617.314430, -31.003714, 12.313529, -3.640683, 5.199513, -0.173937, 0.612676, -53.529160, 4.130600, -619.998657
1733469617.324434, -30.924257, 12.066477, -2.804059, 5.532401, -0.516999, 0.112364, -53.514191, 3.838303, -622.388733
1733469617.334041, -31.104720, 12.293028, -1.787571, 5.764588, -0.631931, -0.378653, -53.891510, 3.404495, -625.038635
1733469617.343794, -31.678430, 12.246940, -1.019182, 5.882025, -0.463062, -0.929147, -54.803757, 2.196640, -626.454590
1733469617.354436, -31.857397, 11.496956, 0.268300, 5.820574, -0.227077, -1.582762, -55.872467, 1.107849, -629.492371
1733469617.364437, -31.311519, 10.822240, 1.969680, 5.595514, -0.044547, -2.293607, -57.326447, -0.516647, -631.307678
1733469617.374427, -29.638271, 10.813711, 3.275418, 5.283411, 0.088623, -2.932441, -58.962830, -2.219055, -633.520081
1733469617.384455, -27.087848, 11.155932, 4.328567, 4.985987, 0.120816, -3.440693, -60.558258, -4.335327, -635.322021
1733469617.394412, -24.230817, 11.429769, 5.106383, 4.721311, 0.095752, -3.811749, -62.137512, -6.452057, -636.692017
1733469617.404480, -21.453543, 11.318738, 5.784541, 4.456545, 0.036860, -4.048538, -63.740082, -8.834824, -638.415100
1733469617.414420, -19.068320, 10.985345, 6.254104, 4.187356, 0.060138, -4.194216, -65.421249, -11.243744, -639.190552
1733469617.424421, -17.118093, 10.262596, 6.613533, 3.866668, 0.141013, -4.291022, -66.846375, -13.657211, -640.519226
1733469617.434418, -15.314361, 9.331251, 7.141155, 3.045929, 0.394727, -4.387226, -68.004044, -15.872879, -641.524658
1733469617.444433, -13.724761, 8.579921, 7.579294, 2.570119, 0.513042, -4.412879, -69.383224, -18.292938, -641.319336
1733469617.454419, -11.006295, 7.195923, 8.111854, 2.090855, 0.529979, -4.438147, -70.196014, -20.627853, -643.178711
1733469617.464413, -9.857377, 6.692093, 8.151957, 1.653349, 0.441742, -4.461332, -71.090729, -22.966629, -643.326233
1733469617.474413, -8.865579, 6.312612, 7.796568, 1.289601, 0.261912, -4.494216, -72.075211, -25.127640, -643.496216
1733469617.484416, -7.883208, 5.838261, 7.192631, 1.020039, 0.016694, -4.528157, -72.821136, -27.209198, -643.458618
1733469617.494410, -6.943783, 5.351490, 6.706608, 0.805762, -0.273424, -4.543151, -73.440567, -29.303589, -643.570801
1733469617.504409, -6.125266, 5.030517, 6.274005, 0.621589, -0.564297, -4.529525, -74.378036, -31.314972, -643.588196
1733469617.514418, -5.462072, 4.700416, 5.789928, 0.453556, -0.794274, -4.511309, -75.060333, -33.457855, -643.242798
1733469617.524428, -4.867412, 4.306121, 5.450699, 0.266849, -0.973723, -4.494630, -75.555664, -35.573944, -642.676880
1733469617.534422, -4.260931, 3.985149, 5.178658, 0.035690, -1.075343, -4.466820, -76.430161, -37.359116, -642.396484
1733469617.544406, -3.627365, 3.923498, 4.888810, -0.228654, -1.118590, -4.411562, -76.715851, -39.223129, -641.115234
1733469617.554406, -3.026869, 3.840599, 4.594922, -0.490121, -1.119219, -4.337691, -76.895218, -41.039108, -641.525208
1733469617.564420, -2.401384, 3.715951, 4.279037, -0.739399, -1.122916, -4.240891, -77.453354, -42.874908, -641.272705
1733469617.574409, -1.621772, 3.592649, 4.048745, -0.941078, -1.170678, -4.109096, -77.775162, -44.339157, -640.420898
1733469617.584406, -0.776619, 3.509451, 3.838055, -1.093577, -1.248607, -3.928322, -77.823288, -45.744141, -640.146240
1733469617.594405, 0.084845, 3.429694, 3.718644, -1.241510, -1.350054, -3.715654, -78.166428, -47.183197, -639.730835
1733469617.604405, 0.765396, 3.301305, 3.787328, -1.422065, -1.465130, -3.468193, -78.078644, -48.489120, -639.486328
1733469617.614425, 1.413626, 3.071013, 3.442413, -1.615031, -1.475039, -3.184640, -78.393982, -49.381393, -638.562134
1733469617.624404, 1.926734, 2.776975, 2.906561, -1.813469, -1.355574, -2.888958, -78.082611, -50.413879, -638.569763
1733469617.634410, 2.352004, 2.511368, 2.510919, -2.018981, -1.166427, -2.595334, -78.167252, -51.013107, -638.376587
1733469617.644423, 2.787300, 2.309058, 2.228403, -2.211459, -0.979292, -2.285089, -78.008118, -51.588974, -637.949524
1733469617.654430, 3.346196, 2.038663, 2.092532, -2.363418, -0.874884, -1.971797, -78.258194, -51.821381, -638.436829
1733469617.664405, 3.812766, 1.641973, 2.105551, -2.467610, -0.889730, -1.671829, -78.619476, -52.203552, -638.412476
1733469617.674058, 4.102465, 1.240795, 2.260126, -2.543191, -1.045789, -1.403626, -78.619476, -52.203552, -638.412476
1733469617.684422, 4.179528, 0.981323, 2.522142, -2.615176, -1.292037, -1.167466, -79.131683, -52.055817, -637.990295
1733469617.694405, 4.160674, 0.825401, 2.663998, -2.730396, -1.550027, -0.955777, -79.134705, -51.952301, -637.683838
1733469617.704410, 4.104111, 0.837671, 2.864064, -2.905993, -1.818339, -0.767228, -79.134705, -51.952301, -637.683838
1733469617.714405, 4.049642, 1.003021, 3.026421, -3.132898, -2.095194, -0.576755, -79.606812, -51.604446, -637.346802
1733469617.724405, 4.157531, 1.251569, 2.937386, -3.374852, -2.349684, -0.358258, -79.767838, -51.302170, -636.621033
1733469617.734411, 4.277391, 1.617732, 2.619855, -3.619308, -2.556387, -0.120447, -80.424789, -50.448257, -635.663940
1733469617.744402, 4.229058, 2.315043, 2.351555, -3.871105, -2.777664, 0.129522, -80.608932, -49.723740, -635.120544
1733469617.754400, 4.221277, 3.027468, 2.065597, -4.101055, -3.048882, 0.393638, -81.344986, -49.078400, -633.531616
1733469617.764412, 4.132392, 3.746327, 1.622670, -4.262495, -3.398567, 0.659284, -81.822601, -48.135925, -633.180786
1733469617.774449, 3.867534, 4.744859, 1.133804, -4.345702, -3.871614, 0.925632, -82.207382, -47.006393, -632.008606
1733469617.784402, 3.618537, 5.975478, 0.577452, -4.324897, -4.502614, 1.243066, -83.042252, -45.865891, -630.365662
1733469617.794409, 3.494337, 7.389404, -0.157718, -4.141497, -5.306403, 1.624229, -83.729767, -44.677963, -628.122498
1733469617.804393, 3.276764, 8.753501, -1.192312, -3.744847, -6.228903, 2.102425, -83.897888, -43.135239, -625.387878
1733469617.814410, 2.778172, 10.403704, -2.251597, -3.194900, -7.208251, 2.717539, -84.010468, -41.701309, -622.323120
1733469617.824400, 1.681328, 12.474988, -3.085078, -2.634106, -8.024351, 3.490259, -83.801605, -39.666245, -618.449097
1733469617.834401, -0.003591, 14.574553, -4.593874, -2.219745, -8.257336, 4.386753, -83.086395, -37.535370, -613.766296
1733469617.844412, -2.290652, 16.292393, -6.504148, -2.029910, -7.831580, 5.282257, -82.054108, -34.911835, -609.560181
1733469617.854396, -5.371840, 17.406744, -8.253112, -2.004511, -6.932402, 6.044855, -80.786224, -32.176636, -604.544861
1733469617.864404, -9.122208, 18.198177, -10.707618, -2.035490, -5.541467, 6.595243, -79.444809, -28.951920, -601.975708
1733469617.874397, -12.797307, 18.352454, -13.946674, -2.040920, -3.754188, 6.927468, -77.617981, -25.993942, -599.356995
1733469617.884394, -15.774647, 18.392856, -17.171364, -1.983323, -1.770020, 7.086790, -75.699966, -22.817245, -597.806030
1733469617.894395, -17.802386, 18.786253, -19.734656, -1.847653, 0.068978, 7.128111, -74.246796, -20.029922, -597.000488
1733469617.904412, -19.443611, 19.468750, -20.569484, -1.586817, 1.123556, 7.004387, -72.714371, -17.374557, -597.095825
1733469617.914400, -20.854843, 19.818004, -19.457078, -1.067757, 0.982715, 6.693343, -71.573074, -14.970856, -597.680298
1733469617.924394, -22.465243, 20.450672, -18.268806, -0.189429, -0.152606, 6.208154, -70.063217, -12.597626, -597.667847
1733469617.934399, -24.258051, 20.232051, -18.048689, 0.993955, -1.714638, 5.568773, -67.848053, -10.503647, -597.596558
1733469617.944404, -26.174161, 18.933646, -18.945767, 2.279202, -2.986919, 4.813666, -65.782593, -8.243408, -597.217163
1733469617.954182, -27.839478, 17.132458, -20.027647, 3.434872, -3.632111, 4.028814, -63.458435, -6.211502, -596.650879
1733469617.964391, -28.650214, 15.375563, -20.361937, 4.442425, -3.555921, 3.389758, -60.829163, -4.285355, -596.980713
1733469617.974399, -28.831425, 14.408006, -20.071640, 5.252037, -2.815993, 2.942599, -59.031998, -2.494400, -597.333984
1733469617.984444, -28.440123, 14.122947, -18.189797, 5.787812, -1.736140, 2.744414, -57.323425, -0.925629, -598.134827
1733469617.994390, -28.261605, 14.466814, -14.944906, 6.033818, -0.619052, 2.656336, -56.393784, 0.513535, -600.735657
1733469618.004388, -29.014881, 14.699201, -11.214291, 5.995064, 0.272037, 2.520956, -55.302231, 1.908859, -602.964661
1733469618.014395, -30.039599, 14.519486, -7.710227, 5.762407, 0.779731, 2.298963, -54.264114, 2.975922, -605.353882
1733469618.024395, -31.206773, 13.899238, -5.324106, 5.486758, 0.934693, 1.867979, -53.992157, 3.952469, -607.686523
1733469618.034413, -32.384869, 13.077728, -3.905841, 5.296372, 0.776149, 1.285029, -53.126251, 4.628296, -610.563843
1733469618.044408, -32.935835, 12.681488, -3.593996, 5.296318, 0.508244, 0.642634, -53.086548, 4.989319, -613.019958
1733469618.054391, -33.022775, 12.487707, -3.950283, 5.410534, 0.253213, -0.053744, -52.947189, 5.093994, -615.183716
1733469618.064403, -32.461035, 12.924200, -4.001459, 5.589585, 0.061769, -0.692590, -52.973740, 4.974213, -617.481567
1733469618.074400, -31.569494, 13.894600, -3.743634, 5.832192, -0.077263, -1.232484, -53.286102, 4.577560, -620.002197
1733469618.084393, -30.867694, 14.592958, -3.329137, 6.088140, -0.029930, -1.716287, -53.877930, 3.793259, -622.780762
1733469618.094389, -30.297724, 14.849288, -2.404227, 6.240747, 0.142745, -2.208207, -54.928024, 2.786728, -625.444519
1733469618.104446, -29.594876, 14.724789, -0.704494, 6.222515, 0.369093, -2.739503, -56.029297, 1.350922, -628.066650
1733469618.114397, -28.303504, 14.546571, 1.149666, 6.040280, 0.499809, -3.287437, -57.514969, -0.328674, -630.575378
1733469618.124394, -26.163387, 14.199262, 2.994697, 5.781039, 0.507900, -3.777348, -58.763519, -2.295197, -633.233704
1733469618.134403, -23.710677, 14.201058, 4.330812, 5.522905, 0.472172, -4.151812, -60.549911, -4.634750, -635.094604
1733469618.144398, -21.267693, 14.052318, 5.439028, 5.272544, 0.411077, -4.413735, -62.152206, -7.105698, -637.338745
1733469618.154401, -18.931252, 13.454366, 6.460005, 4.996243, 0.318513, -4.591119, -63.892578, -9.656265, -638.702148
1733469618.164394, -16.765247, 12.691513, 7.292289, 4.688957, 0.216531, -4.700786, -65.401642, -12.586884, -640.068909
1733469618.174387, -14.709077, 11.999589, 7.874679, 4.355030, 0.137414, -4.732446, -66.846130, -15.473541, -641.678345
1733469618.184394, -12.889933, 11.035923, 8.357559, 3.980362, 0.091280, -4.748139, -68.203400, -18.190201, -642.471558
1733469618.194390, -11.285518, 9.837026, 8.803031, 3.551658, 0.034969, -4.759748, -69.575668, -21.293228, -643.402527
1733469618.204383, -9.771036, 8.795848, 9.276185, 3.094393, -0.077927, -4.759274, -70.653839, -23.956497, -643.798340
1733469618.214383, -8.438962, 8.028057, 9.679308, 2.617958, -0.255015, -4.756499, -71.825272, -26.368622, -644.241272
1733469618.224435, -7.244256, 7.283461, 9.929652, 2.135003, -0.489915, -4.751656, -72.776779, -28.983658, -644.541382
1733469618.234399, -6.070498, 6.637026, 10.002077, 1.663199, -0.775056, -4.711810, -73.531601, -31.330200, -644.306519
1733469618.244397, -4.896292, 6.066757, 9.853935, 1.221466, -1.069406, -4.628836, -74.213043, -34.032715, -643.705505
1733469618.254383, -3.801693, 5.594202, 9.562441, 0.795963, -1.324282, -4.510847, -75.048004, -35.953979, -643.295898
1733469618.264401, -2.916287, 5.256619, 9.249998, 0.335213, -1.484925, -4.369186, -75.822174, -37.954269, -642.590820
1733469618.274399, -2.227954, 4.865916, 8.835352, -0.165188, -1.535587, -4.219181, -76.368378, -39.658951, -642.212646
1733469618.284405, -1.747917, 4.595670, 8.132355, -0.652400, -1.483069, -4.074199, -76.862152, -41.579361, -641.811890
1733469618.294392, -1.386692, 4.501847, 7.196372, -1.071515, -1.347315, -3.930345, -77.433731, -42.885544, -640.832520
1733469618.304391, -0.925359, 4.335750, 6.237793, -1.402484, -1.203822, -3.779741, -77.509613, -44.337646, -640.533997
1733469618.314387, -0.438737, 4.039168, 5.526117, -1.649090, -1.101336, -3.640457, -77.877579, -45.383301, -640.352173
1733469618.324386, 0.045041, 3.603722, 4.905270, -1.821858, -1.051340, -3.510665, -77.975418, -46.800064, -639.786621
1733469618.334404, 0.519691, 3.236212, 4.447978, -1.922973, -1.071718, -3.377966, -77.946304, -47.942215, -640.147949
1733469618.344383, 0.964863, 3.015347, 4.229507, -1.974675, -1.175163, -3.231847, -78.047394, -48.879990, -638.665222
1733469618.354390, 1.368586, 2.801366, 4.162469, -2.013890, -1.356102, -3.076989, -78.017639, -49.827286, -639.060059
1733469618.364390, 1.887978, 2.595315, 4.197335, -2.068645, -1.589876, -2.898654, -78.114319, -50.598785, -638.724182
1733469618.374435, 2.360832, 2.385223, 4.148553, -2.149890, -1.827350, -2.697921, -78.153931, -51.315735, -637.938782
1733469618.384383, 2.794632, 2.127847, 3.882048, -2.267147, -1.984095, -2.477868, -78.514389, -51.903168, -637.649170
1733469618.394376, 3.310283, 1.893065, 3.465906, -2.417130, -2.063213, -2.201524, -78.810913, -52.492371, -637.329834
1733469618.404377, 3.868581, 1.916858, 3.142539, -2.584154, -2.101895, -1.884258, -78.847809, -52.824448, -636.629578
1733469618.414382, 4.336947, 1.966537, 2.761562, -2.735160, -2.111084, -1.540500, -79.254181, -53.031250, -635.939392
1733469618.424384, 4.837036, 2.034772, 2.355894, -2.858341, -2.109024, -1.175097, -79.487793, -52.928360, -635.363953
1733469618.434389, 5.271583, 2.182464, 2.286612, -2.987815, -2.194486, -0.796977, -79.684921, -52.714783, -635.023438
1733469618.444384, 5.561730, 2.387917, 2.384774, -3.130065, -2.391378, -0.411693, -80.360397, -52.371353, -633.709778
1733469618.454439, 5.686528, 2.554763, 2.218228, -3.284909, -2.639314, -0.035871, -80.931717, -51.672302, -633.468750
1733469618.464386, 5.721394, 2.644994, 1.806724, -3.449071, -2.912305, 0.328342, -81.462646, -50.808884, -632.341309
1733469618.474378, 5.599888, 2.883367, 1.219098, -3.601429, -3.200740, 0.678308, -81.915344, -50.139481, -631.738403
1733469618.484437, 5.451747, 3.507505, 0.666187, -3.737657, -3.561780, 1.018646, -82.657944, -48.975098, -630.464783
1733469618.494371, 5.409100, 4.469974, 0.264709, -3.811170, -4.100091, 1.384183, -83.151505, -47.796387, -628.499634
1733469618.504373, 5.365556, 5.516989, -0.385018, -3.767002, -4.818233, 1.815727, -83.734161, -46.382584, -626.121582
1733469618.514393, 5.231031, 6.352416, -1.375918, -3.546528, -5.637531, 2.332915, -83.995987, -44.820053, -623.937500
1733469618.524377, 4.491522, 7.518990, -2.367566, -3.181540, -6.495834, 2.911992, -84.103058, -42.883698, -620.582397
1733469618.534389, 3.221249, 9.123554, -3.277662, -2.789693, -7.238014, 3.584553, -83.753067, -40.699036, -616.525330
1733469618.544371, 1.444601, 11.066150, -4.416554, -2.470112, -7.647763, 4.337278, -83.322998, -38.436539, -612.357910
1733469618.554368, -1.068412, 12.962208, -5.962909, -2.253153, -7.644136, 5.057610, -82.570480, -35.474579, -608.764160
1733469618.564382, -3.980360, 14.116961, -7.954735, -2.026789, -7.279539, 5.707466, -81.440887, -32.843079, -605.679749
1733469618.574442, -7.478289, 14.692018, -10.474483, -1.745699, -6.519156, 6.155941, -79.973572, -29.742767, -601.794617
1733469618.584371, -11.423784, 14.248792, -13.072042, -1.414170, -5.450631, 6.303363, -78.104889, -26.925446, -599.116272
1733469618.594372, -15.041572, 13.355006, -15.706262, -1.025050, -3.999319, 6.273264, -76.277069, -23.960846, -597.187256
1733469618.604002, -17.690606, 13.101371, -18.492065, -0.638706, -2.176821, 6.183277, -74.499512, -21.267319, -596.346741
1733469618.614376, -19.359664, 13.372963, -19.788675, -0.322152, -0.374840, 6.065034, -73.053345, -18.872284, -596.178040
1733469618.624553, -20.056227, 14.361469, -19.329437, -0.069036, 1.001506, 5.998352, -72.042358, -16.523697, -596.702576
1733469618.634425, -19.728371, 15.723470, -17.898154, 0.251346, 1.626476, 5.998950, -70.893784, -14.248657, -598.070190
1733469618.644510, -19.604771, 17.051953, -15.887623, 0.648858, 1.413085, 5.954250, -69.420090, -11.869736, -598.018433
1733469618.654441, -20.136583, 17.795802, -13.941736, 1.114744, 0.511017, 5.800127, -67.878510, -9.475769, -598.691467
1733469618.664478, -21.384261, 16.991649, -12.811373, 1.626056, -0.772258, 5.420596, -66.265091, -7.406952, -598.895691
1733469618.674453, -23.385814, 15.266028, -12.678046, 2.241562, -2.069257, 4.825551, -64.136948, -5.447250, -599.261719
1733469618.684403, -25.937284, 13.430873, -13.564350, 2.964362, -3.002691, 4.042685, -62.000076, -3.711365, -599.244690
1733469618.694375, -28.168680, 11.836185, -14.434343, 3.677404, -3.412807, 3.222849, -59.701096, -2.178879, -599.142395
1733469618.704367, -29.404687, 10.937761, -15.004611, 4.395143, -3.187636, 2.542788, -58.041473, -0.637054, -599.878174
1733469618.714367, -29.899090, 10.849026, -14.868142, 5.028309, -2.393174, 2.070472, -56.511261, 0.429138, -601.192993
1733469618.724374, -29.847315, 11.452514, -13.113042, 5.430285, -1.317946, 1.849423, -55.803009, 1.544449, -603.215576
1733469618.734369, -30.078505, 12.311434, -10.228179, 5.538464, -0.194690, 1.719724, -55.228729, 2.693588, -605.455200
1733469618.744375, -31.190013, 12.637045, -6.925378, 5.306303, 0.645229, 1.444572, -55.209320, 3.226181, -606.977844
1733469618.754366, -32.161311, 12.128577, -3.491195, 4.879715, 0.899695, 0.956701, -55.096970, 3.738022, -610.035400
1733469618.764367, -32.619202, 11.358242, -1.162235, 4.550816, 0.539500, 0.296202, -55.144470, 3.802307, -612.608215
1733469618.774376, -32.503382, 11.032781, -0.379631, 4.553164, -0.181439, -0.407460, -55.200592, 3.657578, -614.076416
1733469618.784374, -31.978005, 11.219379, -1.201440, 4.885555, -0.762442, -1.064442, -55.573761, 3.526108, -615.954102
1733469618.794367, -31.380801, 11.816283, -1.866879, 5.341238, -1.044363, -1.624372, -56.163162, 2.892838, -617.922974
1733469618.804373, -30.812926, 12.517485, -1.614889, 5.733521, -0.990310, -2.099585, -57.334930, 2.389862, -619.811707
1733469618.814374, -30.428358, 12.951434, -0.696713, 5.950574, -0.643621, -2.559494, -58.787949, 1.084869, -622.301392
1733469618.824375, -29.954904, 13.039421, 1.153856, 5.911245, -0.228658, -3.062631, -60.079758, -0.327591, -625.028687
1733469618.833886, -28.928690, 13.016227, 3.761590, 5.632157, 0.044435, -3.574478, -61.796036, -2.038818, -627.147034
1733469618.844366, -27.320086, 13.100922, 5.857265, 5.254297, 0.223447, -4.038869, -63.410156, -4.218491, -628.431396
1733469618.854417, -25.374946, 13.340941, 7.057358, 4.884780, 0.341832, -4.419386, -65.291428, -6.309113, -631.033691
1733469618.864360, -23.249045, 13.214048, 7.794024, 4.558115, 0.422526, -4.731963, -66.946472, -8.834122, -632.243408
1733469618.874363, -21.050569, 12.722189, 8.340052, 4.231749, 0.453593, -4.977034, -68.910660, -11.410828, -633.701294
1733469618.884368, -18.789395, 12.417377, 8.961497, 3.888615, 0.387647, -5.138871, -70.653610, -14.054398, -634.582642
1733469618.894434, -16.557550, 11.854441, 9.280823, 3.538748, 0.298011, -5.245252, -72.027634, -16.794952, -635.364502
1733469618.904376, -14.449905, 11.082011, 9.464279, 3.183458, 0.197333, -5.294406, -73.622696, -19.746658, -636.401978
1733469618.914369, -12.562526, 10.312425, 9.659257, 2.801727, 0.075342, -5.313312, -74.665222, -22.610535, -636.538818
1733469618.924360, -10.990134, 9.583989, 9.903466, 2.389896, -0.086408, -5.318404, -75.675751, -25.346436, -637.228394
1733469618.934375, -9.587581, 8.852411, 9.963021, 1.981266, -0.288190, -5.318903, -77.153305, -28.024460, -637.101257
1733469618.944359, -8.320150, 8.221988, 9.667188, 1.606701, -0.458127, -5.290942, -77.722885, -30.672012, -636.567078
1733469618.954359, -7.099556, 7.610569, 9.282320, 1.261012, -0.608468, -5.243375, -78.517761, -33.330490, -636.984863
1733469618.964368, -5.843648, 7.228244, 9.026739, 0.908198, -0.740071, -5.137521, -78.857849, -36.032593, -636.786743
1733469618.974358, -4.645350, 6.906823, 8.706365, 0.546787, -0.831492, -4.982483, -79.149719, -38.349030, -636.497864
1733469618.984357, -3.679140, 6.509834, 8.361001, 0.179804, -0.865413, -4.808643, -79.749466, -40.406143, -635.996460
1733469618.994357, -2.792836, 6.165518, 7.950844, -0.164564, -0.880976, -4.618398, -79.962784, -42.494980, -635.035583
1733469619.004372, -1.950975, 5.832724, 7.563283, -0.483536, -0.877814, -4.411915, -80.134186, -44.426743, -634.978821
1733469619.014356, -1.191265, 5.536142, 7.125743, -0.791305, -0.846438, -4.181887, -80.380295, -46.146591, -634.603516
1733469619.024352, -0.363470, 5.178209, 6.575226, -1.068302, -0.763652, -3.923085, -80.061203, -47.765701, -634.674316
1733469619.034364, 0.232238, 4.608838, 6.195146, -1.315809, -0.717999, -3.682925, -80.079239, -49.367264, -634.836182
1733469619.044384, 0.552163, 4.063409, 5.897218, -1.524413, -0.711687, -3.490266, -80.188843, -50.537308, -633.930664
1733469619.054352, 0.894384, 3.582923, 5.573402, -1.687260, -0.768407, -3.326553, -80.057739, -51.603180, -634.289307
1733469619.064365, 1.345990, 3.133711, 5.310938, -1.816233, -0.905231, -3.175185, -80.007614, -52.688675, -633.729614
1733469619.074366, 1.943643, 2.737770, 5.111770, -1.915859, -1.116006, -3.002382, -79.615860, -53.708527, -633.579346
1733469619.084357, 2.602796, 2.555062, 4.564994, -1.983887, -1.254133, -2.773483, -79.700424, -54.657944, -633.552673
1733469619.094355, 3.312977, 2.469619, 3.953874, -2.040719, -1.361887, -2.495224, -79.677963, -55.357178, -633.294006
1733469619.104357, 4.059818, 2.304419, 3.714305, -2.102119, -1.481894, -2.167058, -79.373520, -56.013840, -632.965820
1733469619.114358, 4.736180, 2.124106, 3.420117, -2.164915, -1.586740, -1.790159, -79.955093, -56.202148, -632.349792
1733469619.124363, 5.074959, 1.827225, 3.012355, -2.234310, -1.641686, -1.414112, -80.082306, -56.238815, -631.624390
1733469619.134363, 5.133767, 1.355417, 2.620903, -2.307445, -1.687507, -1.071524, -80.331299, -56.075500, -631.462158
1733469619.144358, 5.186888, 0.929399, 2.432359, -2.371944, -1.774366, -0.758672, -80.261063, -56.264221, -630.675842
1733469619.154353, 5.252130, 0.526874, 2.342577, -2.442261, -1.923052, -0.471716, -80.784058, -56.066162, -630.987305
1733469619.164360, 5.292532, 0.233435, 2.229900, -2.531160, -2.077926, -0.204422, -81.101364, -55.631866, -630.796692
1733469619.174352, 5.310040, 0.206949, 2.132485, -2.659082, -2.245893, 0.063461, -81.627625, -55.030121, -629.856384
1733469619.184347, 5.283853, 0.450858, 2.006790, -2.823287, -2.410177, 0.335123, -81.925369, -54.326996, -629.011780
1733469619.194373, 5.261258, 0.867599, 1.829918, -3.008211, -2.588392, 0.613984, -81.925369, -54.326996, -629.011780
1733469619.204376, 5.084087, 1.586458, 1.605013, -3.194941, -2.795465, 0.892356, -82.192703, -53.504364, -628.091553
1733469619.214365, 4.898237, 2.717120, 1.306486, -3.346509, -3.081425, 1.199869, -82.905182, -52.422272, -627.232971
1733469619.224419, 5.036652, 3.572149, 0.858172, -3.430891, -3.459435, 1.573942, -83.091614, -51.548676, -626.063110
1733469619.234357, 5.206192, 4.239982, 0.060454, -3.439475, -3.881101, 2.026528, -83.799530, -50.226715, -624.396545
1733469619.244346, 5.075857, 5.179406, -0.777517, -3.386413, -4.307042, 2.529768, -83.900558, -48.657471, -622.826843
1733469619.254350, 4.742465, 6.193500, -1.814356, -3.299198, -4.665173, 3.091793, -84.362503, -46.866302, -620.069336
1733469619.264353, 4.061913, 7.307403, -2.988113, -3.178159, -4.934535, 3.696306, -84.266525, -44.700272, -618.488281
1733469619.274345, 2.863316, 8.852112, -4.248361, -3.008310, -5.092268, 4.319198, -84.413589, -42.310410, -615.871460
1733469619.284343, 1.362600, 9.896433, -5.969493, -2.738243, -5.030160, 4.929358, -83.860748, -39.600540, -613.330383
1733469619.294356, -0.426916, 10.801441, -8.047959, -2.405459, -4.623208, 5.525805, -82.983002, -36.856216, -610.720276
1733469619.304349, -2.866907, 12.116905, -9.567230, -2.226010, -3.961785, 6.042568, -82.546722, -33.916412, -608.888306
1733469619.314369, -5.661239, 12.799851, -10.091111, -2.289973, -3.238643, 6.378092, -81.784760, -31.075165, -607.307861
1733469619.324356, -8.486697, 12.775310, -11.088895, -2.417904, -2.514172, 6.490043, -80.642807, -27.684525, -605.508301
1733469619.334360, -11.236587, 12.858359, -12.844742, -2.386598, -1.837765, 6.416938, -79.359421, -24.838013, -604.124084
1733469619.344366, -13.520655, 13.204022, -14.361170, -2.135478, -1.406470, 6.232517, -77.838699, -22.050903, -603.006104
1733469619.354356, -15.216648, 14.069975, -15.343840, -1.712676, -1.177177, 6.034115, -76.148239, -19.732849, -601.453918
