SamplingTime, AccelerationX, AccelerationY, AccelerationZ, GyroX, GyroY, GyroZ, MagneticFieldX, MagneticFieldY, MagneticFieldZ
1733469839.276247, -0.684442, -5.382016, -10.922049, 0.310011, 0.711857, -0.133923, -11.271103, -46.132416, -657.594299
1733469839.286228, -0.573112, -5.667075, -9.760412, 0.497757, 0.241989, -0.134410, -11.231308, -46.476944, -657.150208
1733469839.296233, -0.558597, -6.110003, -10.219351, 0.891196, -0.099839, -0.189230, -11.307602, -46.727585, -657.760986
1733469839.306249, -1.299154, -6.433669, -10.780192, 1.250122, -0.227706, -0.432622, -11.461563, -47.207306, -657.747925
1733469839.316237, -1.859547, -6.618621, -10.513538, 1.414847, -0.295375, -0.691410, -11.044968, -47.300568, -657.506592
1733469839.326219, -1.594838, -7.023690, -10.349086, 1.314168, -0.075489, -0.807750, -10.888702, -47.562881, -657.620789
1733469839.336121, -1.375020, -7.746739, -10.754754, 1.057235, 0.433441, -0.862362, -10.570053, -47.988113, -656.509766
1733469839.346246, -1.870769, -7.937676, -10.845434, 0.956017, 0.745785, -0.959298, -10.436066, -48.361084, -656.817749
1733469839.355260, -2.003199, -7.266701, -10.136152, 1.177645, 0.529382, -1.073774, -10.501328, -48.647461, -656.030640
1733469839.365560, -0.915632, -6.691494, -9.616311, 1.483024, 0.017713, -1.138040, -9.630936, -48.724030, -656.202393
1733469839.375890, 0.782305, -5.318869, -9.197775, 1.649046, -0.323972, -0.905602, -9.604065, -48.958618, -655.919800
1733469839.386196, 2.453159, -3.778050, -9.466524, 1.617867, -0.047036, -0.344401, -9.006561, -49.709915, -655.040955
1733469839.396246, 3.469797, -2.280477, -9.659706, 1.524889, 0.394437, 0.444428, -9.564148, -50.669983, -655.655029
1733469839.406229, 2.449568, -3.593996, -9.037662, 1.489827, 0.758757, 0.962118, -10.633041, -51.673019, -655.048889
1733469839.416229, 1.657835, -6.422596, -7.741801, 1.253949, 0.872779, 0.859040, -10.691254, -52.475861, -655.287476
1733469839.426228, 0.732626, -8.664915, -5.684284, 0.828119, 0.735345, 0.367137, -9.890961, -52.561722, -655.171875
1733469839.436227, -0.872088, -9.133730, -4.956746, 0.526076, 0.789614, -0.214715, -9.175735, -52.824173, -654.516479
1733469839.445317, -2.296039, -7.853430, -3.928586, 0.266117, 0.162774, -0.659389, -9.793808, -52.476974, -654.439575
1733469839.456244, -2.977489, -7.829189, -1.754202, -0.256689, -0.920778, -1.255353, -9.627838, -52.075409, -654.523743
1733469839.466225, -1.915511, -7.834726, -1.829320, -0.725304, -2.091880, -1.657740, -10.236038, -51.265442, -655.715332
1733469839.476227, -0.450260, -7.090578, -3.656844, -0.877936, -2.874321, -1.812228, -11.046112, -50.299042, -656.499634
1733469839.486231, 0.211438, -4.804714, -5.876718, -0.818516, -3.165273, -1.791513, -12.025986, -49.342911, -657.337219
1733469839.496245, 0.799065, -3.313276, -8.052598, -0.581730, -3.056893, -1.633774, -12.871445, -48.950333, -658.329590
1733469839.505646, 1.280150, -2.781464, -9.955988, -0.212308, -2.689832, -1.406321, -13.831528, -48.371460, -658.665527
1733469839.516231, 0.947655, -2.955343, -12.127829, 0.000319, -1.308749, -1.280939, -14.481400, -48.289474, -659.229309
1733469839.526230, 0.578948, -3.430442, -12.146384, 0.409107, -0.551951, -1.205446, -14.120193, -48.362473, -659.161255
1733469839.536237, 0.501735, -2.628833, -9.370756, 0.769912, 0.054064, -1.122984, -13.987793, -48.753830, -658.535034
1733469839.545351, 0.408960, -2.378041, -8.555979, 1.190530, 0.379643, -1.000245, -13.579391, -49.021469, -658.734131
1733469839.556236, 0.549769, -2.173935, -7.272238, 1.541301, 0.435524, -0.847448, -13.353378, -49.509277, -657.962402
1733469839.566232, 0.347459, -2.410063, -5.057302, 1.651377, 0.050748, -0.708601, -13.790039, -50.099457, -658.348145
1733469839.576222, -0.115520, -3.709815, -2.573617, 1.387007, -0.747433, -0.711107, -14.021118, -50.360962, -658.955139
1733469839.586226, -1.237204, -4.915595, 0.030077, 0.875319, -1.720705, -0.894464, -14.742920, -50.235931, -658.596741
1733469839.596227, -1.846528, -5.149479, 0.748936, 0.324512, -2.603127, -1.102203, -16.081131, -50.164536, -660.173462
1733469839.606226, -2.086547, -5.041590, -0.609175, -0.096026, -3.194981, -1.194296, -17.262497, -49.871994, -660.268127
1733469839.616239, -2.169296, -4.717026, -3.096900, -0.360791, -3.216407, -1.189209, -18.706070, -49.326157, -660.274841
1733469839.626272, -1.973870, -3.948637, -4.685752, -0.596800, -2.527336, -1.259468, -19.649414, -48.520355, -661.881409
1733469839.636249, -0.890942, -3.699490, -6.123769, -0.880078, -1.195788, -1.413634, -20.133102, -47.999176, -661.454224
1733469839.645377, 4.720617, -5.420473, -5.928791, -1.095623, -0.418498, -1.078040, -19.635452, -47.411011, -662.483276
1733469839.656225, 10.226533, -6.785018, -4.055329, -1.231359, -0.489873, -0.387147, -19.199188, -46.902878, -661.774719
1733469839.666271, 7.539341, -4.293552, -3.308188, -1.282408, -0.533997, 0.297589, -19.103134, -46.437256, -661.463501
1733469839.676220, 4.173393, -1.794753, -2.156727, -1.231374, -0.605517, 1.012891, -19.775681, -46.241394, -662.965881
1733469839.686221, 2.975394, -0.569670, -0.691924, -1.076250, -0.764084, 1.795864, -21.528976, -46.307587, -662.599243
1733469839.696230, 2.417695, -0.308403, -0.030227, -0.958968, -1.136898, 2.193266, -23.192123, -46.159897, -663.543152
1733469839.706224, 1.628356, -1.781436, 0.753425, -1.173585, -1.885178, 1.753120, -23.594040, -45.720825, -663.123169
1733469839.716237, 0.220715, -3.336919, 1.292869, -1.482207, -2.529557, 1.151531, -24.521729, -45.051254, -663.493896
1733469839.726275, -0.493056, -2.816928, 0.310348, -1.466190, -2.885246, 0.945592, -26.099136, -44.452072, -664.875977
1733469839.736238, 0.112378, -2.179771, -1.111807, -1.232135, -3.004884, 0.870858, -27.721100, -44.021484, -663.994507
1733469839.746237, 1.508646, -1.711854, -1.684620, -0.936560, -3.152624, 0.956997, -29.319824, -43.794113, -665.124451
1733469839.756235, 2.715923, -0.581941, -0.765546, -0.678152, -3.612143, 1.172686, -30.938980, -43.410126, -664.090332
1733469839.766235, 3.363255, 0.661548, -0.756867, -0.571808, -3.422397, 1.435571, -32.850922, -43.405182, -664.743347
1733469839.776222, 3.143288, 2.019659, -3.542820, -0.720563, -3.355600, 1.626051, -34.981537, -42.771133, -665.772827
1733469839.786219, 3.432687, 2.644845, 1.800589, -1.065560, -3.614572, 1.797138, -37.141830, -42.195633, -664.934326
1733469839.796240, 1.977760, 3.117400, 2.814534, -1.671825, -4.262664, 1.782086, -39.425797, -41.196335, -665.571594
1733469839.806230, 1.062128, 3.799299, 3.815609, -2.222338, -5.227463, 1.798113, -42.131210, -39.872772, -664.982483
1733469839.816241, 1.405097, 4.649390, 2.499846, -2.440081, -6.026180, 2.045464, -44.518570, -38.573792, -663.755371
1733469839.826213, 1.765125, 5.953033, -0.229843, -2.376598, -6.635602, 2.558181, -46.747192, -36.794128, -663.347046
1733469839.836224, 1.832013, 7.745691, -2.136675, -2.309845, -6.707193, 3.347731, -49.258133, -35.228088, -661.629639
1733469839.846218, 2.014721, 9.846454, -5.689371, -2.321985, -6.326991, 4.350631, -51.687546, -33.468872, -660.770691
1733469839.856228, 0.930297, 11.414356, -7.407211, -2.260246, -5.931506, 5.311862, -53.511139, -31.452530, -659.839539
1733469839.866233, -2.474557, 11.757475, -9.627833, -2.109691, -5.348064, 6.007344, -55.129807, -29.397018, -658.342773
1733469839.876222, -6.217293, 11.090690, -11.533917, -1.930757, -4.720172, 6.362586, -55.662903, -27.012329, -657.815063
1733469839.886213, -9.479841, 10.412982, -12.654254, -1.845062, -4.066216, 6.485318, -56.160019, -24.645477, -656.445557
1733469839.896230, -11.892897, 10.360159, -14.274978, -1.888663, -3.243661, 6.513700, -56.529892, -22.542114, -655.054871
1733469839.906222, -13.628843, 10.521319, -15.681572, -2.023731, -2.610444, 6.412383, -55.834717, -20.183334, -654.482971
1733469839.916212, -15.841983, 10.937461, -17.205182, -1.998063, -2.271790, 6.191905, -55.489731, -18.150558, -653.418030
1733469839.926215, -17.864485, 11.921628, -19.605668, -1.606295, -2.140699, 5.953223, -55.167160, -16.336395, -652.222168
1733469839.936216, -19.530550, 12.253524, -22.096686, -0.785773, -2.230798, 5.687832, -54.470108, -15.175491, -652.549500
1733469839.946216, -21.020791, 12.145635, -24.507347, 0.331427, -2.236900, 5.411952, -53.971832, -14.617859, -652.097717
1733469839.956220, -22.631790, 11.266514, -26.320955, 1.392050, -1.835015, 5.027514, -53.129303, -14.074631, -652.180054
1733469839.966213, -24.244584, 9.745299, -26.494834, 2.170498, -1.259582, 4.535528, -52.252060, -14.215988, -652.699707
1733469839.976221, -25.754128, 9.208249, -25.066842, 2.686861, -0.588663, 4.059501, -51.201355, -14.599670, -653.773315
1733469839.986209, -27.473763, 8.955661, -23.478739, 3.018962, -0.084120, 3.495777, -50.176773, -15.380814, -654.783752
1733469839.996211, -28.391640, 8.863783, -21.815217, 3.393033, 0.129560, 2.975537, -50.176773, -15.380814, -654.783752
1733469840.006219, -28.435783, 9.095422, -20.906468, 3.938505, 0.253723, 2.587482, -49.560638, -16.366989, -655.609436
1733469840.016217, -28.754063, 8.866327, -19.853169, 4.502352, 0.372841, 2.220842, -48.772751, -17.899979, -656.076172
1733469840.026220, -29.553427, 8.503755, -18.385523, 4.932316, 0.585810, 1.805142, -47.842041, -19.754776, -657.820190
1733469840.036218, -30.341568, 7.977929, -16.547974, 5.217613, 0.790117, 1.294517, -47.607376, -21.866730, -659.200806
1733469840.046209, -30.947900, 7.650671, -14.325706, 5.407803, 0.823635, 0.667878, -46.600891, -24.225967, -659.798279
1733469840.056219, -30.942662, 7.942764, -12.150723, 5.602066, 0.702488, 0.060056, -46.487427, -26.949081, -661.688171
1733469840.066166, -30.386459, 8.516774, -10.264092, 5.782052, 0.577461, -0.498869, -45.879944, -29.619705, -661.739441
1733469840.076209, -29.684060, 8.711752, -8.472631, 5.858933, 0.535755, -1.029389, -45.893524, -32.574707, -662.390747
1733469840.086208, -28.828283, 8.796596, -6.555923, 5.780866, 0.587890, -1.552177, -45.577805, -35.475266, -662.478149
1733469840.096206, -27.769597, 8.728361, -4.396652, 5.546146, 0.636004, -2.017029, -45.710587, -38.511475, -662.008911
1733469840.106224, -26.509948, 8.601020, -2.347814, 5.216181, 0.660187, -2.448292, -45.354599, -41.316757, -663.324158
1733469840.115903, -25.244313, 8.584560, -1.034445, 4.891761, 0.685020, -2.835372, -45.144516, -44.157288, -662.561768
1733469840.126214, -23.869442, 8.485799, -0.186598, 4.635442, 0.695265, -3.191151, -45.051773, -46.934631, -662.591125
1733469840.136202, -22.423345, 8.289774, 0.557101, 4.432281, 0.656094, -3.525792, -44.919296, -49.697113, -662.626953
1733469840.146217, -20.904523, 8.037634, 1.208174, 4.273029, 0.591797, -3.851690, -44.324570, -52.088928, -661.733704
1733469840.156203, -19.102886, 7.876475, 1.837550, 4.158645, 0.463055, -4.123447, -43.978455, -54.556488, -661.576660
1733469840.166216, -17.151163, 7.719505, 2.683900, 4.039396, 0.260266, -4.354425, -43.558350, -56.779663, -661.188049
1733469840.176247, -15.360001, 7.424270, 3.818901, 3.841629, 0.011301, -4.563139, -43.040314, -59.052567, -660.522705
1733469840.186198, -13.732393, 7.161207, 4.957494, 3.535267, -0.282376, -4.746793, -42.277191, -61.114273, -660.052246
1733469840.196219, -12.072014, 6.711995, 5.958569, 3.126001, -0.598298, -4.887647, -41.668427, -62.882233, -659.123169
1733469840.206206, -10.469395, 6.317999, 6.567146, 2.656067, -0.916654, -4.978992, -40.963577, -64.436035, -658.456055
1733469840.216210, -8.923339, 5.933131, 6.678775, 2.196826, -1.194600, -5.004394, -40.228088, -65.812454, -657.977844
1733469840.226198, -7.492504, 5.534945, 6.443545, 1.793951, -1.429799, -4.957950, -39.972214, -66.757965, -657.815247
1733469840.236202, -6.336704, 5.108179, 6.108357, 1.434726, -1.630089, -4.886081, -39.388763, -67.618973, -657.135559
1733469840.246249, -5.505018, 4.581754, 5.655254, 1.096592, -1.740558, -4.819657, -38.764374, -68.242477, -656.953491
1733469840.256218, -4.859032, 4.119673, 5.077354, 0.770279, -1.735571, -4.744107, -38.169159, -68.784027, -656.983582
1733469840.266209, -4.384232, 4.103961, 4.509030, 0.457984, -1.603041, -4.660554, -37.640350, -69.044357, -655.501465
1733469840.276219, -3.765630, 4.267814, 4.179229, 0.152061, -1.435251, -4.565338, -36.879028, -69.232437, -656.513367
1733469840.286214, -3.072808, 4.368969, 4.245069, -0.143811, -1.348694, -4.449491, -36.225906, -69.195145, -656.374878
1733469840.296206, -2.529624, 4.318541, 4.237887, -0.410609, -1.339503, -4.324386, -35.732559, -69.051193, -656.612427
1733469840.306220, -2.088492, 4.022408, 4.016722, -0.618191, -1.421083, -4.208193, -35.159088, -68.886932, -656.629395
1733469840.316196, -1.870620, 3.601927, 3.724480, -0.763024, -1.577492, -4.144660, -34.900635, -68.658676, -657.013306
1733469840.326202, -1.738490, 3.201796, 3.370737, -0.863236, -1.760138, -4.123431, -34.544785, -68.076645, -657.704590
1733469840.336247, -1.454777, 2.843863, 2.933944, -0.942886, -1.960942, -4.097672, -34.162079, -67.594116, -657.991089
1733469840.346194, -0.970998, 2.574365, 2.458845, -1.007366, -2.178177, -4.038497, -33.948761, -67.206436, -658.130249
1733469840.356219, -0.476296, 2.611176, 1.986439, -1.031443, -2.342418, -3.932067, -33.685257, -66.489929, -658.719604
1733469840.366214, 0.072125, 2.757372, 1.394922, -1.044465, -2.455539, -3.773913, -33.642502, -65.935226, -659.039490
1733469840.376204, 0.752976, 2.817676, 0.942418, -1.057220, -2.560103, -3.551575, -33.884827, -65.470901, -658.955750
1733469840.386196, 1.574786, 2.813486, 0.702698, -1.068584, -2.675844, -3.276580, -34.331207, -64.901459, -659.741272
1733469840.396201, 2.248006, 2.585139, 0.456095, -1.081423, -2.781405, -2.978661, -34.913605, -64.493484, -659.877319
1733469840.406196, 2.697068, 2.245312, 0.250493, -1.105164, -2.840279, -2.692874, -35.572006, -63.856979, -659.990479
1733469840.416192, 2.978237, 1.971326, 0.183156, -1.175203, -2.851977, -2.423541, -36.243622, -63.224945, -660.565125
1733469840.426197, 3.155109, 1.860744, 0.300023, -1.316860, -2.819370, -2.150775, -36.762573, -62.643723, -660.423584
1733469840.436196, 3.268534, 1.771260, 0.487220, -1.550068, -2.736389, -1.881326, -37.550827, -61.785858, -661.100708
1733469840.446192, 3.360412, 1.672799, 0.697760, -1.879341, -2.632467, -1.649534, -38.545288, -61.012405, -661.915283
1733469840.456241, 3.504064, 1.906084, 0.841113, -2.272611, -2.540857, -1.416566, -39.351349, -59.649979, -661.934570
1733469840.465359, 3.690662, 2.450914, 0.819116, -2.651911, -2.528964, -1.165805, -40.257416, -58.481857, -662.359314
1733469840.476189, 3.941155, 3.280655, 0.523432, -2.961232, -2.559708, -0.867285, -41.492844, -57.081665, -662.961426
1733469840.486199, 4.216638, 4.184167, 0.052074, -3.204912, -2.647057, -0.542156, -42.512863, -55.471359, -663.529785
1733469840.496206, 4.656872, 4.751443, -0.688932, -3.365543, -2.824331, -0.166714, -43.943481, -53.634445, -663.680176
1733469840.505659, 4.840776, 4.959140, -1.703175, -3.418119, -3.014866, 0.235325, -45.367355, -51.971344, -664.085938
1733469840.516204, 4.809502, 5.120898, -2.900725, -3.406595, -3.101423, 0.627015, -46.767151, -50.301880, -663.519287
1733469840.526212, 4.632331, 5.444415, -3.699939, -3.415676, -3.138606, 1.011326, -48.547409, -48.497345, -662.580505
1733469840.536206, 4.257489, 6.267870, -4.063559, -3.441408, -3.172142, 1.390355, -50.023132, -46.554520, -663.438599
1733469840.546209, 4.221277, 7.310994, -4.520552, -3.442801, -3.285792, 1.818865, -51.804825, -44.401871, -662.725769
1733469840.556193, 4.496610, 9.237279, -5.872378, -3.176461, -3.926794, 2.902687, -53.252731, -42.583344, -662.485107
1733469840.566189, 4.559458, 10.001628, -6.623110, -2.993099, -4.381790, 3.541618, -54.995834, -40.423538, -661.604492
1733469840.576190, 3.774609, 11.203667, -7.680898, -2.776584, -4.729687, 4.202478, -56.908859, -38.343002, -660.568481
1733469840.586188, 2.377592, 12.100594, -8.919598, -2.600090, -4.850348, 4.843152, -58.531937, -36.040985, -658.867310
1733469840.596202, 2.377592, 12.100594, -8.919598, -2.572643, -4.718175, 5.398838, -60.443939, -33.506653, -657.419128
1733469840.606199, -1.727416, 13.932159, -11.073781, -2.645322, -4.506477, 5.809660, -61.786316, -30.954666, -655.817139
1733469840.616192, -4.210653, 14.151079, -12.587216, -2.607218, -4.346961, 6.036994, -62.993591, -28.344009, -654.400024
1733469840.626197, -6.368726, 13.583204, -14.840309, -2.332511, -4.200915, 6.134696, -63.645035, -25.886734, -652.684631
1733469840.636191, -8.209269, 13.109451, -17.252168, -1.963081, -3.938179, 6.235139, -64.150391, -23.056030, -651.393066
1733469840.646189, -9.935638, 13.649493, -19.427001, -1.668022, -3.398507, 6.384900, -63.757034, -20.501724, -650.382202
1733469840.656189, -11.678317, 14.605827, -21.375432, -1.508615, -2.591713, 6.578506, -62.894211, -18.001511, -648.365845
1733469840.666213, -13.454964, 16.009727, -22.628647, -1.477964, -1.786104, 6.748529, -61.977112, -15.281876, -647.259766
1733469840.676196, -15.362844, 17.401207, -23.337331, -1.354127, -1.417062, 6.797859, -60.683395, -13.129288, -646.217896
1733469840.686188, -17.778593, 18.818874, -24.379557, -0.905768, -1.569412, 6.683287, -59.474701, -10.977203, -645.556274
1733469840.696195, -19.973328, 19.261652, -26.286090, -0.029978, -2.067314, 6.447327, -58.043686, -9.027847, -645.095337
1733469840.706190, -21.987749, 18.681357, -28.745384, 1.250386, -2.500326, 6.145208, -56.672440, -7.783417, -644.447998
1733469840.716192, -24.234558, 18.400188, -30.679150, 2.666431, -2.569472, 5.825557, -55.022049, -6.979584, -644.496582
1733469840.726186, -26.556634, 18.335545, -30.536097, 3.952200, -2.317505, 5.539883, -53.152725, -6.527832, -644.868652
1733469840.736194, -28.720843, 18.320581, -29.114989, 5.078580, -1.691663, 5.439478, -51.583298, -6.675018, -645.989075
1733469840.746191, -31.179688, 18.261773, -26.937911, 5.987299, -0.758992, 5.415779, -49.975479, -7.453003, -647.732788
1733469840.756202, -34.486530, 17.072753, -23.372646, 6.469197, 0.212396, 5.141426, -49.024826, -8.826721, -650.081421
1733469840.766201, -37.946301, 14.967950, -18.954895, 6.541554, 0.852415, 4.460845, -47.668472, -10.340668, -651.961243
1733469840.776196, -40.235756, 12.962357, -15.133449, 6.419950, 1.067438, 3.439758, -46.569595, -12.330811, -654.370605
1733469840.786184, -40.019530, 11.504887, -12.132916, 6.334757, 0.797834, 2.379444, -44.931030, -14.580246, -655.969543
1733469840.796203, -38.303635, 11.795184, -10.270975, 6.460210, 0.302729, 1.552615, -44.166473, -17.051178, -657.580811
1733469840.806190, -36.542999, 12.489503, -9.487323, 6.739315, -0.168070, 0.894918, -44.043716, -19.689560, -659.058960
1733469840.816188, -35.553745, 12.616246, -8.738088, 7.020752, -0.448933, 0.252788, -43.912521, -23.015579, -660.174927
1733469840.826191, -35.009663, 12.765584, -7.639149, 7.224417, -0.607714, -0.405406, -43.832489, -26.493484, -660.639465
1733469840.836184, -34.214189, 13.044060, -6.100725, 7.334283, -0.620067, -1.071218, -44.324509, -29.941940, -661.899597
1733469840.846190, -33.027713, 13.072640, -4.521001, 7.336196, -0.532488, -1.730868, -45.132416, -33.795425, -662.299438
1733469840.856198, -31.354016, 13.146112, -2.478298, 7.192263, -0.460171, -2.378310, -45.935623, -37.542023, -662.420715
1733469840.866190, -29.283630, 12.996026, -0.273089, 6.934810, -0.459531, -2.985123, -46.532959, -41.327713, -662.428345
1733469840.876187, -27.031883, 12.839505, 1.316362, 6.619584, -0.448784, -3.506377, -46.710541, -45.013748, -662.404846
1733469840.886190, -24.691701, 12.835914, 2.674623, 6.263738, -0.476341, -3.939324, -46.808258, -48.726059, -661.683838
1733469840.896185, -22.285379, 12.413038, 3.867683, 5.892402, -0.547691, -4.275896, -47.111359, -52.039047, -661.343018
1733469840.906189, -20.012683, 11.774684, 4.617218, 5.517809, -0.586727, -4.557689, -47.258606, -55.290146, -660.220093
1733469840.916179, -18.002900, 11.122563, 5.307047, 5.113039, -0.648326, -4.806133, -47.085434, -58.452591, -659.425293
1733469840.926189, -16.085294, 10.316914, 6.110601, 4.683681, -0.708729, -5.038378, -46.630203, -61.263794, -657.815002
1733469840.936186, -14.364761, 9.554361, 6.892158, 4.195778, -0.794857, -5.257978, -45.966583, -63.788147, -657.655334
1733469840.946178, -12.718747, 8.815750, 7.728633, 3.635751, -0.931069, -5.453340, -45.312836, -66.078796, -656.550537
1733469840.956176, -11.127052, 8.127716, 8.324340, 3.038170, -1.094700, -5.630904, -44.786316, -67.840408, -655.707092
1733469840.966183, -9.657012, 7.688530, 8.483105, 2.474823, -1.274624, -5.742850, -43.780502, -69.587769, -655.102295
1733469840.976215, -8.016086, 7.652018, 8.546252, 1.978465, -1.487570, -5.748975, -42.418289, -70.983444, -654.515808
1733469840.986176, -6.335207, 7.611317, 8.640524, 1.508148, -1.739379, -5.674818, -41.514725, -71.878082, -653.911804
1733469840.996180, -4.949862, 7.310246, 8.576928, 1.041878, -1.966021, -5.564538, -40.981415, -72.625610, -653.736328
1733469841.006187, -3.898060, 7.052271, 8.014740, 0.579816, -2.041778, -5.442604, -40.003662, -73.292877, -653.158813
1733469841.016253, -3.079392, 6.788310, 7.132925, 0.136135, -1.910696, -5.305810, -39.095657, -73.560852, -653.687744
1733469841.026170, -2.390461, 6.558317, 6.373365, -0.295873, -1.644003, -5.180257, -37.808472, -73.685043, -652.755310
1733469841.036173, -1.836353, 6.325481, 5.911134, -0.702895, -1.333394, -5.079440, -36.795761, -73.570877, -653.771912
1733469841.046177, -1.366790, 6.108057, 5.596895, -1.060019, -1.069212, -5.008724, -35.719223, -73.205399, -654.027466
1733469841.056227, -0.834080, 5.987001, 5.415834, -1.318713, -0.922598, -4.942988, -34.628571, -72.676834, -654.421753
1733469841.066182, -0.079158, 6.062717, 5.600187, -1.483125, -0.990245, -4.834208, -33.309021, -72.071503, -655.256226
1733469841.076184, 0.770334, 6.178237, 5.978621, -1.568662, -1.305466, -4.672073, -32.463135, -71.153656, -656.056824
1733469841.086174, 1.653346, 6.111200, 6.146514, -1.612346, -1.744579, -4.456248, -31.939209, -70.292282, -656.328430
1733469841.096177, 2.386869, 5.928941, 5.916820, -1.665744, -2.167081, -4.201473, -31.526367, -69.297394, -657.161987
1733469841.106195, 2.907010, 5.760300, 5.270985, -1.751511, -2.412780, -3.897137, -31.363586, -68.371994, -657.525146
1733469841.116189, 3.378967, 5.666776, 4.482394, -1.878174, -2.475544, -3.544211, -31.297058, -67.174347, -658.713501
1733469841.126180, 3.902399, 5.509806, 3.872023, -2.025615, -2.413789, -3.159054, -31.485916, -66.382217, -658.705017
1733469841.136179, 4.367922, 5.206790, 3.500472, -2.164951, -2.312679, -2.779333, -31.814056, -65.249100, -660.025513
1733469841.146179, 4.755483, 4.865317, 3.298162, -2.286290, -2.243087, -2.413779, -32.412369, -64.168564, -660.502930
1733469841.156238, 5.166388, 4.521749, 3.141791, -2.382585, -2.232892, -2.068226, -32.783478, -62.961472, -661.084839
1733469841.166183, 5.549759, 4.349367, 3.264793, -2.429547, -2.390070, -1.720086, -33.545105, -61.687515, -661.644226
1733469841.176171, 5.864597, 4.403535, 3.676895, -2.469433, -2.692466, -1.366414, -34.361130, -60.488754, -662.496643
1733469841.186173, 6.072593, 4.617816, 4.112790, -2.540439, -3.097918, -0.993216, -35.725418, -59.167343, -663.050537
1733469841.196172, 6.179434, 5.007473, 4.371962, -2.706976, -3.477328, -0.601240, -37.357559, -57.843231, -663.184875
1733469841.206178, 6.055235, 5.719897, 4.149600, -2.973028, -3.791447, -0.211273, -39.054459, -56.149750, -663.591309
1733469841.216167, 5.990442, 6.427234, 3.418770, -3.279649, -3.994362, 0.218506, -41.058090, -54.426178, -663.903687
1733469841.226176, 6.218490, 7.044639, 2.051831, -3.616688, -4.010889, 0.691394, -42.543411, -52.470612, -663.605164
1733469841.236171, 6.445490, 7.895030, 0.713023, -3.970437, -3.961656, 1.209462, -44.725357, -50.337509, -664.342590
1733469841.246180, 6.799233, 9.159617, -0.498742, -4.275287, -3.928627, 1.789252, -46.678421, -48.215118, -664.178894
1733469841.256214, 6.822727, 11.011083, -1.577629, -4.457561, -4.033335, 2.431186, -48.797791, -45.713165, -663.768738
1733469841.266165, 6.514024, 12.888137, -2.844012, -4.459060, -4.324641, 3.172895, -50.665176, -42.894012, -663.399902
1733469841.276170, 6.035184, 13.861081, -4.510077, -4.318434, -4.681544, 4.006000, -52.608017, -40.097824, -662.418579
1733469841.286171, 4.204068, 15.294609, -6.445640, -4.176219, -4.940904, 4.798464, -54.744492, -37.097809, -660.949036
1733469841.296175, 1.241394, 16.408362, -8.509891, -4.091569, -4.996194, 5.397142, -56.691193, -34.107986, -659.943848
1733469841.306166, -1.687463, 16.389507, -10.776002, -4.044529, -4.870350, 5.765108, -58.315445, -31.134628, -658.729431
1733469841.316167, -4.684854, 16.080955, -12.988394, -3.944954, -4.670544, 5.857044, -59.688889, -28.083908, -657.067993
1733469841.326164, -7.287202, 15.807268, -14.928895, -3.645648, -4.584819, 5.759498, -60.351791, -25.292892, -654.729004
1733469841.336163, -8.781782, 15.991621, -16.607978, -3.212018, -4.559968, 5.734945, -60.870193, -22.418488, -653.008545
1733469841.346169, -9.636811, 16.998682, -18.176629, -2.868575, -4.362996, 5.876534, -60.448029, -19.480499, -651.462402
1733469841.356166, -10.157849, 17.370831, -20.284125, -2.723809, -3.682935, 6.176116, -60.335678, -16.789383, -649.856995
1733469841.366175, -11.262624, 17.841441, -22.690597, -2.802630, -2.543448, 6.503425, -59.846283, -14.046814, -648.335999
1733469841.376184, -13.143868, 18.271949, -24.503906, -2.940343, -1.443769, 6.652361, -58.519684, -11.326950, -647.000732
1733469841.386171, -15.210513, 18.645444, -25.597457, -2.838835, -0.883834, 6.554073, -57.198761, -8.954727, -646.049988
1733469841.396175, -16.685790, 19.036148, -27.004500, -2.339594, -0.883290, 6.317283, -55.674957, -7.153320, -645.237732
1733469841.406171, -17.466898, 19.351733, -28.181549, -1.473131, -1.365405, 6.023796, -53.945557, -5.495529, -644.500183
1733469841.416167, -18.066047, 19.161245, -29.344084, -0.336765, -1.928301, 5.745016, -52.579849, -4.364868, -644.315308
1733469841.426170, -18.896386, 19.077148, -30.290093, 0.858371, -2.267622, 5.559386, -50.953522, -3.630249, -643.675171
1733469841.436165, -20.611981, 19.010560, -30.026132, 1.961885, -2.383511, 5.354414, -49.921677, -3.436111, -644.997009
1733469841.446160, -22.885575, 18.478897, -29.284528, 2.961543, -2.239563, 5.087874, -48.697281, -3.605423, -645.696045
1733469841.456160, -24.299650, 17.534684, -28.577790, 3.886692, -1.917870, 4.824568, -47.036255, -4.103226, -646.764954
1733469841.465307, -25.442882, 17.306337, -26.806080, 4.714541, -1.524120, 4.624070, -47.036255, -4.103226, -646.764954
1733469841.476193, -26.683527, 17.722330, -24.460661, 5.375157, -1.030708, 4.555573, -44.273407, -6.273285, -649.881470
1733469841.486169, -28.636896, 17.532439, -21.825093, 5.810849, -0.429246, 4.427777, -44.273407, -6.273285, -649.881470
1733469841.496170, -31.326183, 16.664092, -19.039440, 6.021066, 0.176861, 4.092514, -42.828918, -8.022705, -652.352783
1733469841.506168, -33.601274, 15.390078, -16.469564, 6.057682, 0.646293, 3.492887, -41.658813, -9.898514, -654.352539
1733469841.516180, -34.398243, 14.040496, -14.095413, 6.078520, 0.766194, 2.757545, -40.276443, -12.118927, -656.431091
1733469841.526174, -33.720834, 13.420548, -12.231378, 6.229887, 0.602911, 2.089987, -39.040817, -14.505676, -658.206909
1733469841.536174, -32.533310, 14.170083, -11.195137, 6.540290, 0.367441, 1.626689, -38.143723, -17.171082, -659.556946
1733469841.546171, -31.815798, 15.219491, -10.012701, 6.883968, 0.114112, 1.227121, -37.585312, -20.157135, -660.703918
1733469841.556163, -31.498865, 15.357607, -8.815151, 7.161679, 0.025030, 0.816225, -37.425476, -23.284714, -661.397156
1733469841.566167, -31.506946, 15.384392, -7.619996, 7.328880, 0.044933, 0.347547, -37.326599, -26.864792, -662.762268
1733469841.576159, -31.534180, 15.025261, -5.794118, 7.393919, 0.069832, -0.230376, -37.629364, -30.626007, -663.616821
1733469841.586164, -31.227423, 14.155119, -3.811270, 7.364795, 0.075165, -0.915558, -37.797974, -34.322693, -663.857544
1733469841.595924, -30.375536, 13.201778, -1.628656, 7.212265, 0.041556, -1.670779, -38.160263, -38.227936, -664.378967
1733469841.606198, -28.924500, 12.496236, 0.458639, 6.917718, -0.018121, -2.416752, -38.573792, -41.737671, -664.366821
1733469841.616163, -26.771514, 11.737424, 2.175282, 6.497319, -0.076106, -3.105645, -38.775375, -45.307510, -664.218445
1733469841.626158, -24.153455, 11.091139, 3.409792, 5.988846, -0.105721, -3.695444, -38.827240, -48.509949, -663.677795
1733469841.636163, -21.407455, 10.722133, 4.310610, 5.474411, -0.142524, -4.158744, -38.882889, -51.737427, -663.433533
1733469841.646168, -18.592772, 10.421062, 4.919037, 5.012467, -0.237536, -4.491776, -38.873596, -54.523315, -662.580872
1733469841.656203, -15.948675, 10.066122, 5.464466, 4.593523, -0.391706, -4.739789, -38.798126, -56.961365, -661.992554
1733469841.666155, -13.603106, 9.529521, 5.845443, 4.182955, -0.576919, -4.936843, -38.437317, -59.262009, -661.351562
1733469841.676154, -11.617864, 9.052476, 6.144569, 3.765620, -0.756435, -5.073285, -37.721405, -61.400482, -660.507935
1733469841.686161, -9.963470, 8.640075, 6.315754, 3.325112, -0.876942, -5.173323, -37.140427, -62.985565, -660.059631
1733469841.696155, -8.645462, 8.108862, 6.375310, 2.850404, -0.955371, -5.264364, -36.638763, -64.442200, -659.022949
1733469841.706160, -7.443723, 7.639748, 6.426187, 2.374490, -1.026673, -5.320643, -35.947205, -65.724365, -658.189270
1733469841.716154, -6.224026, 7.368904, 6.400599, 1.952587, -1.124573, -5.312623, -34.969360, -66.642914, -658.222168
1733469841.726152, -5.020042, 7.051672, 6.464045, 1.579862, -1.262086, -5.280989, -34.430908, -67.482864, -657.542969
1733469841.736161, -4.152593, 6.600664, 6.591686, 1.211427, -1.442984, -5.238694, -33.455673, -67.898834, -657.409424
1733469841.746172, -3.539229, 6.212205, 6.633585, 0.839973, -1.659839, -5.201148, -32.831406, -68.208008, -657.394775
1733469841.756183, -3.144784, 5.857265, 6.439205, 0.483420, -1.862304, -5.192930, -32.100327, -68.371918, -657.299255
1733469841.766180, -2.817227, 5.536292, 5.956624, 0.149377, -2.004170, -5.214588, -31.770126, -68.117920, -657.263123
1733469841.776166, -2.461838, 5.305102, 5.368099, -0.151983, -2.083578, -5.235371, -30.938202, -68.025162, -657.865967
1733469841.786152, -2.048838, 5.137657, 4.726304, -0.411291, -2.093870, -5.234179, -30.435913, -67.683533, -658.253296
1733469841.796164, -1.593640, 5.033210, 4.065654, -0.628051, -2.001235, -5.204766, -29.823395, -67.020828, -658.250488
1733469841.806154, -0.924311, 5.124639, 3.399168, -0.801802, -1.872812, -5.111810, -29.377792, -66.264328, -658.730042
1733469841.816156, -0.032322, 5.351789, 3.098396, -0.905558, -1.805752, -4.951134, -28.520172, -65.634918, -659.079041
1733469841.826148, 0.917279, 5.366603, 2.935591, -0.952032, -1.808182, -4.741692, -28.644928, -64.930786, -658.612915
1733469841.836150, 1.985990, 5.248838, 2.959981, -0.960749, -1.954451, -4.479041, -28.099335, -64.133408, -660.112793
1733469841.846155, 3.007267, 5.186290, 3.337517, -0.953984, -2.265559, -4.157102, -28.032547, -63.198395, -660.208618
1733469841.856153, 3.944747, 5.021539, 3.573795, -0.967419, -2.633290, -3.770053, -28.251602, -62.552582, -660.977722
1733469841.866156, 4.840178, 4.601955, 3.518728, -1.046854, -2.892092, -3.306133, -28.956238, -61.623901, -661.150208
1733469841.876153, 5.591808, 4.307917, 3.381660, -1.237416, -2.987092, -2.768312, -29.528259, -60.808044, -661.458679
1733469841.886157, 6.173150, 4.356549, 3.237709, -1.521616, -2.934289, -2.173041, -30.280945, -60.046631, -661.686951
1733469841.896152, 6.700323, 4.376900, 2.886659, -1.864261, -2.756168, -1.551426, -31.170120, -58.812698, -662.395996
1733469841.906147, 6.958897, 4.216788, 2.306813, -2.233744, -2.464261, -0.969077, -32.417847, -57.713913, -663.066345
1733469841.916145, 6.916849, 3.982904, 1.791312, -2.613499, -2.184853, -0.506258, -33.421021, -56.634827, -663.545898
1733469841.926151, 6.929418, 3.792266, 1.414375, -2.952217, -2.051439, -0.134482, -34.605728, -55.156494, -663.322510
1733469841.936147, 6.813150, 3.990236, 1.223736, -3.231487, -2.138494, 0.146789, -35.706955, -53.486557, -664.759277
1733469841.946148, 6.639720, 4.599710, 1.060931, -3.450496, -2.414121, 0.395889, -37.067734, -51.683899, -665.114075
1733469841.956161, 6.808062, 5.215768, 0.836474, -3.602906, -2.882531, 0.683428, -38.465103, -49.851822, -665.448364
1733469841.966150, 6.917597, 6.020819, 0.434398, -3.688948, -3.425137, 1.060319, -40.152008, -47.859436, -665.547363
1733469841.976144, 6.723517, 6.855647, -0.328754, -3.814338, -3.898508, 1.508902, -42.057434, -45.957565, -665.669678
1733469841.986147, 6.226870, 7.602488, -1.216554, -4.015606, -4.318418, 1.981362, -44.016403, -43.785370, -665.620483
1733469841.996144, 5.423465, 8.582614, -2.402581, -4.235225, -4.740990, 2.451344, -46.366196, -41.395096, -664.846558
1733469842.006143, 4.340388, 9.548226, -4.036624, -4.384231, -5.160238, 2.884727, -48.501328, -39.046173, -664.063477
1733469842.016152, 2.721309, 10.634296, -6.297947, -4.351415, -5.491160, 3.268479, -51.174652, -36.417526, -662.712524
1733469842.026147, 0.915632, 11.670686, -8.326285, -4.192337, -5.781973, 3.607853, -53.445282, -33.775803, -660.728027
1733469842.036149, -1.015740, 12.511799, -10.213365, -3.954646, -5.959421, 3.894564, -55.641144, -31.311920, -660.014832
1733469842.046149, -2.720412, 12.914922, -12.473192, -3.623202, -5.930686, 4.159822, -57.213287, -28.727371, -658.457886
1733469842.056140, -4.365677, 12.995278, -14.556896, -3.257115, -5.720678, 4.428237, -58.768036, -26.491226, -656.229004
1733469842.066143, -6.144719, 13.380744, -16.475399, -2.873544, -5.309692, 4.680767, -60.045746, -24.025574, -654.329590
1733469842.076146, -7.754520, 13.208960, -18.417845, -2.429994, -4.742907, 4.893663, -60.892990, -21.879150, -653.142639
1733469842.086160, -9.051279, 12.461969, -19.628413, -1.954060, -4.189162, 5.033024, -61.484406, -19.722946, -651.411377
1733469842.096143, -10.435427, 12.090868, -20.038271, -1.454233, -3.663288, 5.109137, -61.475372, -17.810455, -649.879028
1733469842.106154, -11.234791, 11.962030, -20.309115, -1.015709, -3.126317, 5.253067, -60.828369, -16.127106, -648.777832
1733469842.116156, -12.005425, 12.539182, -20.427329, -0.746118, -2.492950, 5.495049, -60.231873, -14.321426, -648.045532
1733469842.126144, -13.344831, 13.300389, -21.056106, -0.580532, -1.708049, 5.770988, -59.261581, -12.554352, -646.802856
1733469842.136141, -15.041722, 12.973880, -21.919814, -0.364206, -0.955218, 5.975954, -57.845413, -10.904739, -647.301880
1733469842.146135, -17.053150, 12.270134, -22.536620, -0.023913, -0.368713, 6.004998, -56.605057, -9.259079, -647.308655
1733469842.156147, -19.345598, 11.828553, -22.424841, 0.396144, -0.146519, 5.813356, -54.855103, -8.560669, -647.319336
1733469842.166138, -20.976199, 11.288661, -21.687726, 0.873030, -0.371061, 5.459718, -53.479736, -7.896881, -647.889343
1733469842.176140, -22.225075, 10.675745, -21.272332, 1.435456, -0.900774, 4.922912, -52.432434, -7.526474, -648.001831
1733469842.186143, -23.266403, 10.329783, -21.186590, 2.064219, -1.553942, 4.285395, -51.763062, -7.113129, -647.932983
1733469842.196196, -23.755867, 10.552145, -21.418079, 2.739554, -2.089762, 3.688963, -50.671951, -7.451324, -648.623169
1733469842.206135, -23.884406, 11.381436, -21.698350, 3.453324, -2.420957, 3.268102, -50.391296, -8.098480, -649.302124
1733469842.216132, -23.668030, 12.484565, -22.080375, 4.272546, -2.469492, 3.084201, -50.133545, -9.210175, -649.964905
1733469842.226135, -23.968203, 12.959215, -22.322638, 5.096540, -2.230494, 2.959128, -49.764252, -10.528778, -650.953003
1733469842.236136, -24.515428, 13.037476, -21.618145, 5.836732, -1.813486, 2.873873, -49.653625, -12.167679, -653.323303
1733469842.246180, -25.595811, 13.050943, -20.107254, 6.428129, -1.222769, 2.706809, -49.556122, -14.236801, -654.326416
1733469842.256136, -26.835110, 12.619089, -17.773206, 6.743966, -0.604920, 2.421134, -49.215958, -17.004242, -656.505981
1733469842.266134, -27.892449, 11.986122, -14.653562, 6.816892, -0.171909, 1.971367, -49.116638, -19.314514, -658.134827
1733469842.276150, -28.432940, 11.389965, -11.615020, 6.741731, -0.033216, 1.419621, -48.638947, -22.033524, -659.386047
1733469842.286132, -28.086529, 11.278186, -9.289353, 6.668159, -0.138225, 0.886317, -48.856888, -25.071106, -661.050659
1733469842.296138, -27.508180, 11.503690, -7.706037, 6.637476, -0.386146, 0.385644, -48.553329, -28.017426, -660.908569
1733469842.306156, -26.829723, 11.720515, -6.445191, 6.643405, -0.725666, -0.064897, -48.881485, -31.253616, -661.912231
1733469842.316138, -26.427348, 11.663802, -5.642535, 6.678751, -0.987133, -0.512895, -49.181580, -34.433426, -661.612915
1733469842.326131, -26.442760, 11.548581, -5.571457, 6.738606, -0.944394, -0.954560, -49.493484, -37.835938, -661.247375
1733469842.336144, -26.754006, 11.608137, -5.066580, 6.768031, -0.698904, -1.417133, -50.084595, -41.310822, -661.806702
1733469842.346139, -26.997616, 11.328614, -3.404704, 6.692912, -0.434767, -1.971742, -50.415878, -44.894852, -661.286255
1733469842.356147, -26.558280, 10.716596, -1.077840, 6.487188, -0.284798, -2.587745, -50.775742, -48.158951, -661.032593
1733469842.366140, -25.521741, 10.318560, 1.327435, 6.165201, -0.274709, -3.191883, -50.716217, -51.570770, -660.570923
1733469842.376145, -23.807043, 10.191668, 3.538181, 5.774037, -0.388108, -3.715681, -50.367996, -54.997986, -659.773438
1733469842.386143, -21.712865, 9.951798, 5.113566, 5.356580, -0.556901, -4.134233, -50.294220, -57.885864, -658.439880
1733469842.396139, -19.602227, 9.636662, 6.102820, 4.904797, -0.666461, -4.459394, -49.809647, -60.671158, -658.030518
1733469842.406136, -17.619379, 9.281123, 6.799982, 4.415520, -0.730135, -4.714430, -49.506149, -63.269974, -656.520630
1733469842.416134, -15.656882, 8.894459, 7.373842, 3.886078, -0.725619, -4.903681, -49.001968, -65.604614, -655.727234
1733469842.426126, -13.711743, 8.592640, 7.946954, 3.314220, -0.751112, -5.014643, -48.086670, -67.692078, -654.268311
1733469842.436131, -11.826309, 8.200440, 8.334515, 2.721088, -0.791584, -5.072581, -47.212234, -69.185120, -654.333252
1733469842.446125, -10.198401, 7.638551, 8.422353, 2.162616, -0.858117, -5.108358, -46.416275, -70.691620, -653.928345
1733469842.456144, -8.777293, 6.958298, 8.245481, 1.666964, -0.916603, -5.123962, -45.369461, -71.745590, -653.383240
1733469842.466121, -7.530812, 6.285378, 7.924807, 1.243310, -1.012993, -5.139425, -44.058456, -72.731964, -652.847778
1733469842.476176, -6.468684, 5.758654, 7.807641, 0.886681, -1.147919, -5.151585, -43.100662, -73.372635, -652.862488
1733469842.486128, -5.478682, 5.546168, 7.669975, 0.552337, -1.267486, -5.131928, -41.716171, -74.030136, -652.365234
1733469842.496124, -4.585046, 5.783793, 7.671471, 0.177614, -1.373827, -5.077846, -40.613937, -74.254837, -652.243164
1733469842.505543, -3.639935, 6.131550, 7.720552, -0.247253, -1.479907, -4.983919, -39.800522, -74.418274, -652.621704
1733469842.516119, -2.704400, 6.105364, 7.403171, -0.669517, -1.541321, -4.862523, -38.927094, -74.267807, -653.126099
1733469842.526138, -2.008436, 5.888689, 6.651990, -1.029363, -1.559750, -4.746809, -38.166245, -74.157272, -652.641968
1733469842.536143, -1.402703, 5.635053, 5.918167, -1.299970, -1.583818, -4.657716, -36.818298, -73.640350, -654.083862
1733469842.546133, -0.821660, 5.337873, 5.297919, -1.492117, -1.624853, -4.573295, -36.108459, -72.952194, -654.626343
1733469842.556122, -0.078709, 5.114314, 4.512322, -1.612044, -1.630427, -4.446705, -35.449738, -72.397049, -655.203613
1733469842.566128, 0.761506, 5.106383, 3.985448, -1.665787, -1.659371, -4.252248, -34.633270, -71.686829, -655.882751
1733469842.576122, 1.577031, 5.035754, 3.689914, -1.672656, -1.703235, -3.996910, -34.203613, -70.886368, -655.966553
1733469842.586134, 2.407220, 4.886865, 3.447201, -1.667356, -1.734465, -3.676558, -33.852112, -70.140640, -656.913208
1733469842.596129, 3.307590, 4.870255, 3.402460, -1.677321, -1.779432, -3.289172, -33.894455, -69.381805, -657.316650
1733469842.606126, 4.014927, 4.774038, 3.552097, -1.717858, -1.876031, -2.873359, -33.905014, -68.668289, -657.918579
1733469842.616132, 4.482394, 4.351761, 3.631555, -1.771255, -2.014765, -2.454501, -34.167053, -67.658569, -658.689331
1733469842.626129, 4.793790, 3.962553, 3.416526, -1.819922, -2.089425, -2.029621, -34.492859, -66.859848, -658.451843
1733469842.636117, 4.899434, 3.573196, 3.206883, -1.898912, -2.117017, -1.639761, -35.124451, -65.929413, -659.786865
1733469842.646125, 4.788703, 3.001281, 3.306991, -2.037858, -2.119068, -1.317116, -35.647675, -64.948669, -660.276855
1733469842.656127, 4.610035, 2.467374, 3.296516, -2.246900, -2.057452, -1.050590, -36.422119, -63.890244, -660.994385
1733469842.666130, 4.531775, 2.206406, 3.156605, -2.510924, -1.955575, -0.812330, -36.984024, -62.641815, -661.382751
1733469842.676135, 4.581604, 2.311302, 3.084031, -2.784010, -1.890596, -0.590755, -37.702332, -61.030563, -662.036072
1733469842.686130, 4.824915, 2.825457, 3.069367, -3.048106, -1.906882, -0.362425, -38.546524, -59.600082, -662.577515
1733469842.696180, 5.109226, 3.839102, 2.846107, -3.288558, -2.009212, -0.072322, -39.312012, -57.766418, -663.192078
1733469842.706120, 5.643732, 5.231480, 2.312500, -3.502716, -2.126884, 0.337169, -40.565002, -55.786453, -663.456238
1733469842.716119, 6.272359, 6.575974, 1.337461, -3.711668, -2.124587, 0.853223, -41.558609, -53.679123, -663.374512
1733469842.726123, 7.146243, 7.606678, -0.138714, -3.942939, -1.965977, 1.509283, -42.200150, -51.522247, -663.262390
1733469842.736121, 8.129661, 8.384195, -2.059762, -4.198843, -1.537753, 2.306058, -43.014832, -48.939026, -663.871948
1733469842.746123, 8.500014, 9.202862, -4.565443, -4.482450, -0.735431, 3.147847, -43.142426, -46.450729, -664.304932
1733469842.756117, 8.266131, 10.073603, -6.977452, -4.858842, 0.351915, 3.915226, -42.762161, -43.336212, -664.787964
1733469842.766147, 7.548918, 11.027244, -8.461408, -5.336085, 1.432230, 4.530607, -42.117783, -40.249207, -665.041992
1733469842.776125, 6.175544, 11.566239, -9.420585, -5.811074, 2.269499, 4.860057, -41.397751, -36.928848, -665.132263
1733469842.786127, 4.355053, 11.761965, -10.008361, -6.256416, 2.552698, 4.819252, -40.532181, -33.714798, -664.957703
1733469842.796132, 3.152864, 10.721385, -10.707618, -6.566317, 2.197147, 4.452613, -40.227386, -30.323410, -664.923584
1733469842.806114, 2.403030, 9.509021, -11.762713, -6.650839, 1.204431, 3.791393, -39.545517, -27.032852, -663.899963
1733469842.816126, 1.840991, 9.679458, -12.476035, -6.502653, -0.344847, 3.042849, -39.654343, -24.035675, -662.939819
1733469842.826115, 2.220921, 11.173739, -13.264027, -6.156165, -2.186968, 2.545950, -40.461792, -21.215286, -660.554077
1733469842.836126, 2.827253, 14.059351, -14.548815, -5.706124, -3.913721, 2.496602, -41.401398, -18.332153, -659.753662
1733469842.846113, 2.773084, 16.946159, -16.774525, -5.224749, -5.278812, 2.829055, -42.818329, -15.803833, -657.976990
1733469842.856127, 1.979257, 18.597859, -20.251205, -4.638004, -6.103125, 3.485008, -44.143494, -13.623123, -656.256104
1733469842.866123, 0.062997, 19.084181, -25.062204, -3.890640, -6.150441, 4.226993, -45.056229, -11.937790, -655.005249
1733469842.876115, -3.034351, 17.927034, -29.434614, -3.045384, -5.563297, 4.768103, -45.577316, -10.563721, -653.853638
1733469842.886123, -6.591387, 15.618126, -32.327109, -2.200870, -4.532467, 5.004033, -45.382294, -9.400772, -652.949646
1733469842.896114, -9.500192, 13.806164, -33.425749, -1.475162, -3.365508, 5.030552, -44.651169, -8.654037, -652.921509
1733469842.906114, -11.181520, 12.986299, -33.078739, -0.795525, -2.324785, 4.951009, -43.958633, -8.190613, -652.388306
1733469842.916121, -11.646295, 13.147010, -31.506048, -0.088022, -1.722403, 4.911585, -42.866486, -7.912323, -652.417419
1733469842.926116, -11.540351, 14.075063, -28.510453, 0.550679, -1.645606, 4.892247, -42.323990, -7.966614, -652.002747
1733469842.936117, -11.751490, 15.482105, -24.935461, 1.063745, -2.026040, 4.904307, -41.486923, -8.190018, -652.785522
1733469842.946116, -12.683583, 16.531514, -22.250513, 1.586795, -2.634730, 4.915520, -41.486923, -8.190018, -652.785522
1733469842.956113, -14.322114, 16.307506, -21.169681, 2.208150, -3.302169, 4.873348, -40.861679, -8.655563, -653.523315
1733469842.966201, -16.819865, 15.641469, -21.189583, 2.943580, -3.724104, 4.746648, -40.674484, -9.126114, -654.011597
1733469842.976116, -20.197036, 14.493898, -21.545271, 3.687921, -3.808590, 4.399582, -40.628799, -10.342209, -655.048828
1733469842.986260, -23.602788, 13.092542, -21.310939, 4.347882, -3.542308, 3.914952, -40.598358, -11.530228, -655.904297
1733469842.996167, -26.460417, 11.973403, -20.635923, 4.851686, -2.929386, 3.340344, -40.745316, -13.510956, -657.209656
1733469843.006312, -29.353511, 10.112809, -16.725893, 5.124823, -2.171083, 2.643622, -41.193298, -15.516174, -658.115723
1733469843.016133, -29.353511, 10.112809, -16.725893, 5.201328, -1.601728, 1.904348, -41.103348, -17.611099, -659.468262
1733469843.026235, -27.759422, 11.470620, -11.931803, 5.236794, -1.351359, 1.283306, -41.113220, -19.909332, -660.340027
1733469843.036213, -27.759422, 11.470620, -11.931803, 5.349995, -1.274079, 0.891522, -41.458496, -22.265717, -660.788940
1733469843.046119, -28.169578, 12.020389, -9.107842, 5.520873, -1.235528, 0.592320, -41.874130, -24.926880, -661.898621
1733469843.056132, -29.307722, 11.089942, -8.228721, 5.651821, -1.172944, 0.181738, -42.263626, -27.725632, -662.760925
1733469843.066113, -30.087034, 10.158298, -7.278074, 5.729190, -0.669481, -1.174672, -43.015991, -30.452927, -662.945312
1733469843.076102, -29.640516, 9.777920, -5.665878, 5.645726, -0.494484, -1.961455, -43.376556, -33.496353, -663.347778
1733469843.086132, -28.187535, 10.384850, -4.192397, 5.645726, -0.494484, -1.961455, -43.809769, -36.377640, -663.196289
1733469843.096101, -26.244490, 11.024999, -3.066075, 5.516785, -0.244739, -3.087973, -44.149918, -39.346451, -663.029175
1733469843.106117, -24.318355, 11.250054, -1.876755, 5.467463, -0.127904, -3.462274, -44.351471, -42.488770, -663.427002
1733469843.116117, -22.536321, 11.185860, -0.408361, 5.360964, -0.041355, -3.763822, -44.603058, -45.432053, -663.147766
1733469843.126113, -20.753090, 10.734254, 1.019182, 5.182190, 0.015889, -4.031279, -44.749649, -48.610657, -662.454285
1733469843.136113, -19.135208, 10.168324, 2.200122, 4.924185, 0.073024, -4.283211, -44.633820, -51.549438, -662.133118
1733469843.146118, -17.606061, 9.513809, 3.224541, 4.591812, 0.105537, -4.533206, -44.232468, -54.260925, -661.404419
1733469843.156110, -16.051925, 8.967183, 4.194043, 4.188909, 0.064716, -4.784109, -43.947144, -57.004395, -660.330017
1733469843.166114, -14.535348, 8.357111, 4.934450, 3.777638, -0.064084, -5.031027, -43.245056, -59.236420, -660.196289
1733469843.176118, -12.937966, 7.671022, 5.264700, 3.396940, -0.248394, -5.259453, -42.688492, -61.580750, -659.838196
1733469843.186100, -11.351808, 7.380725, 5.236568, 3.075161, -0.471251, -5.431304, -41.830780, -63.322617, -658.855042
1733469843.195704, -9.783007, 7.367557, 5.125088, 2.828548, -0.760864, -5.502051, -40.678314, -65.070358, -658.404358
1733469843.205534, -8.030751, 7.324910, 4.836287, 2.666024, -1.056289, -5.480154, -39.912384, -66.503555, -657.171204
1733469843.216106, -6.465990, 6.925976, 4.455460, 2.539570, -1.277260, -5.402889, -39.071198, -67.986221, -656.694336
1733469843.225590, -5.243302, 6.348076, 4.374206, 2.397011, -1.444722, -5.311829, -38.220062, -69.252640, -655.869263
1733469843.236111, -4.165312, 5.782296, 4.689643, 2.201901, -1.581266, -5.207346, -37.237122, -70.364395, -654.766479
1733469843.245717, -3.130269, 5.406706, 5.268740, 1.912596, -1.707877, -5.073790, -36.546188, -71.346237, -654.553894
1733469843.256110, -2.255488, 5.115810, 5.938668, 1.508356, -1.795615, -4.915858, -35.534607, -72.164963, -654.347595
1733469843.266103, -1.492336, 4.774038, 6.442497, 0.997019, -1.832094, -4.742741, -34.984390, -72.540329, -654.469849
1733469843.276096, -0.807145, 4.478803, 6.658424, 0.431327, -1.815748, -4.571074, -34.312881, -73.011566, -653.595947
1733469843.286115, -0.268450, 4.344429, 6.553828, -0.129710, -1.771902, -4.381367, -33.504959, -72.895676, -654.468750
1733469843.295716, 0.400580, 4.326771, 6.069750, -0.618642, -1.657399, -4.160884, -32.892960, -72.720520, -653.789734
1733469843.306103, 1.208473, 4.335001, 5.443367, -1.016186, -1.501109, -3.894012, -32.089981, -72.338837, -654.070557
1733469843.316111, 2.133383, 4.350713, 4.948216, -1.316705, -1.361968, -3.577831, -31.608368, -71.595047, -655.418945
1733469843.326102, 3.081188, 4.049942, 4.559607, -1.527761, -1.281905, -3.230656, -31.095337, -71.021179, -655.445435
1733469843.336099, 3.750218, 3.635745, 4.414459, -1.667961, -1.303221, -2.888894, -30.803925, -70.103333, -656.783813
1733469843.345730, 4.144064, 3.211223, 4.473416, -1.755230, -1.448610, -2.572258, -30.524475, -69.445892, -656.762390
1733469843.356108, 4.418200, 2.817227, 4.590283, -1.814995, -1.667380, -2.285131, -30.545273, -68.486435, -657.468262
1733469843.366093, 4.598812, 2.583643, 4.696975, -1.886462, -1.943624, -2.013926, -30.857117, -67.466171, -658.673096
1733469843.376092, 4.648343, 2.386421, 4.845864, -1.991915, -2.256030, -1.761435, -31.094223, -66.547272, -658.851685
1733469843.386116, 4.650288, 2.188001, 4.782567, -2.136149, -2.494444, -1.522254, -31.733780, -65.523560, -660.123230
1733469843.395776, 4.731691, 2.086397, 4.536264, -2.331469, -2.646924, -1.283936, -32.576797, -64.701141, -660.337891
1733469843.406115, 4.858284, 2.409764, 4.545841, -2.558952, -2.794557, -1.011606, -33.403442, -63.309021, -660.500366
1733469843.416109, 5.160552, 3.093608, 4.395305, -2.805000, -2.904431, -0.683827, -34.164551, -62.051193, -662.079956
1733469843.426098, 5.537040, 3.713706, 4.005799, -3.044556, -2.955317, -0.311364, -35.530777, -60.518768, -661.854431
1733469843.436101, 5.993435, 4.454263, 3.430143, -3.284013, -2.960632, 0.143937, -36.801224, -58.828323, -663.043396
1733469843.445744, 6.653187, 5.113117, 2.880674, -3.541219, -2.992148, 0.653963, -38.096756, -57.087173, -663.680969
1733469843.456126, 7.121104, 5.733514, 2.204910, -3.801392, -3.030200, 1.176821, -39.805298, -55.513107, -663.451416
1733469843.466105, 7.291392, 6.329521, 1.441010, -4.084449, -3.132575, 1.651192, -41.640228, -53.165955, -664.702637
1733469843.476098, 7.272088, 6.777536, 0.678607, -4.346720, -3.352610, 2.052435, -43.385483, -51.365921, -664.278320
1733469843.485131, 7.110480, 7.630919, -0.254085, -4.491148, -3.694798, 2.449409, -45.381790, -48.988327, -664.533813
1733469843.495752, 6.713192, 9.089736, -1.279551, -4.474851, -4.154671, 2.877971, -47.201309, -46.510330, -663.882202
1733469843.505513, 5.921160, 10.781240, -2.467225, -4.405656, -4.511165, 3.404290, -48.918625, -43.788300, -663.294067
1733469843.516097, 4.981286, 13.002161, -4.020014, -4.501353, -4.552622, 4.119229, -50.776443, -41.028748, -662.777649
1733469843.526090, 3.968838, 15.067010, -5.706879, -4.851953, -4.264101, 4.929391, -52.448013, -37.745422, -662.139526
1733469843.536103, 2.102857, 16.468217, -8.005462, -5.304316, -3.713886, 5.643469, -53.891739, -34.373779, -660.401123
1733469843.545822, -0.894683, 17.489493, -10.535984, -5.672007, -3.196628, 6.067124, -55.308228, -30.680405, -660.004578
1733469843.556096, -3.852270, 17.284340, -13.510330, -5.706562, -2.907792, 6.169883, -56.122009, -27.214890, -658.008850
1733469843.566093, -6.594828, 16.660501, -16.876877, -5.278416, -2.842648, 6.030510, -56.196747, -23.553818, -657.221558
1733469843.576089, -8.884733, 16.278925, -19.167081, -4.647209, -2.968462, 5.770115, -55.951736, -20.207703, -655.172791
1733469843.586107, -10.694899, 16.214880, -20.320637, -4.128009, -3.007648, 5.525393, -55.706604, -17.285675, -653.908936
1733469843.595782, -12.385205, 16.453103, -21.313482, -3.836414, -2.763177, 5.299579, -55.370743, -14.503967, -652.040894
1733469843.606102, -14.106337, 16.954689, -21.997775, -3.709036, -2.420825, 5.076545, -54.666794, -11.883118, -649.781128
1733469843.616103, -15.449933, 18.331355, -23.006183, -3.545909, -2.219226, 4.885061, -53.961838, -9.638809, -648.706909
1733469843.626107, -16.190789, 19.249681, -25.051579, -3.149303, -2.165498, 4.699415, -53.251541, -7.658951, -646.913574
1733469843.636098, -16.689232, 20.016274, -27.307815, -2.494969, -2.281857, 4.547728, -52.507904, -5.902573, -645.825317
1733469843.645794, -16.807146, 20.241628, -29.997701, -1.484198, -2.408417, 4.494990, -51.600327, -4.425552, -644.905334
1733469843.656109, -17.108067, 19.475484, -33.069611, -0.102298, -2.439898, 4.509601, -50.502167, -3.465042, -643.998169
1733469843.666104, -18.348563, 18.349162, -34.744804, 1.398681, -2.246684, 4.480812, -49.832199, -2.920410, -644.608154
1733469843.676093, -20.146010, 17.437719, -34.062008, 2.758376, -1.943259, 4.316705, -48.603165, -3.052155, -644.578735
1733469843.686095, -21.569812, 16.828843, -31.147965, 3.816270, -1.602254, 4.111260, -47.594345, -3.531525, -646.029236
1733469843.695805, -22.249615, 16.522386, -27.307666, 4.547854, -1.279756, 3.956694, -46.610199, -4.185181, -647.869263
1733469843.706110, -23.529915, 16.136470, -23.156718, 4.956054, -1.049556, 3.726728, -45.437225, -5.408066, -648.893494
1733469843.716108, -25.120263, 15.575629, -19.438224, 5.115311, -0.978622, 3.422225, -44.544418, -6.960175, -651.137817
1733469843.726099, -26.396223, 14.782100, -17.334619, 5.222449, -0.922699, 3.015056, -43.644333, -8.694092, -652.171692
1733469843.736098, -27.424533, 13.718476, -16.713024, 5.412868, -0.782627, 2.557366, -43.133667, -10.283264, -653.638855
1733469843.745810, -28.285098, 13.554922, -16.167595, 5.702462, -0.597953, 2.151107, -42.370529, -12.080704, -655.637146
1733469843.756098, -29.087904, 13.699173, -15.034240, 6.029408, -0.430335, 1.739559, -41.910095, -14.499863, -656.843445
1733469843.766102, -29.955503, 13.507338, -13.429975, 6.333770, -0.290765, 1.258227, -41.619125, -17.144669, -658.727478
1733469843.776095, -30.891636, 13.376554, -11.718420, 6.534903, -0.065899, 0.672674, -41.386444, -20.000717, -659.500854
1733469843.786084, -31.321096, 13.263578, -9.823260, 6.602527, 0.148299, 0.005581, -41.380859, -22.984573, -661.003296
1733469843.795819, -31.106515, 13.483695, -7.529615, 6.588860, 0.255015, -0.664824, -41.412354, -26.172348, -662.693420
1733469843.805893, -30.124893, 13.921086, -5.533000, 6.556684, 0.234734, -1.277089, -41.568146, -29.816299, -663.253662
1733469843.816090, -28.568811, 14.157513, -4.017620, 6.574306, 0.168496, -1.752215, -41.521835, -32.944031, -663.560181
1733469843.826082, -27.239730, 14.372991, -2.787000, 6.620558, 0.158881, -2.149004, -42.023834, -36.467026, -663.835449
1733469843.836088, -26.265440, 14.007127, -1.499219, 6.613914, 0.225592, -2.544300, -41.891937, -40.127762, -663.376160
1733469843.845817, -25.159917, 13.258041, -0.073921, 6.524526, 0.333116, -2.958952, -42.273102, -43.534393, -663.894104
1733469843.856102, -23.874081, 12.433089, 1.591246, 6.362635, 0.384376, -3.391089, -42.408157, -46.982056, -663.127441
1733469843.866097, -22.236148, 11.625794, 3.266888, 6.128292, 0.355398, -3.817177, -42.192245, -50.402695, -662.415588
1733469843.876094, -20.343831, 10.819547, 4.887763, 5.815292, 0.238085, -4.230688, -41.662094, -53.616089, -662.544189
1733469843.886102, -18.349311, 9.965116, 6.299593, 5.438191, 0.022491, -4.626817, -41.299850, -56.594345, -662.018311
1733469843.896083, -16.305261, 9.282320, 7.551462, 4.994856, -0.275801, -4.966335, -40.921356, -59.340927, -660.195251
1733469843.906081, -14.231434, 8.701876, 8.613440, 4.485644, -0.614127, -5.246763, -40.289444, -61.596664, -660.384338
1733469843.916079, -12.193819, 8.251915, 9.237578, 3.922794, -0.965283, -5.434941, -39.876923, -63.533340, -659.403931
1733469843.926079, -10.126276, 7.921665, 9.449315, 3.346748, -1.287563, -5.503111, -39.123367, -65.154541, -658.387207
1733469843.936075, -8.216750, 7.690774, 9.282320, 2.763596, -1.521177, -5.458236, -38.390869, -66.741089, -657.380371
1733469843.946075, -6.690148, 7.312042, 8.640524, 2.199380, -1.600049, -5.346063, -37.888016, -67.709793, -656.927063
1733469843.956087, -5.618443, 6.781427, 7.833080, 1.665030, -1.529205, -5.220089, -37.342468, -68.543701, -656.913269
1733469843.966069, -4.906168, 6.126163, 7.224803, 1.184782, -1.392163, -5.123373, -36.366013, -69.285065, -656.805786
1733469843.976127, -4.241328, 5.514295, 6.792649, 0.772063, -1.255594, -5.060697, -35.402985, -69.523361, -656.018921
1733469843.985887, -3.582474, 5.076306, 6.448483, 0.417354, -1.137577, -5.008950, -34.549347, -69.585434, -656.434448
1733469843.996069, -2.956540, 4.872051, 6.133346, 0.091410, -1.034880, -4.953389, -33.743790, -69.687683, -656.635315
1733469844.006125, -2.420837, 4.749946, 6.067954, -0.219620, -1.004776, -4.907491, -32.632950, -69.421631, -656.420044
1733469844.016079, -1.851167, 4.716278, 5.920113, -0.498663, -1.012648, -4.835873, -31.383789, -69.036865, -656.467529
1733469844.026072, -1.210119, 4.773739, 5.568763, -0.726990, -1.075984, -4.723900, -30.811462, -68.547287, -656.437256
1733469844.036128, -0.440084, 4.865317, 5.351190, -0.891273, -1.249188, -4.572059, -29.853867, -67.827026, -657.545654
1733469844.046071, 0.353594, 4.731691, 5.234174, -0.994189, -1.569686, -4.395620, -29.746323, -67.096924, -657.850098
1733469844.056070, 0.921019, 4.495263, 5.109376, -1.059968, -1.983046, -4.212726, -29.474014, -66.404968, -658.350342
1733469844.066068, 1.418116, 4.137031, 4.678420, -1.108529, -2.332592, -4.013476, -29.222534, -65.728348, -659.147156
1733469844.076072, 2.021305, 3.736750, 3.802740, -1.204505, -2.436397, -3.747307, -29.315811, -64.641464, -659.338440
1733469844.086082, 2.693627, 3.506009, 3.108272, -1.397384, -2.339688, -3.433996, -29.276825, -64.004013, -659.608582
1733469844.096095, 3.190274, 3.310133, 2.689137, -1.636625, -2.148329, -3.110156, -29.408478, -62.891891, -660.627380
1733469844.106082, 3.451990, 3.063531, 2.227655, -1.869954, -1.892735, -2.802693, -29.969177, -61.651718, -661.229370
1733469844.116078, 3.516184, 2.877980, 1.977910, -2.079493, -1.660669, -2.536211, -30.023438, -60.665146, -661.723877
1733469844.126086, 3.530250, 3.012953, 2.008885, -2.254177, -1.559250, -2.308002, -30.289413, -59.561203, -662.132812
1733469844.136071, 3.723133, 3.305944, 2.088342, -2.351251, -1.644966, -2.070302, -30.857147, -58.289764, -662.823547
1733469844.146084, 4.276493, 3.393482, 2.113332, -2.417741, -1.854977, -1.801945, -31.453293, -56.970093, -662.477844
1733469844.156079, 4.762067, 3.594445, 2.167201, -2.549652, -2.128463, -1.505388, -32.401443, -55.550552, -663.964478
1733469844.166069, 5.194221, 4.114436, 2.390610, -2.785240, -2.471148, -1.184531, -33.457870, -53.918625, -664.479065
1733469844.176079, 5.631162, 4.485537, 2.325069, -3.065556, -2.859415, -0.857846, -34.738113, -52.336838, -664.756653
1733469844.185630, 5.905298, 4.785111, 1.592443, -3.307470, -3.227236, -0.523557, -36.256363, -50.714050, -664.812988
1733469844.196106, 5.961712, 5.421221, 0.582390, -3.436916, -3.616286, -0.162305, -38.176300, -48.924026, -665.179810
1733469844.206090, 5.924602, 6.405088, -0.747739, -3.395761, -3.979456, 0.260562, -40.138916, -47.045898, -665.278137
1733469844.216077, 5.985205, 7.216872, -2.172888, -3.202502, -4.316851, 0.740050, -42.208939, -45.352081, -665.401855
1733469844.226078, 6.086210, 7.445369, -3.394080, -2.983565, -4.541674, 1.303963, -44.060059, -43.690781, -664.381958
1733469844.236077, 6.067805, 7.844302, -4.060865, -2.948741, -4.572370, 1.937870, -46.150726, -41.915588, -664.160034
1733469844.245838, 5.447707, 9.168296, -4.029441, -3.209407, -4.464229, 2.585933, -48.230392, -40.055664, -663.656860
1733469844.256082, 4.330063, 10.231322, -4.168754, -3.648810, -4.363778, 3.159135, -50.320831, -37.754944, -662.630188
1733469844.266086, 2.521244, 11.276241, -4.847211, -4.070024, -4.474926, 3.599421, -52.576920, -35.124893, -661.845032
1733469844.276080, 0.220715, 12.210578, -6.305280, -4.286359, -4.796948, 3.858317, -54.383789, -32.745209, -660.632812
1733469844.286066, -1.922394, 12.631509, -8.670751, -4.192486, -5.260726, 3.998324, -56.062912, -29.758331, -658.998657
1733469844.296066, -3.542970, 13.291859, -11.146954, -3.860516, -5.701068, 4.158237, -57.544510, -27.324951, -657.065491
1733469844.306066, -4.567987, 13.955203, -13.639168, -3.559496, -5.821973, 4.465487, -58.686035, -24.455780, -654.992249
1733469844.316071, -5.976825, 15.309573, -16.254834, -3.482745, -5.407814, 4.884995, -59.600906, -21.667450, -653.744995
1733469844.326064, -7.758710, 16.093075, -19.568109, -3.501251, -4.447890, 5.290956, -59.498749, -18.943970, -651.421509
1733469844.336068, -9.703400, 16.895881, -22.906824, -3.483417, -3.253823, 5.667004, -59.518646, -16.214310, -649.937866
1733469844.346066, -11.567436, 18.346169, -25.617060, -3.319546, -2.143332, 5.973484, -58.528656, -13.700958, -648.624512
1733469844.356066, -12.962806, 18.394502, -27.851299, -2.848066, -1.459104, 6.104090, -57.677460, -11.724396, -648.002075
1733469844.366075, -14.151976, 17.458818, -29.219436, -2.046793, -1.289812, 6.032204, -56.760162, -9.782196, -647.560791
1733469844.376083, -14.804696, 16.365715, -29.857041, -0.997542, -1.500740, 5.850807, -55.551575, -8.207016, -646.568115
1733469844.386067, -15.432725, 16.119112, -29.260287, 0.034611, -1.851306, 5.638093, -54.212936, -7.483429, -646.808105
1733469844.396064, -16.132280, 16.004340, -27.859379, 0.868101, -2.212353, 5.421767, -53.328857, -6.553497, -646.249878
1733469844.406066, -17.269077, 15.841385, -26.529700, 1.581768, -2.534399, 5.209213, -52.169281, -6.128998, -646.610229
1733469844.416072, -19.007717, 15.826571, -26.442162, 2.351397, -2.669563, 4.986565, -50.942841, -6.017410, -646.794373
1733469844.426061, -20.736181, 15.437812, -27.339389, 3.245311, -2.479324, 4.829964, -49.922241, -6.439774, -647.725220
1733469844.436060, -22.516419, 15.629797, -27.567436, 4.139791, -1.987272, 4.726429, -48.538284, -7.122498, -648.942383
1733469844.446060, -24.371925, 15.859491, -26.332777, 4.838132, -1.283533, 4.673009, -47.146683, -8.105621, -650.416626
1733469844.456071, -26.219202, 15.952266, -24.031350, 5.322270, -0.514736, 4.654091, -45.704926, -9.348755, -652.271606
1733469844.466059, -28.700492, 15.542110, -21.518336, 5.633741, 0.257719, 4.502749, -44.333481, -11.072144, -654.417053
1733469844.476077, -31.179539, 14.198813, -18.679561, 5.826298, 0.806080, 4.156190, -43.198471, -13.000046, -656.187683
1733469844.486075, -33.026516, 12.578986, -15.353866, 5.941325, 0.936521, 3.536399, -43.198471, -13.000046, -656.187683
1733469844.496068, -33.924940, 11.076624, -12.463316, 6.060793, 0.695158, 2.710119, -42.099777, -15.457764, -657.699219
1733469844.505480, -33.592295, 10.595988, -10.459220, 6.240497, 0.209580, 1.850286, -41.442764, -17.891479, -659.256226
1733469844.516061, -32.419286, 11.172093, -9.071480, 6.480777, -0.257564, 1.203224, -40.379349, -20.473785, -659.483521
1733469844.526059, -31.363593, 12.227487, -8.045715, 6.699483, -0.569012, 0.741654, -40.385101, -23.401321, -661.309875
1733469844.536056, -31.077785, 11.919683, -7.329848, 6.904480, -0.614713, 0.280247, -40.514877, -26.801315, -662.097656
1733469844.546058, -31.377060, 11.327267, -6.845920, 7.096782, -0.327886, -0.221647, -41.045731, -30.315002, -663.317017
1733469844.556108, -31.861587, 11.060314, -5.389049, 7.145485, 0.103252, -0.849801, -41.061554, -33.915344, -663.686279
1733469844.566056, -31.706413, 10.321254, -2.731784, 6.989197, 0.399546, -1.589816, -41.241348, -37.497589, -663.692261
1733469844.576086, -30.506918, 9.771186, 0.280271, 6.690571, 0.474099, -2.345546, -41.447433, -41.098846, -663.781738
1733469844.586051, -28.550406, 9.335591, 2.675071, 6.330903, 0.393651, -3.067489, -41.519440, -44.529770, -663.426025
1733469844.596058, -25.991902, 8.898948, 4.351312, 5.947979, 0.208535, -3.684476, -41.592407, -47.994812, -663.248535
1733469844.606063, -23.123649, 8.752453, 5.491401, 5.558934, -0.006796, -4.166276, -41.535019, -50.901764, -662.581604
1733469844.616059, -20.301633, 8.590396, 6.128558, 5.170062, -0.203715, -4.517329, -41.169556, -53.947083, -661.637939
1733469844.626064, -17.716344, 8.251466, 6.436662, 4.757952, -0.289696, -4.760498, -40.782333, -56.717712, -661.518433
1733469844.636054, -15.390377, 7.912238, 6.617424, 4.284538, -0.292460, -4.932105, -40.506073, -58.932251, -661.100952
1733469844.646055, -13.278841, 7.608174, 6.969521, 3.763015, -0.296009, -5.058575, -39.859146, -60.998383, -660.293518
1733469844.655057, -11.240627, 7.313089, 7.219565, 3.237407, -0.334400, -5.142673, -39.313675, -62.758057, -659.428711
1733469844.666053, -9.258827, 6.983737, 7.238121, 2.731691, -0.399211, -5.185478, -38.382050, -64.516800, -659.253601
1733469844.676058, -7.485471, 6.651092, 7.223157, 2.253567, -0.522912, -5.175085, -37.457443, -65.601257, -658.385315
1733469844.686077, -5.893028, 6.358850, 7.084443, 1.817310, -0.674641, -5.101055, -36.543732, -66.564560, -657.828003
1733469844.696068, -4.555866, 6.116736, 6.777386, 1.429338, -0.794864, -4.977844, -35.862671, -67.098877, -657.927979
1733469844.706057, -3.365799, 5.967099, 6.376358, 1.068188, -0.834928, -4.809375, -34.872040, -67.644974, -657.361572
1733469844.716050, -2.265663, 5.879710, 6.205621, 0.691852, -0.831205, -4.600314, -34.011551, -67.852554, -656.966431
1733469844.726052, -1.373224, 5.793070, 6.022016, 0.307011, -0.793303, -4.374747, -33.263123, -67.837128, -657.203857
1733469844.736051, -0.724994, 5.660491, 5.692214, -0.053063, -0.724463, -4.143320, -32.614182, -67.760590, -657.479614
1733469844.746094, -0.243460, 5.379173, 5.315876, -0.364536, -0.664714, -3.951694, -31.599976, -67.661087, -657.803101
1733469844.756054, 0.182259, 4.959289, 4.912752, -0.621546, -0.631425, -3.783095, -30.920944, -67.091461, -658.218079
1733469844.766048, 0.692523, 4.654927, 4.388272, -0.809758, -0.640660, -3.611403, -30.137955, -66.603485, -658.508179
1733469844.776047, 1.204732, 4.411765, 3.827431, -0.907431, -0.677485, -3.429439, -29.663651, -65.953201, -658.502014
1733469844.786060, 1.675193, 4.104410, 3.235315, -0.934271, -0.700552, -3.236636, -29.194748, -65.428299, -658.967163
1733469844.796049, 2.067543, 3.632453, 2.970306, -0.931536, -0.764680, -3.038685, -28.805878, -64.784576, -659.588623
1733469844.806059, 2.263718, 3.249231, 3.022231, -0.943987, -0.861826, -2.851352, -28.343735, -64.277161, -659.837158
1733469844.816050, 2.335095, 2.725050, 3.269282, -1.001696, -1.012573, -2.717072, -28.273651, -63.715683, -659.551086
1733469844.826104, 2.540547, 2.193987, 3.703830, -1.110223, -1.241561, -2.586070, -28.403214, -62.907211, -660.520447
1733469844.836055, 2.988712, 1.979705, 4.082712, -1.259884, -1.481568, -2.417523, -28.393036, -61.975784, -660.776306
1733469844.846046, 3.513192, 1.874211, 4.253000, -1.489542, -1.655862, -2.196954, -28.493179, -61.216614, -660.993652
1733469844.856060, 3.740342, 1.900248, 4.399196, -1.809399, -1.786998, -1.953861, -28.985306, -60.135605, -661.825623
1733469844.866096, 3.839851, 1.820790, 4.449325, -2.191909, -1.867598, -1.722265, -29.440918, -58.741867, -662.576294
1733469844.876051, 3.916615, 1.673098, 4.235193, -2.600994, -1.902830, -1.497329, -30.211075, -57.498596, -663.234192
1733469844.886051, 3.993977, 1.667113, 3.753061, -2.987632, -1.905527, -1.276631, -31.093796, -55.976151, -663.569031
1733469844.896053, 4.053832, 1.726219, 3.191022, -3.330116, -1.929477, -1.093178, -31.551193, -54.277023, -664.457336
1733469844.906091, 4.091691, 2.007239, 2.705747, -3.615152, -2.026834, -0.939355, -32.618805, -52.462540, -664.672241
1733469844.916062, 4.148403, 2.436399, 2.017265, -3.814859, -2.240480, -0.817455, -33.658661, -50.371109, -664.438171
1733469844.926048, 4.285471, 3.223643, 1.113753, -3.871325, -2.617121, -0.672422, -34.685852, -48.603790, -665.455688
1733469844.936047, 4.711041, 4.409072, -0.096067, -3.750248, -3.104087, -0.406286, -36.136429, -46.622787, -665.860474
1733469844.946058, 5.368249, 5.269638, -1.507599, -3.556795, -3.577161, -0.014905, -37.815659, -44.788528, -665.479309
1733469844.956042, 5.968595, 5.949441, -2.457648, -3.454869, -4.067929, 0.501582, -39.797363, -42.933395, -665.359680
1733469844.966044, 6.168511, 6.912210, -3.176058, -3.422816, -4.533078, 1.095078, -42.007187, -40.989975, -665.365173
1733469844.976048, 5.646874, 7.855825, -4.427029, -3.421804, -4.815840, 1.715838, -44.415665, -39.091949, -664.788696
1733469844.985646, 4.670938, 8.742278, -5.973683, -3.519730, -4.928298, 2.286886, -46.576172, -37.325180, -664.361145
1733469844.996048, 3.316418, 9.456199, -7.373692, -3.626220, -5.060545, 2.766627, -48.949478, -34.964798, -663.572021
1733469845.006043, 1.461660, 10.323049, -9.071630, -3.602197, -5.146790, 3.164355, -50.765930, -32.837845, -662.538391
1733469845.016044, -0.421679, 10.866533, -11.362582, -3.478148, -5.073027, 3.517588, -52.666809, -30.558868, -660.322693
1733469845.026092, -2.009034, 11.083059, -13.498808, -3.419981, -4.762291, 3.846817, -54.074707, -28.195892, -659.894592
1733469845.036038, -3.494936, 11.533618, -15.389330, -3.516805, -4.137032, 4.155862, -55.024292, -25.702789, -658.662598
1733469845.046037, -4.494066, 11.970110, -17.114502, -3.763620, -3.314594, 4.452755, -55.591171, -23.296127, -657.463501
1733469845.056036, -5.411045, 12.452243, -18.903569, -3.974220, -2.479519, 4.687006, -55.523682, -20.605743, -656.118835
1733469845.066060, -6.517316, 13.041665, -20.871453, -3.927401, -1.910648, 4.853764, -55.186218, -18.012573, -654.551025
1733469845.076050, -7.709479, 13.917045, -22.520759, -3.549848, -1.776635, 4.992676, -54.568787, -15.751068, -653.231506
1733469845.086046, -9.044845, 14.439729, -24.363246, -2.851184, -1.898421, 5.103930, -53.836914, -13.714264, -652.085938
1733469845.095193, -10.556933, 14.272584, -26.288634, -1.947056, -2.041192, 5.184613, -53.387375, -12.000198, -651.733398
1733469845.106043, -12.174515, 13.405584, -27.492917, -1.057587, -2.041296, 5.193688, -52.690826, -10.696411, -651.290405
1733469845.116084, -14.369250, 12.275820, -27.621456, -0.387360, -1.841971, 5.001964, -52.220901, -9.919571, -650.198364
1733469845.126041, -16.637307, 10.813711, -27.127502, 0.036679, -1.625215, 4.564119, -51.477219, -9.313797, -650.674805
1733469845.136041, -17.989582, 10.132860, -26.685472, 0.479609, -1.677605, 4.004359, -50.788269, -8.863739, -650.646179
1733469845.146044, -18.099865, 10.661380, -26.929531, 1.201235, -2.060853, 3.577203, -50.318130, -8.829010, -650.633911
1733469845.156037, -17.387740, 11.587487, -27.684004, 2.232940, -2.522282, 3.418412, -49.239426, -9.045593, -651.001465
1733469845.166066, -17.595287, 12.537985, -28.276120, 3.404763, -2.732502, 3.480547, -48.703339, -9.844437, -651.639526
1733469845.176053, -18.914642, 12.981511, -28.197112, 4.479947, -2.443259, 3.708018, -48.274460, -10.945190, -652.280029
1733469845.186055, -21.391144, 12.785635, -27.136929, 5.304234, -1.644765, 3.878792, -47.795578, -12.430130, -653.980103
1733469845.196038, -24.811261, 12.036101, -24.788217, 5.790928, -0.678321, 3.774576, -47.172699, -14.375870, -655.800354
1733469845.206040, -28.048372, 10.959608, -21.409251, 5.975573, 0.103512, 3.296675, -46.560974, -16.437607, -657.324951
1733469845.216040, -29.729849, 9.861866, -17.967137, 6.011775, 0.433967, 2.578118, -45.918228, -18.855927, -658.103638
1733469845.226045, -29.306974, 9.436596, -14.921712, 6.073360, 0.258347, 1.865167, -45.184372, -21.244431, -659.905518
1733469845.236023, -27.853095, 9.982773, -12.674155, 6.277174, -0.212691, 1.347256, -44.984665, -24.167221, -661.227234
1733469845.246050, -26.529700, 10.538528, -11.289708, 6.572855, -0.651649, 1.012991, -45.443695, -27.270462, -662.137695
1733469845.256023, -26.172964, 10.262745, -10.256012, 6.837742, -0.877200, 0.703485, -45.481277, -30.066635, -662.274658
1733469845.265562, -26.953324, 9.695619, -9.019107, 6.993351, -0.869956, 0.303126, -45.846695, -33.420975, -662.660522
1733469845.276036, -27.970111, 9.120861, -7.643489, 7.027853, -0.650611, -0.217182, -46.105682, -36.869446, -662.723389
1733469845.286049, -28.681788, 8.766519, -5.994782, 6.932785, -0.327394, -0.816210, -46.383270, -40.420334, -662.947815
1733469845.296039, -28.901156, 8.399608, -3.750367, 6.696376, -0.083585, -1.532215, -46.258820, -43.762054, -662.889160
1733469845.305267, -28.226141, 7.797167, -1.380557, 6.369755, 0.013203, -2.271825, -46.286499, -47.143784, -662.686340
1733469845.316043, -26.679786, 7.864055, 0.470610, 6.029235, 0.064854, -2.867199, -46.279556, -50.450302, -661.171753
1733469845.326026, -24.860043, 8.146570, 1.949179, 5.677082, 0.117175, -3.327725, -45.902344, -53.406036, -661.116821
1733469845.336024, -22.960095, 7.965359, 3.293374, 5.318018, 0.146829, -3.676747, -45.565323, -56.187393, -660.481079
1733469845.346094, -21.214273, 7.654263, 4.271555, 4.962503, 0.222196, -3.956290, -45.121964, -58.835983, -660.093140
1733469845.356047, -19.630059, 7.192481, 5.153519, 4.589195, 0.296485, -4.231117, -44.264038, -61.235321, -659.364258
1733469845.366034, -17.942596, 6.669647, 6.033538, 4.194957, 0.323594, -4.501590, -43.607422, -63.872040, -658.591064
1733469845.375600, -16.084097, 6.405836, 6.908170, 3.785299, 0.251084, -4.752875, -42.410492, -65.705750, -657.974243
1733469845.386093, -14.113819, 6.159682, 7.646332, 3.364660, 0.078953, -4.968177, -41.529968, -67.524063, -657.069092
1733469845.396056, -12.087127, 5.915623, 8.182334, 2.943946, -0.193616, -5.125422, -40.302521, -68.958237, -656.191040
1733469845.406031, -10.284293, 5.730971, 8.380454, 2.542515, -0.465433, -5.217848, -39.338898, -70.025269, -655.590637
1733469845.416037, -8.729110, 5.509357, 8.071003, 2.134931, -0.619660, -5.250373, -37.943375, -71.179565, -654.644409
1733469845.426031, -7.201908, 5.357176, 7.867047, 1.697508, -0.677212, -5.214159, -36.780487, -71.735519, -654.652222
1733469845.436023, -5.727379, 5.350293, 7.788787, 1.236423, -0.718547, -5.104967, -35.661713, -72.217453, -654.685303
1733469845.446026, -2.975544, 5.479280, 7.045088, 0.423405, -0.714607, -4.691331, -34.418427, -72.664963, -654.653687
1733469845.456021, -2.034323, 5.279514, 6.536619, 0.096417, -0.725415, -4.452344, -33.692871, -72.500793, -654.347778
1733469845.466018, -1.347038, 4.845864, 6.025008, -0.158059, -0.764961, -4.242359, -32.618515, -72.554535, -654.345764
1733469845.476025, -0.882263, 4.378546, 5.543026, -0.344373, -0.865644, -4.062686, -31.808151, -72.299667, -654.716125
1733469845.486039, -0.882263, 4.378546, 5.543026, -0.460714, -1.025233, -3.923894, -30.886093, -71.761642, -655.176514
1733469845.495272, -0.485125, 3.882198, 5.098004, -0.460714, -1.025233, -3.923894, -30.078568, -71.521179, -655.249207
1733469845.505450, -0.107739, 3.340061, 4.495712, -0.512664, -1.139490, -3.808291, -29.291977, -71.114105, -655.205505
1733469845.515359, 0.434099, 2.994697, 3.871574, -0.561207, -1.189132, -3.666339, -28.874573, -70.670410, -655.348267
1733469845.526009, 1.844882, 2.898780, 3.889381, -0.738960, -1.328498, -3.250635, -28.200027, -70.198303, -656.376282
1733469845.536042, 2.480094, 2.642002, 3.903147, -0.865055, -1.420221, -2.993687, -27.739807, -69.373108, -656.628662
1733469845.546029, 3.128024, 2.529324, 3.968988, -1.009961, -1.528817, -2.700722, -27.844360, -68.714264, -656.957764
1733469845.555290, 3.128024, 2.529324, 3.968988, -1.009961, -1.528817, -2.700722, -27.886475, -68.003159, -657.407654
1733469845.566058, 4.093636, 2.010680, 4.046051, -1.394308, -1.765166, -2.077713, -28.083221, -67.295212, -658.052490
1733469845.576026, 4.373758, 1.708263, 3.781492, -1.650187, -1.758318, -1.754713, -28.395416, -66.373581, -658.609741
1733469845.586019, 4.536563, 1.678934, 3.605668, -1.955223, -1.670217, -1.421285, -28.395233, -65.263062, -659.487976
1733469845.596020, 4.616919, 1.673996, 3.528155, -2.298015, -1.590480, -1.102318, -28.917648, -64.151917, -660.118347
1733469845.606026, 4.631733, 1.582567, 3.406500, -2.637498, -1.539228, -0.813587, -29.623718, -63.028915, -661.131775
1733469845.616045, 4.672733, 1.452981, 3.017891, -2.937227, -1.538452, -0.550690, -30.216980, -61.581284, -661.264404
1733469845.626028, 4.778827, 1.324742, 2.431013, -3.189753, -1.579201, -0.320126, -30.751617, -60.167831, -662.577209
1733469845.636029, 4.887164, 1.307084, 1.836652, -3.386738, -1.669168, -0.119811, -31.482910, -58.534225, -663.264099
1733469845.646022, 4.797232, 1.642123, 1.435773, -3.521534, -1.846500, 0.046694, -32.555420, -56.698120, -663.814209
1733469845.656037, 4.682011, 2.277784, 1.181239, -3.621415, -2.129394, 0.211995, -33.540298, -55.042114, -664.586853
1733469845.666020, 4.529830, 3.129371, 1.010503, -3.709745, -2.449497, 0.389854, -34.744064, -53.167236, -664.933960
1733469845.676037, 4.384831, 4.237737, 0.396091, -3.830911, -2.649962, 0.626806, -36.028564, -51.137863, -664.942566
1733469845.686034, 4.534618, 5.196914, -0.552462, -4.029842, -2.792511, 0.957182, -37.445557, -49.118164, -665.314453
1733469845.696019, 4.792892, 5.956774, -1.544260, -4.287169, -2.890820, 1.347389, -38.815079, -47.000381, -665.260498
1733469845.706029, 4.729895, 6.619818, -2.920028, -4.513249, -3.013510, 1.739573, -40.341461, -44.472610, -665.380005
1733469845.716017, 4.426879, 7.567922, -4.511574, -4.615595, -3.202957, 2.137528, -41.762360, -42.250183, -665.045349
1733469845.726017, 3.868282, 8.371326, -6.238242, -4.558232, -3.423535, 2.501259, -43.613617, -39.814667, -665.506836
1733469845.736016, 2.986767, 8.871565, -7.572261, -4.377331, -3.719958, 2.823063, -45.387909, -37.441360, -664.824463
1733469845.746015, 1.965191, 9.493010, -8.533683, -4.124682, -4.009645, 3.124449, -46.920532, -35.002045, -664.092224
1733469845.756015, 1.176152, 9.713276, -9.378537, -3.916926, -4.190395, 3.494106, -48.316895, -32.653641, -663.150024
1733469845.766032, 0.251391, 10.221894, -10.089315, -3.901180, -4.221735, 3.891828, -49.780258, -30.017654, -661.873352
1733469845.776023, -1.519420, 11.016919, -11.049839, -3.989603, -4.090985, 4.210483, -51.261246, -27.532913, -660.886108
1733469845.786014, -3.303400, 11.249007, -12.792519, -4.041916, -3.816291, 4.440919, -51.976746, -25.116394, -659.572510
1733469845.796013, -4.954950, 11.673978, -14.639795, -4.028070, -3.531343, 4.580172, -53.092590, -22.791931, -658.344849
1733469845.806014, -6.624457, 12.327894, -16.202012, -3.886043, -3.419569, 4.616260, -53.464340, -20.318008, -656.963501
1733469845.816013, -8.029703, 12.558037, -17.994969, -3.501526, -3.460581, 4.592067, -53.699524, -17.706421, -655.105408
1733469845.826012, -8.961198, 12.848633, -20.346375, -2.955571, -3.387737, 4.645652, -53.304657, -15.645325, -653.847778
1733469845.836011, -9.592070, 13.566594, -22.646754, -2.458073, -3.029247, 4.807742, -53.475281, -13.635452, -652.487000
1733469845.846012, -10.262596, 13.992912, -24.461109, -2.050929, -2.416003, 5.019097, -52.933289, -11.977768, -651.534546
1733469845.856024, -11.410765, 14.321965, -25.468171, -1.691996, -1.803943, 5.139532, -52.073685, -10.352844, -650.875122
1733469845.866018, -13.037775, 14.725238, -25.609428, -1.252003, -1.549302, 5.097837, -50.950760, -9.261276, -650.219727
1733469845.876025, -14.014459, 15.047707, -25.822961, -0.561030, -1.661755, 5.060818, -50.088379, -8.109558, -649.776001
1733469845.886021, -15.100679, 15.538668, -26.244640, 0.315508, -1.955787, 5.003575, -49.115234, -7.513580, -649.891113
1733469845.896009, -16.397438, 15.102325, -26.432286, 1.279431, -2.190972, 4.930308, -48.129135, -7.234192, -649.776794
1733469845.906011, -17.899650, 13.995007, -26.588657, 2.220976, -2.166453, 4.806888, -47.219040, -7.154587, -650.449585
1733469845.916009, -20.003405, 13.329568, -25.705645, 2.968933, -1.946874, 4.590784, -45.991852, -7.663025, -650.969727
1733469845.926059, -22.086061, 12.932580, -24.077738, 3.513218, -1.579474, 4.373487, -45.133438, -8.450119, -652.578369
1733469845.936010, -24.450485, 12.167632, -22.684013, 3.897279, -1.075388, 4.017369, -44.385849, -9.290527, -653.539917
1733469845.946007, -26.473436, 10.947337, -21.307048, 4.110842, -0.554783, 3.509218, -43.639374, -10.575745, -654.690125
1733469845.956023, -27.358542, 10.308535, -19.656396, 4.238293, -0.213172, 2.945591, -42.954178, -11.897629, -655.747925
1733469845.966016, -27.431715, 10.488399, -18.082507, 4.399704, -0.167886, 2.355469, -42.081604, -13.553253, -656.678833
1733469845.976020, -26.939407, 10.898855, -17.207576, 4.704313, -0.259224, 1.886518, -41.484222, -15.340668, -657.414307
1733469845.986013, -26.509648, 11.672332, -16.705093, 5.164248, -0.359581, 1.555726, -41.484222, -15.340668, -657.414307
1733469845.996013, -26.773459, 11.956942, -16.069582, 5.674048, -0.354310, 1.246158, -41.011749, -17.474396, -658.617798
1733469846.006061, -27.583747, 11.873893, -15.045463, 6.111308, -0.227730, 0.846043, -40.848221, -20.169022, -659.965942
1733469846.016024, -28.386104, 11.737574, -13.397204, 6.417143, -0.038025, 0.324911, -41.056458, -23.040741, -661.012878
1733469846.026003, -28.424261, 11.572074, -11.402984, 6.590586, 0.124150, -0.255225, -41.145813, -26.014099, -662.461792
1733469846.036009, -27.846211, 11.669937, -8.985289, 6.648648, 0.175287, -0.848266, -41.237747, -29.620255, -663.399414
1733469846.046053, -26.790817, 11.526734, -6.592584, 6.598446, 0.189978, -1.390243, -41.284378, -32.762985, -663.579407
1733469846.056015, -25.605089, 11.438747, -4.663905, 6.480828, 0.258372, -1.834982, -41.468903, -36.070984, -663.338623
1733469846.066007, -24.624963, 10.998214, -3.078644, 6.306311, 0.401907, -2.266843, -41.799088, -39.467499, -664.160889
1733469846.076012, -23.356934, 9.853786, -1.735347, 6.092086, 0.543667, -2.706462, -41.654999, -42.793564, -663.961731
1733469846.086001, -21.804443, 8.932168, -0.396989, 5.867695, 0.642889, -3.126755, -41.446121, -46.035309, -663.578125
1733469846.096062, -20.097976, 8.293066, 0.956035, 5.630774, 0.659717, -3.510132, -41.196793, -49.013519, -663.139404
1733469846.106025, -18.407819, 7.727735, 2.422184, 5.352185, 0.591371, -3.841375, -40.608536, -52.129669, -662.969543
1733469846.116004, -16.893786, 7.211485, 3.815460, 4.998263, 0.453128, -4.154809, -39.989624, -55.026947, -661.852234
1733469846.126007, -15.405341, 6.631340, 4.876241, 4.593712, 0.254931, -4.429258, -39.276291, -57.586594, -661.728577
1733469846.136003, -13.976751, 6.193650, 5.376180, 4.201843, 0.072068, -4.632194, -38.428055, -59.888000, -661.033203
1733469846.146001, -12.727426, 5.838710, 5.633706, 3.849754, -0.072213, -4.780234, -37.621765, -61.806183, -660.189819
1733469846.156000, -11.345523, 5.347599, 5.777209, 3.508117, -0.172981, -4.885902, -37.053085, -63.632507, -659.260864
1733469846.166017, -9.964967, 4.820575, 5.995081, 3.135038, -0.281343, -4.958240, -35.863525, -65.372986, -658.886902
1733469846.176023, -8.837298, 4.575619, 6.234950, 2.761330, -0.374498, -5.014275, -34.897461, -66.680054, -657.903992
1733469846.186018, -7.882460, 4.243872, 6.235249, 2.397933, -0.402430, -5.077828, -33.941467, -67.659607, -657.308228
1733469846.196015, -6.969371, 4.066552, 6.174347, 2.034408, -0.343615, -5.126134, -32.700455, -68.416595, -656.575562
1733469846.206012, -5.919813, 4.292504, 6.323087, 1.628255, -0.240330, -5.130091, -31.289444, -69.132996, -655.995117
1733469846.216011, -4.646098, 4.752041, 6.851756, 1.155790, -0.198523, -5.050945, -30.115158, -69.724258, -655.568298
1733469846.226001, -3.280056, 5.193173, 7.350648, 0.650532, -0.243304, -4.887123, -28.477310, -69.544098, -655.551636
1733469846.235999, -1.963994, 5.390994, 7.378331, 0.177302, -0.345916, -4.658761, -27.504959, -69.496552, -655.990845
1733469846.245998, -0.883909, 5.428852, 6.853702, -0.205335, -0.459125, -4.391273, -26.341431, -68.907455, -655.849243
1733469846.256020, 0.053421, 5.187636, 6.000318, -0.468763, -0.567407, -4.108749, -25.371536, -68.371475, -656.194763
1733469846.266011, 0.797120, 4.863372, 5.089325, -0.623220, -0.658733, -3.792744, -24.679108, -67.766998, -656.285645
1733469846.276003, 1.292420, 4.492719, 4.527286, -0.720569, -0.761696, -3.501380, -24.147583, -67.228012, -656.761475
1733469846.286005, 1.609801, 3.869329, 4.373458, -0.795987, -0.950533, -3.262980, -23.672806, -66.517349, -657.367493
1733469846.295993, 1.743128, 3.128174, 4.290110, -0.845244, -1.191347, -3.085573, -23.242401, -65.906067, -657.534424
1733469846.305998, 1.856703, 2.436250, 4.066701, -0.894590, -1.393426, -2.951769, -23.228592, -64.917542, -657.832825
1733469846.315995, 2.120963, 1.876306, 3.757550, -0.969374, -1.498559, -2.816084, -23.134308, -64.116074, -657.828674
1733469846.326064, 2.545934, 1.615188, 3.468151, -1.089039, -1.484083, -2.651555, -23.137314, -63.249420, -658.673584
1733469846.335997, 2.974047, 1.481263, 3.346645, -1.288088, -1.377252, -2.478284, -22.974655, -62.367340, -659.461609
1733469846.345997, 3.584868, 1.473033, 3.562422, -1.564259, -1.272950, -2.264650, -22.823242, -61.442886, -659.899292
1733469846.356001, 4.254197, 1.801936, 3.820847, -1.872601, -1.236262, -2.014517, -23.100662, -60.303558, -660.122864
1733469846.365999, 4.863821, 2.234688, 3.907487, -2.155150, -1.320210, -1.740988, -23.454132, -59.038116, -660.947144
1733469846.375999, 5.509806, 2.801515, 3.750517, -2.357159, -1.539716, -1.417329, -23.869949, -57.657440, -661.705017
1733469846.385992, 6.172551, 3.282600, 3.379865, -2.465667, -1.928657, -1.019804, -24.518265, -56.460907, -662.404846
1733469846.396004, 6.609343, 3.406051, 2.888155, -2.495181, -2.380673, -0.605150, -25.377792, -55.326996, -662.982300
1733469846.406025, 6.701819, 3.140444, 2.139967, -2.510861, -2.737938, -0.202244, -26.502380, -53.936890, -663.465332
1733469846.415849, 6.319645, 2.906710, 1.325789, -2.615244, -2.859936, 0.160067, -27.957870, -52.673981, -663.632568
1733469846.425999, 5.785139, 3.012355, 0.723647, -2.879802, -2.729116, 0.470502, -29.255203, -51.191742, -664.577332
1733469846.436004, 5.164742, 3.452888, 0.555305, -3.324693, -2.510103, 0.712657, -30.632507, -49.834747, -665.056274
1733469846.445993, 4.721665, 4.066851, 0.421679, -3.895421, -2.336211, 0.903223, -31.713440, -47.978973, -665.446411
1733469846.456048, 4.479402, 5.243002, -0.002993, -4.462060, -2.328732, 1.104563, -33.110168, -45.421661, -665.821472
1733469846.465992, 4.281880, 6.934207, -0.820164, -4.921554, -2.521061, 1.323417, -34.285202, -43.136337, -665.834656
1733469846.476010, 4.367473, 8.120982, -2.463634, -5.226930, -2.865671, 1.596645, -35.717026, -40.507248, -665.902100
1733469846.485400, 4.430620, 9.110536, -4.729446, -5.363865, -3.258102, 1.912182, -37.125397, -37.872223, -665.740967
1733469846.495264, 4.138826, 10.382755, -7.689428, -5.321006, -3.521739, 2.290687, -38.706345, -35.172119, -665.405273
1733469846.506000, 3.735703, 11.493814, -10.665869, -5.130039, -3.682037, 2.715603, -40.125443, -32.307831, -664.770264
1733469846.515992, 2.984971, 11.918336, -13.539659, -4.810976, -3.673400, 3.102274, -41.742813, -30.108093, -663.397644
1733469846.525985, 1.886032, 11.791443, -16.394296, -4.375419, -3.496524, 3.425085, -42.916962, -27.928818, -663.679138
1733469846.535998, 0.821660, 11.736676, -18.175732, -3.931807, -3.323881, 3.688008, -43.796036, -25.483536, -662.217407
1733469846.545988, -0.028431, 11.268460, -18.900875, -3.499040, -3.245653, 3.911670, -44.409103, -23.720596, -661.408875
1733469846.555986, -1.105822, 10.981604, -19.398420, -3.167336, -3.054883, 4.127707, -44.729095, -21.536514, -660.412292
1733469846.566000, -2.241422, 11.378743, -19.677943, -3.145449, -2.687672, 4.345683, -45.276779, -19.642685, -659.522949
1733469846.575987, -3.134459, 11.451766, -19.973627, -3.334508, -2.222303, 4.525238, -45.421829, -17.767746, -658.427124
1733469846.586002, -4.158878, 11.745953, -20.671088, -3.545178, -1.811804, 4.619007, -45.144669, -15.806671, -657.763550
1733469846.595999, -5.026626, 12.733262, -21.483920, -3.641185, -1.726056, 4.637221, -44.946045, -13.820114, -656.528320
1733469846.605999, -5.744887, 13.814095, -23.410205, -3.297304, -2.030722, 4.650395, -44.231277, -11.946548, -655.599121
1733469846.616042, -6.719776, 14.532355, -26.437523, -2.426314, -2.571376, 4.686474, -43.646896, -10.644943, -653.596436
1733469846.626049, -8.204779, 15.057434, -28.946347, -1.213352, -3.149868, 4.738961, -43.232147, -9.706192, -653.496704
1733469846.636083, -9.887903, 14.960768, -30.757261, 0.097534, -3.436279, 4.826776, -42.686600, -9.076813, -653.347961
1733469846.645936, -11.996447, 14.495694, -31.491683, 1.222502, -3.257184, 4.880452, -42.067505, -8.878769, -653.571411
1733469846.656011, -14.776414, 13.813795, -30.733469, 2.006730, -2.681236, 4.847845, -41.375656, -9.256073, -654.051331
1733469846.665988, -17.596784, 12.820950, -29.273455, 2.525229, -1.937491, 4.695381, -40.641998, -9.888733, -654.655762
1733469846.676035, -19.607165, 12.089521, -27.534367, 2.894622, -1.233026, 4.503045, -39.750580, -10.766861, -655.206665
1733469846.686046, -20.870256, 11.433959, -25.592968, 3.180327, -0.754137, 4.286423, -38.693985, -11.825943, -656.141785
1733469846.696011, -22.175245, 10.750265, -23.584682, 3.493634, -0.545973, 4.015876, -37.819473, -12.920258, -657.312927
1733469846.705982, -23.695414, 9.904363, -21.978173, 3.857693, -0.560517, 3.593472, -36.995178, -14.513809, -658.471680
1733469846.715990, -24.916756, 9.022699, -20.586842, 4.293528, -0.696845, 3.076066, -36.719269, -16.181107, -658.449585
1733469846.725999, -25.806800, 8.566603, -19.811121, 4.798992, -0.766965, 2.504884, -36.402786, -18.320236, -660.437256
1733469846.735984, -26.214713, 8.122030, -18.745252, 5.262106, -0.790152, 1.883524, -36.296753, -20.606400, -661.219604
1733469846.745994, -26.158598, 8.353819, -16.970101, 5.609085, -0.714932, 1.341134, -35.930054, -23.376984, -662.075623
1733469846.755994, -25.867404, 8.971672, -14.949395, 5.778663, -0.503307, 0.883773, -36.183945, -26.011154, -662.971680
1733469846.765991, -25.455002, 8.993819, -12.678794, 5.795165, -0.305392, 0.469836, -36.263229, -28.855591, -663.608276
1733469846.775997, -25.256583, 8.840290, -10.564415, 5.730772, -0.093122, 0.065111, -36.468811, -31.768661, -664.317627
1733469846.785994, -25.309106, 8.566603, -8.817396, 5.616821, 0.131888, -0.383884, -36.505203, -34.377670, -664.416504
1733469846.795981, -25.277831, 8.000374, -7.277625, 5.485920, 0.359889, -0.893155, -36.482925, -37.285492, -664.669678
1733469846.805982, -24.916457, 7.452551, -5.838410, 5.346364, 0.553631, -1.454623, -36.624176, -39.935440, -664.873413
1733469846.815984, -24.037785, 7.010073, -4.489427, 5.229929, 0.729687, -2.020268, -36.167267, -42.612595, -664.263550
1733469846.825989, -22.720824, 6.921188, -3.227982, 5.130355, 0.893377, -2.530495, -36.094955, -45.130035, -664.358398
1733469846.835979, -21.027226, 7.103596, -1.897554, 5.030950, 1.022386, -2.938632, -35.518661, -47.723434, -664.091248
1733469846.845978, -19.022082, 7.053917, -0.390554, 4.905208, 1.070026, -3.238491, -34.944809, -50.369614, -663.922729
1733469846.855977, -17.151013, 6.856096, 1.136797, 4.736135, 1.064566, -3.465448, -34.059097, -52.827255, -663.730408
1733469846.865997, -15.527445, 6.513276, 2.593968, 4.494644, 1.026943, -3.649655, -33.394608, -55.008286, -663.372986
1733469846.875989, -14.045434, 5.996128, 3.926640, 4.169877, 0.945450, -3.818661, -32.637207, -56.832565, -662.560303
1733469846.885982, -12.610559, 5.448006, 5.058649, 3.767940, 0.817658, -3.970196, -31.728653, -58.463669, -661.662598
1733469846.895976, -11.159823, 5.117756, 5.819556, 3.312813, 0.638513, -4.080843, -30.436249, -59.791260, -661.216492
1733469846.905988, -9.716269, 4.931457, 6.085462, 2.857614, 0.490556, -4.118106, -29.635590, -60.712952, -660.819092
1733469846.915980, -8.266281, 4.866365, 5.833173, 2.444330, 0.393524, -4.049202, -29.015198, -61.712921, -659.641235
1733469846.925976, -6.968474, 4.633079, 5.526715, 2.094684, 0.319786, -3.922879, -27.975861, -62.330475, -660.101440
1733469846.935988, -6.105364, 4.087650, 5.264401, 1.795024, 0.294771, -3.807848, -27.143463, -62.906082, -659.744629
1733469846.945977, -5.641637, 3.515287, 5.211130, 1.491667, 0.258642, -3.752804, -26.153976, -63.313019, -659.426147
1733469846.955975, -5.281010, 3.137751, 5.398177, 1.173447, 0.189296, -3.733627, -25.597778, -63.345718, -659.203247
1733469846.965983, -4.842722, 2.844760, 5.350442, 0.853539, 0.131582, -3.732079, -24.616898, -63.402710, -658.933472
1733469846.975303, -4.339341, 2.602946, 5.232079, 0.561794, 0.013789, -3.725757, -23.820221, -63.281845, -659.066711
1733469846.985975, -3.766378, 2.469020, 5.211878, 0.306556, -0.153121, -3.704966, -23.004852, -62.826141, -658.851685
1733469846.995991, -3.138499, 2.344223, 5.114464, 0.080058, -0.389623, -3.671502, -22.545517, -62.289566, -658.925354
1733469847.005976, -2.452860, 2.327463, 4.886715, -0.099585, -0.667966, -3.574789, -22.112122, -61.746674, -659.042175
1733469847.015976, -1.794903, 2.326117, 4.498406, -0.236526, -0.937701, -3.423267, -21.779526, -61.434372, -658.543457
1733469847.025979, -1.417068, 2.004545, 4.169652, -0.369888, -1.176895, -3.299387, -21.626633, -60.494385, -659.908813
1733469847.035970, -1.221641, 1.463605, 3.883096, -0.513392, -1.366256, -3.223832, -21.807480, -59.834732, -660.050110
1733469847.045973, -0.997784, 1.112705, 3.473089, -0.678078, -1.426159, -3.152046, -21.691635, -59.043533, -660.457275
1733469847.055973, -0.681899, 1.021875, 3.037344, -0.881805, -1.333941, -3.059517, -21.705841, -58.084213, -660.540283
1733469847.065974, -0.229095, 1.079785, 2.870349, -1.161864, -1.155457, -2.940626, -21.823898, -57.064331, -661.240051
1733469847.075972, 0.243909, 1.149965, 3.090465, -1.502122, -1.004268, -2.812127, -21.768417, -55.852036, -661.784058
1733469847.085968, 0.623241, 1.213411, 3.280356, -1.844007, -0.900308, -2.695313, -22.047806, -54.648056, -661.949585
1733469847.095967, 1.028908, 1.362600, 3.267337, -2.138640, -0.910725, -2.582137, -22.023071, -53.359024, -662.453674
1733469847.105975, 1.568202, 1.661875, 3.274520, -2.351821, -1.105323, -2.479427, -22.416595, -51.832916, -662.695496
1733469847.115973, 2.015020, 2.176629, 3.275268, -2.492631, -1.506275, -2.407114, -23.081070, -50.183792, -662.437500
1733469847.125969, 2.601450, 2.615815, 3.056647, -2.568926, -2.131297, -2.324545, -23.944748, -48.774307, -663.902710
1733469847.135971, 3.255516, 3.241450, 2.517503, -2.563003, -2.893554, -2.196048, -25.452866, -47.302612, -664.335632
1733469847.145968, 3.964499, 4.092289, 1.446696, -2.494633, -3.615409, -1.960869, -27.217285, -45.676147, -664.652344
1733469847.155988, 4.671387, 4.722563, -0.058359, -2.392515, -4.183486, -1.612208, -28.872482, -44.456573, -664.910339
1733469847.165978, 5.298368, 5.493795, -1.535731, -2.328089, -4.494110, -1.116168, -31.220993, -43.018890, -665.379028
1733469847.175977, 6.059275, 6.306626, -2.767996, -2.412168, -4.522741, -0.496809, -33.229218, -41.733749, -665.455811
1733469847.185995, 6.685658, 6.685509, -3.692009, -2.684749, -4.285007, 0.193907, -35.293259, -40.229355, -665.097717
1733469847.196034, 6.738780, 7.319972, -4.324377, -3.164330, -3.873865, 0.873306, -37.001465, -38.373917, -665.249451
1733469847.205972, 6.465990, 8.329727, -4.975001, -3.772417, -3.486457, 1.497769, -38.740707, -36.550339, -665.176636
1733469847.215973, 6.212055, 8.659528, -6.257695, -4.265915, -3.235930, 2.034984, -40.224518, -34.377655, -664.442627
1733469847.225970, 5.553201, 8.900145, -8.287679, -4.539277, -3.116684, 2.455449, -41.590759, -31.726990, -664.417358
1733469847.235973, 4.891803, 9.117569, -10.355820, -4.631346, -3.143155, 2.778260, -42.966919, -29.254028, -664.019226
1733469847.246033, 4.075829, 9.488969, -12.223896, -4.646185, -3.172649, 3.035941, -44.012207, -26.953751, -662.680542
1733469847.255969, 3.478027, 10.350433, -14.239664, -4.637137, -3.154287, 3.279699, -44.809753, -24.209381, -661.875366
1733469847.265970, 2.933944, 11.152790, -16.493206, -4.539447, -3.127372, 3.532640, -45.673950, -21.968033, -660.704651
1733469847.275145, 1.812111, 11.669788, -19.276615, -4.264229, -3.065336, 3.735699, -45.757141, -19.824097, -659.577515
1733469847.285962, 0.458639, 11.684303, -22.521208, -3.733798, -2.912847, 3.921799, -45.983856, -17.888596, -658.361084
1733469847.295967, -0.714968, 11.827207, -24.858098, -3.069092, -2.758295, 4.131107, -46.028152, -16.160995, -657.295654
1733469847.305964, -1.915960, 12.029517, -26.083630, -2.442447, -2.511395, 4.365139, -45.614777, -14.766586, -656.775757
1733469847.315961, -3.269282, 11.865514, -26.927736, -1.942285, -2.050795, 4.571253, -45.287521, -13.487137, -655.900208
1733469847.325966, -4.436156, 11.581801, -27.166557, -1.573541, -1.519641, 4.732053, -44.582367, -12.536392, -655.891418
1733469847.336020, -5.370344, 11.529128, -26.696246, -1.239549, -1.190586, 4.793031, -43.725845, -11.802338, -655.599182
1733469847.345968, -6.413019, 11.961731, -25.860820, -0.806875, -1.277187, 4.767632, -42.972794, -11.280640, -655.190063
1733469847.355981, -7.173627, 12.749722, -25.104402, -0.223576, -1.751527, 4.761522, -42.169937, -10.925507, -655.039551
1733469847.365966, -7.832631, 13.262530, -24.788217, 0.534144, -2.374992, 4.873212, -41.363190, -10.945679, -655.204773
1733469847.375973, -9.233987, 13.472771, -24.879047, 1.385155, -2.875295, 5.068778, -40.716888, -11.092392, -655.244141
1733469847.385961, -12.262802, 13.498659, -24.913015, 2.157604, -3.077240, 5.175595, -40.227905, -11.751511, -655.981567
1733469847.395963, -16.461782, 12.467805, -25.242816, 2.813861, -2.861680, 5.024309, -39.863663, -12.821686, -656.855957
1733469847.405960, -20.692337, 10.448146, -25.818771, 3.354374, -2.231447, 4.589722, -39.105453, -14.157440, -657.848022
1733469847.415963, -23.985561, 9.107992, -25.764453, 3.757995, -1.352879, 4.001901, -38.617325, -15.489258, -658.399780
1733469847.425959, -26.081984, 8.487295, -24.431182, 4.022902, -0.613237, 3.318264, -37.719040, -17.261398, -659.628418
1733469847.435958, -26.651804, 8.577676, -21.672313, 4.223147, -0.240477, 2.713408, -37.007919, -19.222626, -660.300598
1733469847.445958, -26.328886, 9.050980, -19.220501, 4.444510, -0.179462, 2.241203, -36.625946, -21.192230, -660.943787
1733469847.455959, -25.677065, 9.128193, -17.799543, 4.747746, -0.158364, 1.927658, -35.904892, -23.458435, -661.659668
1733469847.465968, -25.568428, 9.362226, -17.027263, 5.076150, -0.049535, 1.699832, -35.946716, -25.984680, -662.602356
1733469847.475955, -26.536882, 9.350405, -15.941193, 5.371470, 0.139772, 1.405637, -35.590439, -28.741379, -663.053406
1733469847.485980, -28.063485, 8.754548, -14.966603, 5.609499, 0.482788, 0.940369, -35.414780, -31.675293, -663.727783
1733469847.495969, -29.167062, 7.971794, -13.440450, 5.734634, 0.826626, 0.297622, -35.414780, -31.675293, -663.727783
1733469847.505397, -29.391369, 7.634810, -11.212346, 5.771977, 1.042410, -0.430877, -35.207062, -34.604294, -664.319031
1733469847.516008, -28.691813, 7.649025, -8.853907, 5.766003, 1.063650, -1.157516, -34.763016, -37.529266, -664.054810
1733469847.525973, -27.105655, 7.802853, -6.918195, 5.734458, 1.010125, -1.814731, -34.417343, -40.307068, -664.343628
1733469847.535408, -25.044696, 7.924359, -5.570409, 5.700376, 0.988348, -2.350555, -34.089279, -43.301437, -664.166931
1733469847.545964, -22.750452, 8.217349, -4.498106, 5.675791, 1.047468, -2.740736, -33.496979, -46.166092, -663.866516
1733469847.555960, -20.453964, 8.483854, -3.341408, 5.642752, 1.127174, -3.011210, -33.262329, -49.036758, -663.680176
1733469847.565968, -18.368764, 8.563162, -1.888127, 5.581007, 1.183519, -3.208792, -32.629715, -51.873077, -663.062134
1733469847.576030, -16.528670, 8.319551, -0.271892, 5.456679, 1.181612, -3.366994, -31.845917, -54.566818, -662.458252
1733469847.585956, -14.919019, 7.816171, 1.547402, 5.242536, 1.092979, -3.524258, -31.282745, -57.102203, -661.652283
1733469847.595952, -13.530980, 7.066636, 3.331532, 4.927636, 0.896844, -3.729333, -30.452988, -59.271240, -661.131104
1733469847.605964, -12.173468, 6.184821, 4.803367, 4.542927, 0.596685, -3.967042, -29.421265, -61.215286, -659.994812
1733469847.616017, -10.772860, 5.490802, 5.618742, 4.146545, 0.282503, -4.198484, -28.751816, -63.046661, -658.716064
1733469847.625955, -9.305663, 5.036502, 5.943306, 3.772228, -0.002661, -4.366212, -27.554108, -64.268448, -658.767883
1733469847.635963, -7.744644, 4.799626, 6.121674, 3.431058, -0.240941, -4.427936, -26.518555, -65.431656, -657.876404
1733469847.645984, -6.102521, 4.821922, 6.259940, 3.102103, -0.414624, -4.367355, -25.942947, -66.425873, -656.976685
1733469847.655957, -4.402039, 4.847361, 6.700173, 2.747794, -0.600087, -4.200990, -25.076065, -67.180710, -656.490967
1733469847.665961, -2.884414, 4.545093, 7.370699, 2.317806, -0.788455, -4.005218, -24.350723, -67.615097, -656.290955
1733469847.675951, -1.859995, 4.038270, 7.774871, 1.800818, -0.901026, -3.809908, -23.850784, -68.133896, -655.743408
1733469847.685952, -1.182287, 3.606566, 7.719355, 1.240434, -0.864140, -3.630068, -23.334488, -68.154404, -655.534485
1733469847.695949, -0.604536, 3.174562, 7.350049, 0.677546, -0.699572, -3.457705, -22.743240, -68.025833, -655.718201
1733469847.705952, -0.060005, 2.835333, 7.143550, 0.151122, -0.541199, -3.292556, -22.059723, -67.589798, -655.804688
1733469847.716016, 0.358532, 2.542941, 7.044789, -0.299613, -0.466766, -3.144768, -21.467819, -67.147736, -655.452881
1733469847.725950, 0.714669, 2.133683, 6.879439, -0.661078, -0.505765, -3.031130, -21.058624, -66.367615, -656.334595
1733469847.735961, 0.933589, 1.718289, 6.723068, -0.936474, -0.663291, -2.948993, -20.331863, -65.621078, -656.802246
1733469847.746008, 1.250521, 1.512986, 6.433070, -1.134973, -0.898807, -2.861689, -20.204163, -64.630783, -657.164917
1733469847.755976, 1.690606, 1.462857, 6.157587, -1.275182, -1.207582, -2.747923, -20.126175, -63.511215, -657.559204
1733469847.765968, 1.987038, 1.371429, 5.963807, -1.397575, -1.552172, -2.631342, -19.994797, -62.512375, -657.893188
1733469847.775956, 2.211644, 1.142184, 5.561880, -1.522726, -1.834358, -2.502001, -20.420715, -61.499725, -658.521790
1733469847.785957, 2.438045, 1.120636, 5.132121, -1.674444, -2.020855, -2.346578, -20.841660, -60.118744, -659.440308
1733469847.795947, 2.712481, 1.168520, 4.785560, -1.870427, -2.104953, -2.164011, -21.385025, -58.974014, -660.148804
1733469847.805960, 3.045425, 1.305738, 4.556465, -2.121000, -2.110366, -1.942906, -21.841919, -57.568634, -660.655701
1733469847.816028, 3.380164, 1.610400, 4.378845, -2.409996, -2.066520, -1.692726, -22.558167, -56.290024, -660.623535
1733469847.825972, 3.573795, 2.000954, 4.144513, -2.702658, -1.998647, -1.405660, -23.302002, -54.750092, -662.010986
1733469847.835946, 3.805135, 2.517353, 3.921253, -2.979778, -1.958304, -1.092423, -24.161880, -53.327866, -662.447144
1733469847.845994, 3.902249, 2.990657, 3.922002, -3.245017, -2.010285, -0.796406, -24.728531, -51.505890, -663.668274
1733469847.855952, 3.730316, 3.568258, 3.945495, -3.478918, -2.182250, -0.541049, -25.896530, -49.872375, -664.200562
1733469847.865959, 3.661483, 4.234744, 3.593547, -3.653906, -2.493865, -0.303040, -27.455124, -47.706192, -664.433472
1733469847.875960, 3.860501, 4.707599, 2.998887, -3.771986, -2.909469, -0.078353, -28.912415, -46.105789, -664.459351
1733469847.885944, 4.231452, 5.105934, 1.968632, -3.853037, -3.379034, 0.184788, -30.764099, -44.196426, -664.932861
1733469847.895997, 4.637569, 5.737704, 0.891990, -4.125834, -4.382074, 0.948191, -32.626877, -42.080795, -665.328857
1733469847.905939, 4.559458, 8.187122, -1.051055, -4.303080, -4.865528, 1.410413, -34.852219, -40.054077, -665.243774
1733469847.915944, 3.778798, 9.934889, -2.471564, -4.445539, -5.239435, 1.957806, -36.939957, -37.894119, -664.372437
1733469847.925945, 2.765602, 12.127380, -4.355651, -4.665214, -5.351093, 2.570774, -39.206665, -35.445999, -664.722412
1733469847.935945, 1.646313, 13.788357, -6.836044, -4.982483, -5.160030, 3.199772, -41.369049, -32.735748, -663.869751
1733469847.945941, 0.138864, 14.508862, -10.039037, -5.349912, -4.614966, 3.689569, -43.497009, -29.819641, -663.007751
1733469847.955941, -1.557428, 14.620342, -13.728352, -5.632229, -3.874495, 3.977541, -45.208237, -27.051208, -662.678833
1733469847.965944, -2.768745, 14.104092, -17.596335, -5.647187, -3.144955, 4.093164, -46.033173, -23.988342, -660.996216
1733469847.975947, -3.732560, 13.878140, -20.542998, -5.374585, -2.729832, 4.052566, -47.181473, -20.855652, -659.786377
1733469847.985939, -4.135385, 13.683311, -22.469583, -4.852402, -2.694130, 4.004947, -47.290909, -18.404663, -658.713135
1733469847.995941, -4.361637, 14.279318, -24.152257, -4.170197, -2.818283, 4.079712, -47.283112, -15.811462, -656.611816
1733469848.005946, -4.633379, 15.580417, -26.147376, -3.398596, -2.784951, 4.356040, -46.798431, -13.737335, -655.168579
1733469848.015939, -5.224896, 16.080805, -27.650934, -2.706222, -2.564479, 4.708787, -46.563568, -11.946335, -653.728271
1733469848.025961, -6.731148, 16.472107, -28.149377, -2.217688, -2.197051, 5.034506, -46.029312, -10.095810, -652.599365
1733469848.035945, -8.918700, 16.676961, -28.064383, -1.914823, -1.910586, 5.157871, -45.305038, -8.677246, -652.219727
1733469848.045941, -11.529278, 16.368708, -28.113464, -1.593617, -1.814786, 5.013229, -44.381119, -7.377472, -651.724243
1733469848.055940, -13.356653, 15.669900, -29.134142, -1.083211, -1.876488, 4.747842, -43.547943, -6.435196, -650.999939
1733469848.065947, -14.191481, 14.944756, -30.691421, -0.283323, -2.054691, 4.536190, -42.574677, -5.688889, -650.762451
1733469848.075939, -15.563957, 14.343961, -32.206352, 0.767881, -2.193645, 4.294477, -41.623062, -5.424042, -650.680359
1733469848.085943, -17.551743, 13.962386, -32.783953, 1.890859, -2.192608, 4.060456, -40.485672, -5.483978, -651.211609
1733469848.095940, -19.183690, 13.506589, -32.508620, 2.989062, -1.976453, 3.880982, -39.536545, -6.072433, -651.927795
1733469848.105944, -20.847511, 13.150602, -31.380502, 3.970303, -1.599835, 3.713568, -38.946869, -7.134232, -652.781250
1733469848.115944, -22.807165, 12.915670, -29.036429, 4.704699, -1.117351, 3.462861, -38.064285, -8.633026, -653.915161
1733469848.125937, -24.436868, 12.455236, -26.040534, 5.146042, -0.606251, 3.100518, -37.463577, -10.406540, -655.647400
1733469848.135948, -25.505580, 11.775731, -22.927474, 5.374503, -0.214884, 2.608216, -36.798660, -12.517715, -657.329529
1733469848.145937, -25.711481, 11.336694, -19.911977, 5.502735, -0.091831, 2.070986, -36.257278, -14.773895, -658.777039
1733469848.155947, -25.158870, 11.409568, -17.632547, 5.686903, -0.137337, 1.623338, -35.778763, -17.039825, -659.769653
1733469848.165940, -24.886978, 12.016947, -15.947029, 5.929469, -0.253258, 1.253800, -35.218811, -19.933701, -661.510986
1733469848.175935, -25.150640, 12.195764, -14.231733, 6.132905, -0.367027, 0.842439, -35.164505, -22.682220, -662.402527
1733469848.185942, -25.501091, 11.878083, -12.957120, 6.307379, -0.387827, 0.373386, -35.220139, -25.725601, -662.811340
1733469848.195934, -25.829994, 11.709591, -11.884518, 6.469096, -0.275744, -0.149237, -35.438751, -28.851807, -663.421448
1733469848.205933, -25.711631, 11.427674, -10.610354, 6.588728, -0.067865, -0.683826, -36.003860, -32.139450, -664.339417
1733469848.215941, -25.002498, 11.248408, -8.873809, 6.637755, 0.145042, -1.205259, -35.727203, -35.603806, -663.386475
1733469848.225933, -24.055592, 11.146056, -6.739977, 6.607481, 0.299937, -1.693374, -35.813751, -39.003174, -664.444824
1733469848.235934, -22.979996, 10.992528, -4.652682, 6.509618, 0.434027, -2.134480, -35.982849, -42.177551, -664.283936
1733469848.245931, -21.855470, 10.527005, -2.572719, 6.328362, 0.535552, -2.564774, -35.981781, -45.606064, -664.427734
1733469848.255931, -20.537911, 9.702502, -0.602591, 6.049492, 0.599300, -2.985103, -35.769958, -48.653625, -663.908630
1733469848.265935, -19.011308, 8.888923, 1.083825, 5.708959, 0.622223, -3.358663, -35.569290, -51.494217, -663.326721
1733469848.275934, -17.378612, 8.215254, 2.476353, 5.341306, 0.606188, -3.693693, -34.874634, -54.258087, -663.159485
1733469848.285928, -15.659426, 7.586477, 3.630059, 4.966408, 0.535546, -3.974583, -34.295670, -56.847641, -662.127197
1733469848.295929, -14.004583, 7.155221, 4.617218, 4.578442, 0.435343, -4.220600, -33.386566, -59.016327, -661.557007
1733469848.305986, -12.441469, 6.845621, 5.425111, 4.171319, 0.260567, -4.417203, -32.645691, -61.053146, -660.701843
1733469848.315926, -10.815656, 6.639271, 6.035633, 3.776080, 0.040284, -4.553903, -31.806015, -62.715851, -659.018982
1733469848.325925, -9.286360, 6.200683, 6.348076, 3.403249, -0.191466, -4.648879, -30.772812, -64.144989, -658.998169
1733469848.335928, -7.941417, 5.697152, 6.514323, 3.039577, -0.391549, -4.700775, -29.922028, -65.261810, -658.560791
1733469848.345932, -6.691045, 5.321712, 6.520608, 2.653669, -0.483883, -4.698511, -28.861084, -66.300461, -657.781982
1733469848.355933, -5.557092, 5.075259, 6.728604, 2.232018, -0.533209, -4.620632, -28.240662, -66.911469, -657.219421
1733469848.365945, -4.454412, 4.890157, 7.062745, 1.773888, -0.514121, -4.496220, -27.327972, -67.510498, -657.137390
1733469848.375940, -3.551499, 4.672135, 7.310395, 1.267005, -0.462136, -4.352518, -26.393707, -67.726395, -657.091187
1733469848.385942, -2.789395, 4.470124, 7.537396, 0.734287, -0.407487, -4.211556, -25.704025, -67.498444, -656.428223
1733469848.395938, -2.161216, 4.212448, 7.518242, 0.217843, -0.356452, -4.069380, -24.465668, -67.215897, -656.299805
1733469848.405930, -1.582567, 4.018817, 7.153875, -0.222781, -0.329337, -3.924089, -23.761810, -66.634079, -656.982178
1733469848.415937, -1.083376, 3.725527, 6.654534, -0.561922, -0.350696, -3.781541, -23.031616, -66.159821, -656.562744
1733469848.425926, -0.700454, 3.338565, 6.174945, -0.824314, -0.390539, -3.669186, -22.345718, -65.149963, -657.390991
1733469848.435925, -0.275184, 2.920926, 5.861903, -1.037744, -0.492038, -3.561761, -21.642761, -64.251022, -657.603638
1733469848.445926, 0.259921, 2.595764, 5.826589, -1.235692, -0.674227, -3.450267, -21.190140, -63.270081, -658.283386
1733469848.455924, 0.615908, 2.214487, 5.871181, -1.438686, -0.906286, -3.377678, -20.810638, -62.207611, -658.808899
1733469848.465927, 0.915932, 1.915212, 5.575497, -1.629655, -1.150327, -3.319252, -20.658478, -60.798813, -659.314026
1733469848.475927, 1.342698, 1.744326, 5.117157, -1.780587, -1.393575, -3.235442, -20.401733, -59.432968, -660.215820
1733469848.485933, 1.726818, 1.761983, 4.611831, -1.893751, -1.613861, -3.124446, -20.864731, -58.068375, -660.676636
1733469848.495928, 2.164209, 1.926734, 4.029292, -1.995265, -1.772628, -2.953694, -20.992096, -56.642548, -661.142822
1733469848.505352, 2.827403, 2.183063, 3.518579, -2.103954, -1.896149, -2.710647, -21.411072, -55.518661, -661.672729
1733469848.515921, 3.564517, 2.317737, 3.049016, -2.216622, -1.970082, -2.427584, -21.911560, -54.021744, -661.316040
1733469848.525922, 4.435857, 2.494309, 2.506729, -2.332537, -2.017914, -2.072302, -22.404724, -52.592300, -662.815552
1733469848.535940, 5.434538, 2.878728, 1.909376, -2.422092, -2.098680, -1.630659, -23.134415, -50.996277, -663.030640
1733469848.545929, 6.109703, 3.290082, 1.342997, -2.451509, -2.234392, -1.151759, -24.198425, -49.729233, -663.820862
1733469848.555924, 6.550536, 3.793463, 1.036390, -2.435371, -2.482149, -0.648952, -25.713593, -48.445801, -664.037659
1733469848.565920, 6.766762, 4.473865, 0.880318, -2.387785, -2.815474, -0.133815, -26.810944, -47.321381, -664.484985
1733469848.575920, 6.606201, 4.966023, 0.771980, -2.367687, -3.133384, 0.368774, -28.183899, -46.169586, -665.021973
1733469848.585921, 6.263381, 5.240459, 0.631321, -2.499416, -3.326482, 0.827981, -29.897324, -44.777390, -665.118530
1733469848.595921, 6.045210, 5.462072, 0.567725, -2.883651, -3.379753, 1.254858, -31.578506, -43.527573, -665.084473
1733469848.605938, 5.795913, 5.778705, 0.254534, -3.475183, -3.359370, 1.635271, -33.558517, -41.717911, -665.369324
1733469848.615928, 5.165340, 6.470629, -0.678158, -4.136380, -3.307259, 1.931852, -35.196167, -39.809219, -665.016785
1733469848.625927, 4.406827, 7.549965, -2.214786, -4.692279, -3.390892, 2.157825, -36.881149, -37.408829, -665.984253
1733469848.635919, 3.703082, 8.588899, -4.137779, -4.964361, -3.715213, 2.345315, -38.608154, -34.868286, -665.214111
1733469848.645919, 2.771887, 9.402479, -6.616077, -4.943192, -4.098756, 2.518535, -40.224274, -32.330872, -664.590149
1733469848.655932, 1.834108, 10.058340, -9.528623, -4.750558, -4.369357, 2.712054, -42.125275, -29.832123, -663.886108
1733469848.665941, 0.732626, 10.819248, -12.749423, -4.512038, -4.338924, 2.910052, -43.667007, -27.523514, -663.564148
1733469848.675929, -0.254833, 11.110742, -16.085743, -4.245547, -3.913709, 3.121354, -44.845932, -25.035446, -661.864197
1733469848.685929, -0.615011, 11.055675, -18.598308, -4.029847, -3.315495, 3.341222, -45.630753, -22.798843, -660.944885
1733469848.695928, -0.673519, 11.367221, -19.640534, -3.888502, -2.788384, 3.584435, -45.993698, -20.789368, -659.834961
1733469848.705931, -0.858770, 12.104335, -19.917513, -3.828379, -2.473845, 3.848852, -46.368408, -18.696991, -658.687439
1733469848.715929, -1.494730, 12.912827, -20.156784, -3.817815, -2.387312, 4.096967, -46.183014, -16.456757, -656.989258
1733469848.725936, -2.597559, 13.772346, -21.248839, -3.757865, -2.411776, 4.346505, -45.906204, -14.410202, -656.739990
1733469848.735919, -4.267066, 14.801104, -23.484275, -3.498465, -2.513460, 4.576157, -45.635696, -12.450806, -655.081726
1733469848.745917, -6.532280, 15.248521, -26.525061, -2.912964, -2.620062, 4.719890, -45.244156, -11.045532, -654.494873
1733469848.755914, -9.040057, 15.013739, -29.666403, -2.063708, -2.658287, 4.712288, -44.906830, -9.590958, -653.464233
1733469848.765932, -11.546486, 14.590415, -32.164753, -1.068875, -2.598714, 4.513089, -44.424088, -8.901947, -652.954712
1733469848.775924, -13.023410, 13.931710, -33.785477, -0.002176, -2.395937, 4.274882, -43.638321, -8.571213, -652.668823
1733469848.785914, -13.144317, 13.487885, -33.845183, 1.043803, -2.200662, 4.206282, -42.808456, -8.617218, -652.898193
1733469848.795916, -13.426982, 13.622559, -32.378884, 2.000868, -2.043514, 4.257171, -42.092865, -9.049103, -653.398804
1733469848.805711, -14.792425, 13.841179, -30.282461, 2.747678, -1.794405, 4.328643, -41.233780, -9.798096, -654.140137
1733469848.815918, -16.870742, 13.526641, -28.199805, 3.260367, -1.428988, 4.312383, -40.438126, -10.714371, -654.553955
1733469848.825920, -19.211074, 12.622979, -26.467600, 3.647599, -1.002284, 4.136078, -39.777435, -11.792282, -655.961487
1733469848.835915, -21.220408, 11.374553, -24.673595, 3.963511, -0.661779, 3.802065, -38.867569, -13.306686, -657.389771
1733469848.845912, -22.566548, 10.627412, -22.831855, 4.243500, -0.419286, 3.387215, -38.468628, -15.012192, -658.417114
1733469848.855909, -23.296630, 10.536882, -21.168184, 4.545206, -0.317052, 2.963226, -37.280975, -17.063721, -659.539246
1733469848.865921, -23.772477, 10.736348, -19.214067, 4.920362, -0.403732, 2.555347, -36.897491, -19.257706, -660.715210
1733469848.875913, -24.080581, 10.752809, -17.413777, 5.346447, -0.564714, 2.120929, -36.514038, -21.599197, -661.498169
1733469848.885914, -24.335414, 10.797550, -15.835549, 5.730795, -0.633873, 1.698181, -36.346695, -24.499924, -662.500244
1733469848.895918, -24.653693, 11.069442, -14.156914, 6.008853, -0.568457, 1.320047, -36.433075, -27.250778, -663.091614
1733469848.905913, -25.170092, 11.002254, -12.235418, 6.144817, -0.379376, 0.923373, -36.498138, -30.302292, -663.533203
1733469848.915909, -25.856480, 10.576087, -10.247333, 6.149225, -0.109475, 0.464267, -36.748535, -33.335236, -664.500610
1733469848.925909, -26.461016, 9.980529, -8.293066, 6.057490, 0.167350, -0.086322, -36.632034, -36.191299, -664.541687
1733469848.935917, -26.624869, 9.366267, -6.544550, 5.922791, 0.436279, -0.692725, -36.844147, -39.169495, -664.505188
1733469848.945908, -26.001778, 8.948029, -5.104288, 5.793282, 0.674775, -1.281819, -36.778000, -42.026901, -664.352356
1733469848.955907, -24.715194, 8.629002, -3.561974, 5.689334, 0.821506, -1.827717, -36.259491, -45.118576, -664.091675
1733469848.965914, -22.889615, 8.347234, -2.006940, 5.600186, 0.852867, -2.301126, -36.147430, -47.727463, -663.917542
1733469848.975917, -20.808904, 8.217050, -0.604835, 5.508932, 0.819375, -2.651460, -36.147430, -47.727463, -663.917542
1733469848.985918, -18.829199, 7.959673, 0.833033, 5.373481, 0.743784, -2.928829, -35.686859, -50.687103, -663.532349
1733469848.995913, -17.229872, 7.341520, 2.388815, 5.143730, 0.621641, -3.190542, -35.327942, -53.343155, -663.046631
1733469849.005913, -15.889119, 6.657377, 3.837606, 4.812514, 0.485423, -3.453809, -34.911377, -55.664688, -662.272705
1733469849.015924, -14.618546, 6.067206, 4.772691, 4.394361, 0.406206, -3.710990, -34.036026, -57.780258, -661.481628
1733469849.025965, -13.289914, 5.716007, 5.420473, 3.924720, 0.336245, -3.935039, -33.350250, -59.984634, -660.906616
1733469849.035908, -11.882722, 5.344307, 5.813571, 3.451716, 0.244176, -4.102199, -32.446960, -61.456802, -660.271423
1733469849.045903, -10.487202, 4.940136, 5.866842, 3.035603, 0.153904, -4.208922, -31.676361, -62.862366, -659.633728
1733469849.055957, -9.132233, 4.792144, 5.824793, 2.679180, 0.032331, -4.222890, -30.627151, -63.756409, -658.959778
1733469849.065905, -7.721450, 4.840776, 5.925051, 2.364858, -0.129000, -4.142506, -29.776199, -64.806946, -658.770142
1733469849.075909, -6.526743, 4.448876, 5.924302, 2.063935, -0.302382, -4.042555, -28.905045, -65.520493, -657.956543
1733469849.085960, -5.801001, 3.880103, 5.897218, 1.776929, -0.435757, -3.968290, -28.160172, -66.275482, -657.914612
1733469849.095918, -5.268441, 3.419818, 5.804592, 1.467551, -0.487472, -3.926908, -27.529114, -66.651138, -657.251831
1733469849.105928, -4.755034, 3.065626, 5.833023, 1.112972, -0.480870, -3.912262, -27.032715, -66.851273, -657.530151
1733469849.115907, -4.192546, 2.845060, 5.853823, 0.729546, -0.451388, -3.904952, -25.794037, -66.996216, -656.913147
1733469849.125905, -3.731962, 2.592920, 5.970391, 0.347381, -0.452333, -3.917472, -25.007584, -66.714783, -657.229126
1733469849.135903, -3.209876, 2.309507, 6.045359, -0.006284, -0.528211, -3.937531, -24.502487, -66.442749, -657.000549
1733469849.145910, -2.586037, 2.083404, 6.014085, -0.304273, -0.700665, -3.951592, -23.876007, -65.672165, -657.160034
1733469849.155899, -1.891419, 1.894861, 5.751321, -0.525781, -0.896795, -3.923028, -23.257507, -65.052124, -657.625183
1733469849.165907, -1.027711, 1.979257, 5.409100, -0.715068, -1.045913, -3.821985, -22.570312, -64.141205, -657.705017
1733469849.175271, -0.052672, 2.097470, 5.197961, -0.936348, -1.149728, -3.649161, -22.164780, -63.307083, -658.232666
1733469849.185449, 0.806846, 2.096124, 5.212626, -1.190665, -1.277741, -3.419722, -21.979614, -62.318787, -658.728699
1733469849.195909, 1.442207, 1.816451, 5.153070, -1.450241, -1.395793, -3.187346, -21.908508, -61.276367, -659.339478
1733469849.205914, 1.764527, 1.509544, 4.973505, -1.693978, -1.514370, -2.980056, -22.187286, -60.007584, -659.667419
1733469849.215905, 1.832013, 1.301099, 4.948067, -1.929984, -1.680749, -2.827364, -22.224762, -59.052307, -659.821045
1733469849.225899, 1.745223, 1.085621, 5.060893, -2.170152, -1.899081, -2.734632, -22.416672, -57.508118, -661.442627
1733469849.235898, 1.688062, 1.119140, 4.929960, -2.424178, -2.076168, -2.662711, -23.252960, -56.252502, -661.562317
1733469849.245898, 1.750910, 1.632097, 4.709245, -2.674850, -2.256283, -2.585412, -23.495209, -54.594955, -662.481079
1733469849.255915, 2.030582, 2.414552, 4.214244, -2.891381, -2.415746, -2.449280, -24.315826, -52.907654, -663.213684
1733469849.265898, 2.577807, 3.243844, 3.636044, -3.054716, -2.585462, -2.236371, -25.167862, -51.103546, -663.690247
1733469849.275896, 3.215263, 4.039018, 3.024475, -3.169873, -2.757232, -1.966895, -26.160461, -49.190002, -664.266479
1733469849.285909, 4.134038, 4.685752, 2.156577, -3.229446, -2.938790, -1.637448, -27.650360, -47.629501, -665.089050
1733469849.295902, 5.181052, 5.007173, 1.340304, -3.263923, -3.149097, -1.258683, -29.175522, -45.740646, -665.178589
1733469849.305898, 5.957971, 5.499631, 0.713921, -3.299745, -3.448414, -0.837308, -30.810455, -44.131775, -665.489380
1733469849.315902, 6.355558, 6.559514, 0.086640, -3.303079, -3.827205, -0.380132, -32.365173, -42.607986, -665.191101
1733469849.325895, 6.672191, 7.883358, -0.753575, -3.241389, -4.291106, 0.157707, -34.158112, -40.734161, -665.429932
