SamplingTime, AccelerationX, AccelerationY, AccelerationZ, GyroX, GyroY, GyroZ, MagneticFieldX, MagneticFieldY, MagneticFieldZ
1733469802.827765, -4.850353, -4.965125, -10.690559, 0.178352, 0.287600, 0.249085, , , 
1733469802.837576, -4.891653, -5.293730, -10.580426, 0.364790, 0.148504, 0.240242, -31.745483, -47.529724, -664.754822
1733469802.848256, -5.556344, -5.464915, -10.502315, 0.553239, 0.033777, 0.150847, -32.039688, -47.638351, -664.851562
1733469802.858288, -6.526444, -6.010344, -10.338013, 0.730242, -0.142776, -0.042417, -31.894928, -47.980927, -663.977295
1733469802.868261, -7.179762, -6.486042, -9.838373, 0.788710, -0.312981, -0.274660, -31.945358, -48.490662, -664.810852
1733469802.878276, -7.523031, -6.523900, -9.478195, 0.785704, -0.427200, -0.486280, -32.141266, -48.646851, -664.405518
1733469802.888269, -7.357382, -6.485294, -9.588029, 0.789726, -0.469292, -0.613103, -32.021500, -49.062531, -664.361816
1733469802.898269, -6.903980, -6.146065, -9.996540, 0.846813, -0.482556, -0.647009, -31.883759, -49.516953, -663.792358
1733469802.908286, -6.266524, -5.755062, -10.310181, 0.942502, -0.475729, -0.595671, -32.275284, -49.914474, -663.416748
1733469802.918275, -5.765238, -5.616947, -10.404153, 1.039329, -0.478358, -0.522097, -32.385498, -50.495255, -664.078857
1733469802.928249, -5.690568, -5.688324, -10.136451, 1.108998, -0.463279, -0.467844, -32.396820, -51.056870, -663.473267
1733469802.938324, -6.038177, -5.732018, -9.713725, 1.139097, -0.392312, -0.454630, -32.442291, -51.445938, -663.993896
1733469802.948257, -6.508488, -5.827038, -9.303119, 1.131791, -0.323181, -0.517083, -32.788666, -52.154907, -663.445984
1733469802.958258, -6.953659, -6.025457, -8.907178, 1.131829, -0.292934, -0.637927, -32.936646, -52.760986, -663.009949
1733469802.968262, -7.172130, -6.103419, -8.791957, 1.174443, -0.361253, -0.743375, -32.950928, -53.158997, -663.765564
1733469802.978285, -6.873903, -6.313959, -8.544606, 1.252782, -0.636068, -0.809405, -33.284958, -53.911911, -663.415161
1733469802.988250, -6.559963, -6.446837, -8.259696, 1.397683, -0.963891, -0.896324, -33.381454, -54.444992, -663.409973
1733469802.998251, -6.618621, -6.108955, -8.319551, 1.595032, -1.143729, -0.975887, -34.002640, -55.134003, -662.963501
1733469803.008249, -6.060323, -5.459678, -8.154052, 1.766113, -1.192322, -0.987565, -33.981262, -56.111923, -662.452759
1733469803.018245, -5.877167, -5.535095, -7.597700, 1.870196, -1.254867, -0.947938, -34.487289, -56.984528, -662.274780
1733469803.028244, -5.877167, -5.535095, -7.597700, 1.908970, -1.226810, -0.868005, -34.642059, -57.907837, -661.709290
1733469803.038275, -6.662914, -5.831826, -6.753444, 1.870658, -1.023460, -0.830861, -35.383499, -58.842072, -661.914551
1733469803.047992, -6.662914, -5.831826, -6.753444, 1.754449, -0.792263, -0.897164, -35.630692, -59.706512, -660.795654
1733469803.057315, -7.095516, -6.127810, -5.815665, 1.609220, -0.648912, -0.986162, -35.784012, -60.389084, -661.028748
1733469803.068259, -7.006033, -6.173898, -3.978565, 1.488681, -0.627845, -1.056096, -35.846405, -61.156158, -660.968567
1733469803.078255, -6.994959, -6.251709, -3.151966, 1.376895, -0.703483, -1.138337, -35.617264, -61.841263, -659.616882
1733469803.088254, -7.281815, -6.213253, -2.578406, 1.237013, -0.779032, -1.232523, -35.975311, -62.362396, -660.378296
1733469803.098258, -7.419781, -6.387730, -2.245013, 1.073765, -0.792085, -1.362873, -36.156876, -62.867752, -660.214905
1733469803.108256, -6.962488, -6.221632, -1.786224, 0.919777, -0.851464, -1.494002, -36.027908, -63.567276, -659.625122
1733469803.118254, -6.513126, -5.857265, -1.569100, 0.816138, -1.011333, -1.585556, -36.112808, -63.870193, -659.707886
1733469803.128252, -6.219388, -5.717653, -1.699285, 0.787671, -1.194841, -1.665229, -36.440643, -64.250992, -658.794800
1733469803.138248, -5.979818, -5.535843, -1.560122, 0.805827, -1.370151, -1.763470, -36.663422, -64.643341, -659.616516
1733469803.148260, -5.796063, -5.290288, -0.953790, 0.841734, -1.564827, -1.853568, -36.841110, -65.009827, -659.330811
1733469803.158250, -5.658696, -5.218761, -0.062848, 0.843491, -1.777734, -1.943136, -37.173569, -65.502731, -657.965881
1733469803.167832, -5.320664, -5.063886, 0.812682, 0.777601, -2.007578, -2.037214, -37.453430, -65.927338, -658.586670
1733469803.178251, -4.879084, -4.768950, 1.470189, 0.650796, -2.214125, -2.125722, -37.684464, -66.376877, -657.823792
1733469803.188258, -4.418200, -4.516213, 1.849970, 0.486368, -2.371468, -2.206143, -38.343048, -66.666428, -658.189331
1733469803.198254, -3.625719, -4.102465, 2.121861, 0.317196, -2.523507, -2.237585, -38.924728, -66.840897, -657.867493
1733469803.208255, -2.750190, -3.658190, 2.352004, 0.144559, -2.681164, -2.230438, -39.273987, -67.051987, -657.360596
1733469803.218260, -1.972972, -3.105579, 2.718915, -0.018038, -2.884751, -2.167790, -40.086380, -67.242630, -658.155884
1733469803.228250, -1.254262, -2.659659, 2.718616, -0.172242, -3.098667, -2.063561, -40.677383, -67.232925, -657.507080
1733469803.238240, -0.494253, -2.140716, 2.382530, -0.330960, -3.121008, -1.885508, -41.710373, -67.084656, -657.211731
1733469803.248251, -0.004639, -1.623718, 2.481141, -0.527653, -3.069628, -1.661349, -42.179474, -66.992722, -657.695496
1733469803.258243, 0.575057, -1.085621, 2.470966, -0.747037, -2.982403, -1.416822, -43.464569, -66.776428, -657.024048
1733469803.268241, 0.933739, -0.539593, 2.507627, -0.976421, -2.864088, -1.152092, -44.298599, -66.456421, -657.812195
1733469803.278259, 1.117194, -0.392948, 2.917634, -1.226758, -2.831776, -0.945986, -45.505890, -66.048508, -657.308350
1733469803.288234, 1.329231, -0.112527, 3.238607, -1.520718, -2.911764, -0.797778, -46.342682, -65.415741, -657.574829
1733469803.298250, 1.587505, 0.647482, 3.356970, -1.834161, -3.100504, -0.651943, -47.572617, -64.657669, -658.263794
1733469803.308237, 2.170942, 1.658733, 3.297714, -2.146386, -3.352102, -0.481232, -49.018280, -63.775681, -657.552979
1733469803.318249, 3.277512, 2.688240, 1.991976, -2.409196, -3.589607, -0.222033, -50.382736, -62.640961, -658.052979
1733469803.328236, 3.861398, 3.060987, 1.105223, -2.570435, -3.827981, 0.127798, -51.913193, -61.642822, -657.520996
1733469803.338244, 3.959112, 3.581875, 0.457293, -2.601186, -4.063687, 0.559366, -53.798004, -60.464615, -657.126343
1733469803.347954, 4.048894, 4.684704, -0.557849, -2.623552, -4.279247, 1.036376, -55.580383, -58.772781, -657.710144
1733469803.358239, 3.926491, 5.897517, -1.758840, -2.707976, -4.300559, 1.566374, -57.355850, -57.171814, -656.608948
1733469803.368237, 4.153341, 6.739378, -2.920926, -2.816408, -4.194304, 2.179417, -59.221954, -55.451584, -657.045471
1733469803.378248, 4.187010, 7.394492, -4.012083, -2.926749, -4.022597, 2.861452, -61.319519, -53.657639, -655.308228
1733469803.388129, 3.730765, 8.529792, -5.096657, -2.996233, -3.796521, 3.557682, -63.010452, -51.371185, -655.668945
1733469803.398235, 2.760963, 9.983222, -5.943755, -2.975777, -3.561079, 4.302645, -64.317459, -48.971237, -653.796265
1733469803.408233, 0.954987, 11.288960, -6.374263, -2.961562, -3.286359, 5.070320, -65.662628, -46.101440, -653.936462
1733469803.418247, -1.823633, 12.256666, -6.332813, -3.086301, -3.186895, 5.706662, -66.835144, -43.044022, -652.296570
1733469803.428229, -5.415684, 13.171700, -7.263858, -3.246896, -3.292833, 6.167198, -67.649704, -39.827698, -651.743652
1733469803.438238, -8.657284, 13.572430, -9.401731, -3.297936, -3.384455, 6.403388, -68.723831, -36.571945, -650.327515
1733469803.448077, -10.600178, 13.192051, -11.864915, -3.146537, -3.497608, 6.478108, -69.328690, -33.208740, -648.493896
1733469803.458234, -11.647791, 13.188310, -14.340520, -2.712949, -3.617806, 6.519529, -69.535614, -29.905090, -647.105774
1733469803.467233, -12.468853, 13.902830, -16.341175, -2.130089, -3.671978, 6.633773, -69.657089, -26.747177, -644.947571
1733469803.478233, -13.696330, 14.008025, -18.485631, -1.578483, -3.635262, 6.747521, -69.567963, -24.045731, -643.556641
1733469803.488228, -15.475521, 14.024335, -21.644481, -0.895475, -3.344312, 6.801033, -69.243530, -21.105011, -642.774902
1733469803.498099, -17.080983, 13.602208, -24.107366, 0.035410, -2.784012, 6.824020, -68.279877, -18.816925, -641.043823
1733469803.508242, -18.625692, 13.302035, -24.370579, 1.083332, -2.202644, 6.817580, -67.364716, -16.565994, -640.777344
1733469803.518235, -20.237139, 13.678373, -22.990920, 2.050741, -1.777994, 6.764530, -66.059250, -14.798523, -640.189880
1733469803.528228, -21.816115, 14.141202, -21.274427, 2.863382, -1.406493, 6.706055, -64.804443, -13.153839, -640.687195
1733469803.538235, -23.917775, 14.493599, -19.313726, 3.418421, -0.971277, 6.615695, -63.104492, -12.049805, -641.796326
1733469803.548233, -26.327090, 14.119355, -17.103428, 3.637052, -0.594959, 6.401109, -61.543777, -11.000565, -642.624512
1733469803.558302, -28.689718, 13.574076, -15.697434, 3.658478, -0.391280, 6.049914, -59.770660, -10.404251, -643.176880
1733469803.568229, -31.170111, 12.857312, -15.569194, 3.751100, -0.358456, 5.586165, -58.412613, -9.900436, -644.523743
1733469803.578246, -33.664271, 11.760019, -16.066590, 4.031514, -0.439743, 4.954375, -57.337204, -9.807236, -645.592163
1733469803.588224, -35.855265, 10.752210, -16.578799, 4.515084, -0.497493, 4.207711, -56.215256, -10.344803, -646.405884
1733469803.598240, -37.647325, 10.484209, -16.461034, 5.114267, -0.372578, 3.422208, -55.163788, -11.315002, -648.278687
1733469803.608297, -38.905777, 10.386196, -15.291467, 5.659389, -0.022723, 2.644335, -54.355988, -12.637650, -649.349243
1733469803.618223, -39.732225, 10.418967, -12.920908, 5.998169, 0.505944, 1.833232, -53.668869, -14.415909, -651.594360
1733469803.628231, -39.654264, 10.735451, -9.975591, 6.102709, 0.958475, 1.000793, -53.056229, -16.729294, -653.396729
1733469803.638251, -38.393867, 11.398196, -7.518541, 6.063132, 1.244464, 0.217940, -52.550293, -19.198273, -654.967163
1733469803.648229, -36.484790, 12.233323, -5.647772, 6.065187, 1.366687, -0.407067, -52.291901, -21.770355, -656.046204
1733469803.658231, -34.571374, 12.896068, -3.677494, 6.128242, 1.264805, -0.960373, -52.101105, -24.876114, -657.921204
1733469803.668234, -32.789639, 13.532776, -2.024447, 6.202156, 0.991988, -1.465836, -51.778793, -27.748047, -657.633606
1733469803.678228, -31.317504, 14.001291, -0.681450, 6.300497, 0.704800, -1.933990, -52.128143, -31.063660, -658.919312
1733469803.688226, -29.888016, 13.897293, 0.956184, 6.346499, 0.398772, -2.427029, -52.074280, -34.610657, -660.265259
1733469803.697958, -28.239459, 13.445238, 2.511069, 6.299551, 0.139452, -2.931633, -52.496445, -38.046066, -660.602661
1733469803.708230, -26.401610, 12.923901, 4.095432, 6.104324, 0.001747, -3.431398, -52.948090, -41.550293, -660.320007
1733469803.718229, -24.352921, 12.403910, 5.496788, 5.760969, -0.107535, -3.885615, -53.050049, -44.905258, -660.208130
1733469803.728217, -22.285678, 11.842021, 6.371569, 5.358158, -0.149466, -4.281372, -53.138199, -48.197311, -659.958496
1733469803.738222, -20.157233, 11.315596, 7.129334, 4.921986, -0.169264, -4.611594, -53.003601, -51.198257, -658.926270
1733469803.748282, -17.868226, 10.831967, 7.670274, 4.463616, -0.211033, -4.868637, -52.724976, -54.225052, -659.245178
1733469803.758215, -15.561263, 10.174459, 7.953239, 4.018528, -0.300113, -5.064899, -52.426514, -56.934570, -658.903076
1733469803.768215, -13.329418, 9.601646, 8.145972, 3.598107, -0.438197, -5.199086, -52.184769, -59.409332, -658.035889
1733469803.778238, -11.307515, 9.134328, 8.261342, 3.185130, -0.629432, -5.289906, -51.604813, -61.637100, -657.504211
1733469803.788271, -9.415946, 8.690204, 8.285584, 2.794968, -0.877348, -5.325529, -50.929306, -63.739059, -656.817993
1733469803.798213, -7.673865, 8.210017, 8.109460, 2.430486, -1.142528, -5.300976, -50.743454, -65.419769, -656.046021
1733469803.808216, -6.132448, 7.549666, 7.985560, 2.093675, -1.416998, -5.242862, -49.948563, -67.236267, -655.229248
1733469803.818217, -5.048174, 6.794744, 7.844602, 1.774748, -1.680614, -5.183038, -49.539978, -68.503815, -654.798584
1733469803.828217, -4.353108, 6.054337, 7.562086, 1.444079, -1.896398, -5.130427, -48.692139, -69.795609, -654.289246
1733469803.838230, -3.721487, 5.642385, 7.236325, 1.072354, -1.964993, -5.092263, -48.132782, -70.595093, -653.895935
1733469803.848234, -2.998887, 5.732916, 6.889016, 0.634584, -1.879015, -5.023124, -46.852219, -71.489426, -653.648804
1733469803.858227, -2.057517, 5.950339, 6.614730, 0.155921, -1.664658, -4.894400, -46.502258, -71.888062, -653.325684
1733469803.868214, -1.243339, 5.995680, 6.392070, -0.321141, -1.455907, -4.716700, -45.420593, -72.436447, -653.679443
1733469803.878237, -0.637755, 5.778406, 5.880459, -0.739698, -1.278757, -4.533235, -44.545609, -72.474304, -653.924316
1733469803.888210, -0.060753, 5.435287, 5.255123, -1.065217, -1.114994, -4.371269, -43.830948, -72.335022, -654.009888
1733469803.898220, 0.556802, 5.078551, 4.870854, -1.300410, -1.040083, -4.222373, -43.158600, -72.203278, -654.018616
1733469803.908223, 1.171662, 4.701165, 4.627842, -1.469120, -1.070194, -4.074592, -42.482498, -72.003250, -655.143616
1733469803.918212, 1.615188, 4.099173, 4.311209, -1.586931, -1.214239, -3.939666, -41.740158, -71.736450, -655.570312
1733469803.928221, 2.021155, 3.589357, 3.992182, -1.653301, -1.422764, -3.818887, -41.174515, -71.218689, -656.091431
1733469803.938224, 2.393154, 3.403058, 3.713856, -1.687603, -1.673028, -3.679141, -40.963028, -70.617676, -656.202271
1733469803.948215, 2.802563, 3.230077, 3.370437, -1.714839, -1.929090, -3.510663, -40.520203, -69.930725, -656.810425
1733469803.958217, 3.206135, 2.960730, 2.961777, -1.748149, -2.138298, -3.302330, -40.742050, -69.390488, -657.186768
1733469803.968266, 3.572897, 2.576909, 2.518700, -1.797646, -2.278576, -3.060213, -40.808701, -68.514435, -657.997192
1733469803.978226, 3.952378, 2.191443, 2.069189, -1.861771, -2.334743, -2.785038, -41.006317, -67.901611, -658.284790
1733469803.988215, 4.391115, 1.952322, 1.606210, -1.921860, -2.296644, -2.490124, -41.341385, -67.202728, -658.864441
1733469803.998238, 4.859631, 1.804181, 1.290774, -1.979436, -2.196550, -2.169795, -41.763931, -66.469299, -658.643555
1733469804.008217, 5.365406, 1.602918, 1.227926, -2.037022, -2.110588, -1.827334, -42.280228, -65.430786, -659.633911
1733469804.018282, 5.853823, 1.382203, 1.320103, -2.095068, -2.065068, -1.458948, -42.890594, -64.555542, -660.118103
1733469804.028224, 6.276699, 1.170765, 1.577779, -2.186096, -2.072670, -1.079911, -43.459641, -63.619156, -660.360291
1733469804.038203, 6.462998, 1.035043, 1.984943, -2.358642, -2.157402, -0.706617, -44.556091, -62.340652, -660.924194
1733469804.048227, 6.259341, 1.233912, 2.329558, -2.611889, -2.327208, -0.369428, -45.646530, -61.060959, -661.083679
1733469804.058201, 5.878214, 1.868225, 2.351555, -2.910483, -2.514339, -0.071801, -46.816742, -59.625122, -661.627014
1733469804.068213, 5.393239, 2.968361, 2.151938, -3.208385, -2.742917, 0.214186, -47.830765, -57.908218, -661.728882
1733469804.078220, 5.003881, 4.213346, 1.569848, -3.430124, -3.005265, 0.523815, -49.503128, -55.839951, -661.782654
1733469804.088215, 4.826112, 5.005827, 0.635361, -3.552919, -3.266404, 0.886140, -51.054245, -54.056732, -661.759155
1733469804.098219, 4.698770, 5.625027, -0.468066, -3.584036, -3.481091, 1.328955, -52.752090, -52.232285, -661.011353
1733469804.108213, 4.640561, 6.075137, -1.656937, -3.586843, -3.586541, 1.837807, -54.436523, -50.187241, -661.308838
1733469804.118209, 4.359991, 6.587646, -2.751087, -3.615104, -3.590760, 2.376606, -56.009323, -47.806259, -661.194580
1733469804.128209, 3.841048, 7.686435, -3.833266, -3.631449, -3.506354, 2.935060, -57.980621, -45.399994, -660.483459
1733469804.138208, 3.208679, 8.921544, -4.665252, -3.610124, -3.398442, 3.497436, -59.203262, -42.851974, -659.738892
1733469804.148209, 1.937208, 9.713276, -5.181950, -3.539385, -3.443291, 4.002390, -61.017639, -40.250259, -658.226624
1733469804.158208, -0.129885, 10.448446, -5.702240, -3.350653, -3.670535, 4.397059, -61.713608, -37.899292, -657.217163
1733469804.168210, -2.233192, 11.250204, -6.186318, -3.072290, -3.931652, 4.698105, -62.781403, -35.080643, -655.933289
1733469804.178213, -4.676923, 12.554296, -6.399252, -2.920626, -4.013545, 5.006820, -64.065826, -32.087265, -654.117798
1733469804.188213, -7.542483, 13.638719, -6.712893, -3.157240, -3.765704, 5.248140, -64.582275, -29.295486, -653.004089
1733469804.198209, -9.600150, 14.112322, -7.964312, -4.085712, -2.796096, 5.288988, -65.233109, -26.233734, -650.973206
1733469804.208218, -10.559776, 14.534001, -10.688764, -4.028367, -2.573750, 5.234276, -65.334457, -23.439453, -650.220337
1733469804.218220, -10.850672, 14.860810, -13.273604, -4.028367, -2.573750, 5.234276, -65.164536, -20.691742, -649.143738
1733469804.228204, -10.697143, 14.808287, -15.248221, -2.546299, -3.088337, 5.319673, -64.687500, -18.130722, -646.895874
1733469804.238199, -10.344747, 15.174151, -16.579098, -1.741897, -3.254151, 5.596088, -64.168182, -15.749557, -645.528931
1733469804.248205, -10.978312, 16.294488, -16.644340, -1.349523, -3.083800, 5.918640, -63.233826, -13.204681, -643.940857
1733469804.258214, -12.934076, 17.859098, -16.019903, -1.396605, -2.610478, 6.167171, -63.233826, -13.204681, -643.940857
1733469804.268210, -15.814301, 19.997719, -15.025860, -1.708197, -2.412462, 6.176300, -62.130997, -11.098114, -642.429565
1733469804.278280, -18.838476, 21.200805, -14.311789, -1.704652, -2.605965, 5.998347, -61.233276, -8.883301, -641.399170
1733469804.288211, -20.692337, 20.388572, -16.508469, -1.704652, -2.605965, 5.998347, -60.225891, -6.753876, -640.082153
1733469804.298216, -22.062419, 19.652505, -19.532196, -0.128891, -3.425251, 5.435019, -58.859024, -5.048950, -638.868896
1733469804.308198, -22.822578, 18.252196, -21.771822, 1.035879, -3.625039, 5.121769, -58.082336, -3.570343, -637.806458
1733469804.318211, -23.668629, 16.690429, -23.202358, 2.102901, -3.381771, 4.749956, -56.700470, -2.514328, -637.433228
1733469804.328215, -24.992173, 16.316933, -23.364415, 2.875525, -2.792414, 4.311724, -55.842072, -1.708145, -637.734680
1733469804.338212, -26.236410, 16.070779, -22.299894, 3.428153, -2.099562, 3.860735, -54.830276, -1.530212, -637.985840
1733469804.348206, -26.412982, 15.858294, -21.021689, 4.009415, -1.475673, 3.631145, -53.694717, -1.506042, -638.617798
1733469804.358202, -26.053403, 16.426468, -19.571701, 4.714105, -1.011632, 3.668152, -52.444763, -1.649017, -640.115540
1733469804.368209, -26.526557, 17.038486, -17.835007, 5.391369, -0.529795, 3.780973, -51.073196, -1.991028, -641.725342
1733469804.378107, -28.179155, 16.886454, -15.865477, 5.805773, 0.070036, 3.743463, -49.743729, -2.711456, -644.018188
1733469804.388206, -30.612562, 15.749208, -13.542951, 5.886239, 0.651159, 3.342380, -48.809143, -3.925705, -646.533264
1733469804.398207, -33.143233, 14.109479, -10.854113, 5.727149, 0.901835, 2.535094, -48.041077, -5.301651, -648.788757
1733469804.408208, -34.118122, 12.482170, -8.495226, 5.626920, 0.744118, 1.581136, -47.161301, -6.832870, -651.099487
1733469804.418208, -33.197701, 12.011710, -7.072172, 5.770290, 0.176165, 0.772569, -46.266632, -8.685944, -652.986206
1733469804.428207, -31.184776, 13.032388, -5.928492, 6.114167, -0.574836, 0.215308, -45.383301, -10.849747, -654.704529
1733469804.438200, -29.258341, 13.938444, -5.394885, 6.508799, -1.131942, -0.144265, -45.260101, -13.258514, -656.288025
1733469804.448213, -28.420820, 14.166042, -5.371541, 6.782710, -1.233038, -0.483581, -45.797440, -16.100464, -657.843201
1733469804.458209, -28.746431, 14.029722, -5.081543, 6.852591, -1.020094, -0.880615, -46.093262, -18.945160, -658.684753
1733469804.468201, -29.214198, 13.654431, -4.081366, 6.746308, -0.637581, -1.350783, -46.525497, -22.250000, -659.984192
1733469804.478205, -29.421147, 13.479056, -2.809446, 6.508079, -0.329805, -1.966480, -47.342804, -25.747421, -661.309204
1733469804.488199, -29.079524, 13.279739, -1.182287, 6.226834, -0.207810, -2.623491, -47.757278, -28.989090, -661.217041
1733469804.498214, -27.608736, 13.267319, 0.171485, 5.993937, -0.257364, -3.205257, -48.208359, -32.477295, -661.820801
1733469804.508215, -25.431659, 13.606547, 0.864008, 5.851060, -0.334641, -3.634460, -48.763870, -35.828125, -661.974365
1733469804.518245, -23.188741, 13.887417, 1.249175, 5.744277, -0.419422, -3.958916, -49.102203, -39.262787, -661.945190
1733469804.528214, -21.130925, 13.646949, 1.874510, 5.603606, -0.511901, -4.237220, -49.939560, -42.637772, -661.654785
1733469804.538204, -19.326744, 13.239337, 2.728342, 5.395650, -0.607392, -4.457690, -50.146103, -46.009094, -661.431152
1733469804.548194, -17.574637, 12.715006, 3.461118, 5.120175, -0.665840, -4.637764, -50.429535, -49.337204, -660.884644
1733469804.558191, -15.940894, 12.011410, 3.954772, 4.781072, -0.653383, -4.795508, -50.211288, -52.294632, -660.544128
1733469804.568190, -14.472350, 11.379042, 4.296545, 4.400492, -0.637604, -4.943145, -50.225098, -55.499664, -659.719360
1733469804.578197, -13.084911, 10.811167, 4.820875, 3.986410, -0.691492, -5.083299, -49.801254, -58.120804, -659.026245
1733469804.588189, -11.620557, 10.300903, 5.440674, 3.534688, -0.809212, -5.189980, -49.500488, -60.639771, -658.132507
1733469804.598202, -10.092009, 9.782409, 5.887342, 3.073853, -0.974307, -5.243957, -48.704971, -62.882263, -656.846191
1733469804.608204, -8.653992, 9.169643, 6.153996, 2.624073, -1.174502, -5.279881, -48.431839, -64.832016, -656.812500
1733469804.618195, -7.484274, 8.571840, 6.293608, 2.201827, -1.395111, -5.296614, -47.674789, -66.606552, -655.874512
1733469804.628191, -6.384588, 8.141782, 6.282535, 1.800101, -1.620462, -5.267046, -46.920120, -68.011002, -655.349609
1733469804.638191, -5.294029, 7.725789, 6.168810, 1.409403, -1.794096, -5.186342, -46.356262, -69.305573, -654.795654
1733469804.648195, -4.396203, 7.371148, 5.937321, 0.992877, -1.881245, -5.085789, -45.547302, -70.450790, -653.924744
1733469804.658189, -3.747075, 7.147141, 5.626673, 0.566308, -1.884967, -4.972073, -44.667969, -71.231796, -653.583008
1733469804.668198, -3.201945, 6.936750, 5.201253, 0.176542, -1.791604, -4.862128, -43.826324, -72.002594, -653.570435
1733469804.678194, -2.688838, 6.499958, 4.535665, -0.159427, -1.609719, -4.767370, -43.239822, -72.452515, -653.422363
1733469804.688198, -2.094328, 6.085761, 3.901352, -0.427796, -1.398326, -4.661570, -42.330063, -72.456940, -653.701050
1733469804.698218, -1.402104, 5.784690, 3.504812, -0.639530, -1.234079, -4.535048, -41.401413, -72.843750, -653.081909
1733469804.708193, -0.599299, 5.564424, 3.527108, -0.809599, -1.214239, -4.390367, -40.601501, -72.625748, -654.047058
1733469804.718188, 0.151733, 5.389797, 3.724929, -0.944855, -1.287210, -4.227917, -39.746582, -72.710358, -654.513611
1733469804.728232, 0.945859, 5.074510, 3.840150, -1.064806, -1.461067, -4.043515, -38.969009, -72.410034, -654.921021
1733469804.738187, 1.669956, 4.616470, 4.092738, -1.181178, -1.742348, -3.820742, -38.306458, -72.035339, -654.777100
1733469804.748187, 2.284966, 4.080318, 4.134936, -1.296636, -1.970357, -3.576787, -38.069397, -71.526611, -655.700745
1733469804.758186, 2.695572, 3.523966, 3.732710, -1.438117, -2.063274, -3.330668, -37.650620, -71.051270, -656.205383
1733469804.768249, 3.042731, 3.015048, 3.254468, -1.602357, -2.052786, -3.075529, -37.361313, -70.475098, -656.392395
1733469804.777771, 3.441515, 2.590975, 2.881422, -1.769063, -2.005751, -2.810209, -37.636612, -69.762955, -656.863464
1733469804.788182, 3.825934, 2.334047, 2.627936, -1.918708, -1.962478, -2.533815, -37.585205, -69.192215, -657.977173
1733469804.797282, 4.169801, 2.203713, 2.497901, -2.052001, -1.956943, -2.250059, -37.646561, -68.300400, -658.025452
1733469804.808191, 4.476259, 2.055721, 2.475305, -2.185598, -2.039859, -1.979992, -37.810379, -67.360229, -658.804321
1733469804.818184, 4.739472, 1.830966, 2.465579, -2.308952, -2.149844, -1.706363, -38.415146, -66.426758, -659.354858
1733469804.828181, 4.963779, 1.761684, 2.390461, -2.437190, -2.310013, -1.428789, -38.963821, -65.406845, -660.360352
1733469804.838180, 5.290437, 1.684919, 2.300977, -2.578536, -2.496223, -1.115431, -39.792877, -64.371613, -660.684265
1733469804.848198, 5.629217, 1.476624, 2.187702, -2.740779, -2.688507, -0.797395, -40.766769, -62.870132, -660.987244
1733469804.858183, 5.771373, 1.410334, 2.018911, -2.920678, -2.874303, -0.483223, -41.698166, -61.506073, -661.592163
1733469804.868183, 5.699696, 1.595586, 1.804929, -3.104486, -3.062174, -0.171510, -42.816467, -60.145874, -661.859070
1733469804.877537, 5.495441, 2.086996, 1.488595, -3.259495, -3.245901, 0.152797, -44.447998, -58.693680, -662.316833
1733469804.888229, 5.276820, 2.719514, 1.061828, -3.378327, -3.398501, 0.493275, -45.653824, -57.142715, -662.556946
1733469804.898179, 4.863970, 3.502867, 0.432602, -3.480640, -3.498636, 0.855157, -47.539291, -55.212082, -662.031555
1733469804.908185, 4.411167, 4.325873, -0.552911, -3.570669, -3.507071, 1.231039, -49.217117, -53.304886, -663.398315
1733469804.918181, 4.265420, 4.762666, -1.735347, -3.632044, -3.489335, 1.646135, -51.031845, -51.394089, -662.718506
1733469804.928180, 4.292654, 4.990863, -2.728941, -3.650654, -3.547633, 2.073327, -52.618820, -49.332138, -662.500549
1733469804.938233, 4.139126, 5.530007, -3.567809, -3.607114, -3.648530, 2.517146, -54.248016, -47.219147, -662.415222
1733469804.948117, 3.885340, 6.582857, -4.570830, -3.465593, -3.847945, 2.981408, -55.897644, -45.002213, -661.307068
1733469804.958184, 3.307739, 7.789086, -5.593753, -3.211980, -4.244441, 3.428684, -57.957642, -42.767639, -660.522217
1733469804.968189, 1.817199, 9.104101, -6.669647, -2.802994, -4.699483, 3.810160, -59.541168, -40.586426, -659.316406
1733469804.978181, -0.292392, 9.965864, -8.569895, -2.237085, -5.036598, 4.154636, -61.164551, -38.608459, -657.618347
1733469804.988244, -2.228403, 10.329933, -10.546458, -1.686488, -5.083580, 4.538687, -62.696716, -36.715027, -655.930664
1733469804.998210, -3.725079, 10.822390, -12.459575, -1.311508, -4.663997, 4.993789, -64.030197, -34.410645, -653.775879
1733469805.008184, -4.967968, 11.582399, -14.110078, -1.186671, -3.822142, 5.461238, -64.873886, -32.195908, -652.770935
1733469805.018180, -6.722020, 12.220903, -14.879814, -1.338729, -2.954335, 5.756425, -65.846848, -29.892487, -651.989624
1733469805.028193, -9.021053, 12.585570, -14.673613, -1.522326, -2.393315, 5.883203, -65.793152, -27.512207, -650.673340
1733469805.038173, -10.659285, 12.616096, -14.838364, -1.520975, -2.092978, 5.999774, -65.598007, -25.162369, -649.488525
1733469805.047594, -11.510723, 12.861651, -15.864429, -1.398357, -1.943925, 6.162053, -65.064087, -22.602310, -648.880859
1733469805.058177, -12.504766, 13.088053, -16.974890, -1.253398, -1.764944, 6.304617, -64.931091, -20.323090, -648.871704
1733469805.068222, -14.436138, 12.845790, -18.146702, -1.192610, -1.378642, 6.295735, -63.902664, -17.913208, -647.487549
1733469805.077552, -16.722152, 12.245294, -19.188628, -1.278363, -1.012677, 6.098994, -62.928360, -15.611084, -646.614685
1733469805.088184, -18.251598, 12.041188, -19.544916, -1.365733, -0.948854, 5.769090, -61.987839, -13.604416, -646.061035
1733469805.098202, -19.095704, 12.577938, -20.489129, -1.116222, -1.314070, 5.358915, -61.182983, -11.782547, -644.887390
1733469805.108181, -19.670013, 13.501801, -22.529737, -0.308155, -2.019949, 4.962494, -60.197418, -10.381012, -644.816711
1733469805.118191, -19.870527, 14.330644, -25.144355, 1.014707, -2.756641, 4.730054, -59.032852, -9.302963, -644.449524
1733469805.128176, -20.050242, 15.041123, -27.258584, 2.547859, -3.130168, 4.693828, -57.757812, -8.601166, -643.771362
1733469805.138186, -21.083789, 15.887922, -27.887811, 3.930694, -2.837954, 4.785025, -56.973358, -8.443726, -644.154968
1733469805.148188, -23.430256, 16.189891, -26.730214, 4.767296, -1.928975, 4.733683, -56.358414, -8.590836, -645.271484
1733469805.158181, -26.622475, 15.187319, -23.782802, 5.047679, -0.931635, 4.417523, -55.469009, -9.231155, -646.739929
1733469805.168181, -29.259987, 13.829358, -20.007894, 5.029905, -0.255203, 3.822916, -54.605408, -10.019211, -648.247498
1733469805.178181, -30.897172, 12.902053, -16.918476, 5.012168, -0.019601, 3.122990, -53.683609, -11.046860, -649.684387
1733469805.188191, -31.171009, 12.859556, -14.758009, 5.192791, -0.118649, 2.548671, -52.522461, -12.455414, -651.181885
1733469805.198180, -30.974834, 13.690195, -13.585299, 5.613677, -0.168275, 2.169511, -51.850327, -13.891403, -652.384888
1733469805.208180, -31.225777, 14.432846, -12.898462, 6.062012, -0.088325, 1.859422, -51.174957, -15.786880, -654.664124
1733469805.218193, -32.193633, 14.154371, -11.372308, 6.393708, 0.149661, 1.417729, -50.864792, -18.355255, -656.244629
1733469805.228183, -33.842340, 13.303980, -9.609577, 6.563924, 0.481541, 0.754125, -50.592926, -20.959091, -657.611389
1733469805.238176, -34.986469, 12.636447, -7.405266, 6.610065, 0.680534, -0.018706, -50.230698, -23.907227, -659.021912
1733469805.248176, -34.933048, 12.841750, -4.397550, 6.544643, 0.594697, -0.809549, -50.070114, -26.751694, -659.908997
1733469805.258184, -33.745973, 13.469030, -1.230470, 6.399869, 0.318589, -1.539907, -50.065338, -30.115967, -660.979309
1733469805.268182, -31.719431, 13.925874, 1.027262, 6.272721, 0.021075, -2.103577, -50.395706, -33.264709, -660.807739
1733469805.278197, -29.318196, 14.355783, 2.450016, 6.134630, -0.218017, -2.499967, -50.423203, -36.616547, -661.433289
1733469805.288181, -27.117626, 14.499136, 3.437026, 5.966648, -0.312309, -2.783255, -50.734116, -39.971542, -661.174622
1733469805.298169, -25.273043, 13.992163, 4.118326, 5.778697, -0.246641, -2.994434, -50.920547, -43.458191, -660.405396
1733469805.308168, -23.981970, 13.273604, 4.750545, 5.543105, -0.078761, -3.222333, -51.424164, -46.403870, -660.700012
1733469805.318173, -22.905028, 12.262502, 5.686528, 5.218090, 0.047307, -3.516809, -51.614822, -49.537903, -660.477539
1733469805.328181, -21.682489, 11.019014, 6.817789, 4.824376, 0.082816, -3.843466, -51.427139, -52.392197, -659.997925
1733469805.338169, -20.157831, 9.986215, 7.698107, 4.386318, 0.019432, -4.191033, -51.135391, -55.023254, -659.375244
1733469805.348173, -18.456152, 9.156924, 8.349329, 3.937005, -0.158419, -4.517702, -50.840256, -57.748550, -659.021179
1733469805.358231, -16.489316, 8.597877, 8.707711, 3.492071, -0.423873, -4.782950, -50.356750, -60.007126, -658.049927
1733469805.368167, -14.366706, 8.225280, 8.803180, 3.046375, -0.715024, -4.975073, -50.128510, -61.936554, -657.346252
1733469805.377287, -12.301857, 7.935132, 8.731055, 2.589569, -0.976828, -5.084743, -49.285431, -63.910065, -657.144165
1733469805.388228, -10.429891, 7.683891, 8.311321, 2.130549, -1.125306, -5.106579, -48.816101, -65.462814, -656.304565
1733469805.398166, -8.885032, 7.430405, 7.705888, 1.666495, -1.198779, -5.079349, -48.279251, -66.784912, -655.206970
1733469805.408184, -7.629872, 7.188890, 7.140407, 1.233200, -1.201892, -5.009551, -47.247330, -67.841019, -655.440430
1733469805.418236, -6.590938, 7.023690, 6.441001, 0.858347, -1.165904, -4.916013, -46.564621, -68.682465, -654.809143
1733469805.428160, -5.675006, 6.735338, 5.773168, 0.550177, -1.137381, -4.830090, -45.891479, -69.648651, -655.005371
1733469805.438165, -5.010914, 6.312612, 5.260809, 0.294072, -1.151070, -4.784724, -45.098251, -70.104446, -654.826294
1733469805.448168, -4.256142, 5.283105, 4.544943, 0.098654, -1.219640, -4.793331, -43.949203, -70.819183, -655.391602
1733469805.458214, -4.256142, 5.283105, 4.544943, -0.044733, -1.338640, -4.854885, -43.171310, -71.071228, -654.975098
1733469805.468164, -3.350087, 4.848109, 3.950582, -0.155944, -1.433546, -4.914990, -42.352905, -71.373352, -654.877075
1733469805.478160, -2.457349, 5.043535, 4.002207, -0.256751, -1.554887, -4.904121, -41.191940, -71.706467, -655.120178
1733469805.488172, -1.420061, 5.109077, 4.009989, -0.361943, -1.738091, -4.810623, -40.643616, -71.869263, -655.007996
1733469805.498171, -0.439486, 4.853196, 3.983353, -0.459953, -1.928677, -4.676783, -40.052643, -71.997772, -654.738342
1733469805.508174, 0.439486, 4.669591, 4.126407, -0.560911, -2.106468, -4.493217, -39.498505, -71.919525, -655.432861
1733469805.518163, 1.117643, 4.395754, 4.217685, -0.725787, -2.270940, -4.256907, -39.316193, -71.793930, -655.688049
1733469805.528166, 1.669207, 4.092738, 4.146458, -0.958380, -2.382620, -4.003219, -38.950378, -71.276962, -656.144165
1733469805.538162, 2.065298, 3.724330, 4.096180, -1.214670, -2.445383, -3.758387, -38.845413, -70.995773, -656.486450
1733469805.548170, 2.317288, 3.309535, 3.978864, -1.479329, -2.531264, -3.533788, -39.102798, -70.485825, -656.404541
1733469805.558168, 2.598307, 3.088670, 3.623175, -1.722774, -2.602717, -3.314312, -38.905060, -69.839081, -656.758911
1733469805.568165, 2.952200, 3.034052, 3.207332, -1.928165, -2.637028, -3.077011, -39.291580, -68.904648, -657.213013
1733469805.578161, 3.338116, 3.040337, 2.895039, -2.101224, -2.666901, -2.819941, -39.398926, -68.020401, -658.377502
1733469805.588167, 3.816956, 3.008314, 2.609231, -2.244760, -2.697853, -2.547966, -39.796066, -67.200699, -658.807861
1733469805.598167, 4.435857, 2.819921, 2.260276, -2.364983, -2.735755, -2.245435, -40.535690, -66.238586, -658.958130
1733469805.608183, 5.130026, 2.537554, 1.931672, -2.454812, -2.765152, -1.888689, -41.328476, -65.384430, -660.297607
1733469805.618162, 5.600337, 2.550274, 1.721880, -2.539754, -2.781314, -1.500983, -42.333527, -63.959610, -660.571045
1733469805.628162, 5.908890, 2.941127, 1.596035, -2.632419, -2.791212, -1.100594, -43.219635, -62.894806, -660.814941
1733469805.638169, 6.101324, 3.476231, 1.542913, -2.720831, -2.865679, -0.681584, -44.399323, -61.406631, -661.253052
1733469805.648158, 6.213552, 4.032135, 1.461211, -2.791241, -2.999860, -0.259148, -45.827301, -60.190781, -661.370239
1733469805.658164, 6.152500, 4.848707, 1.428291, -2.856960, -3.189164, 0.153623, -47.173447, -58.858810, -661.656311
1733469805.668178, 6.221034, 5.949292, 1.235408, -2.925400, -3.446110, 0.573592, -48.767502, -57.451401, -661.648987
1733469805.678175, 6.656928, 6.959346, 0.511312, -2.970309, -3.754235, 1.083865, -50.629547, -55.688232, -661.628540
1733469805.688159, 7.219266, 7.636605, -0.839916, -2.991173, -4.001501, 1.729938, -52.642593, -53.779160, -661.430969
1733469805.698158, 7.621193, 8.155998, -2.654272, -3.019214, -4.098290, 2.450426, -54.776077, -52.049744, -660.257202
1733469805.708160, 7.545027, 8.618527, -4.475212, -2.991511, -3.992193, 3.203981, -56.820740, -49.825836, -660.675171
1733469805.718159, 6.837391, 9.380931, -5.447557, -2.940500, -3.807456, 3.917345, -58.715851, -47.458038, -659.404297
1733469805.728169, 5.766135, 10.800693, -5.677550, -2.929573, -3.720046, 4.582345, -60.725037, -45.161301, -658.777649
1733469805.738158, 4.153940, 12.107777, -5.695207, -2.916145, -3.862310, 5.196898, -61.743195, -42.338852, -657.606628
1733469805.748152, 1.679233, 13.922133, -6.101773, -2.878442, -4.138780, 5.767210, -63.178589, -39.144669, -655.904480
1733469805.758167, -1.779790, 15.484200, -7.139958, -2.962331, -4.378893, 6.318007, -63.178589, -39.144669, -655.904480
1733469805.768167, -5.992238, 16.026487, -9.158869, -3.159822, -4.397614, 6.702952, -64.491547, -35.854385, -654.520386
1733469805.778169, -9.760262, 16.046987, -12.089671, -3.494430, -4.036739, 6.883080, -65.534439, -32.417877, -652.924927
1733469805.788166, -12.244247, 15.246875, -15.580716, -3.851267, -3.356070, 6.849286, -66.024948, -28.743011, -651.444153
1733469805.798161, -13.521553, 14.961366, -19.542821, -4.070286, -2.510510, 6.693303, -66.185303, -25.249557, -650.033508
1733469805.808156, -13.817536, 15.564106, -23.372496, -3.979877, -1.607481, 6.531886, -65.227341, -21.772690, -648.518311
1733469805.818169, -13.483096, 16.402526, -25.700707, -3.541821, -0.984420, 6.480630, -64.295853, -18.478912, -647.405457
1733469805.828163, -13.676877, 16.228348, -27.181671, -2.772812, -0.796897, 6.504486, -63.373169, -15.562759, -646.426147
1733469805.838163, -15.160983, 16.493805, -27.992407, -1.787428, -0.759729, 6.554937, -61.612106, -13.084488, -645.457520
1733469805.848166, -17.234361, 16.918925, -27.571626, -0.867894, -0.748387, 6.535569, -59.940079, -10.720047, -645.028564
1733469805.858161, -19.174114, 16.507572, -26.348788, -0.207735, -0.667732, 6.401402, -58.353745, -8.926407, -644.686768
1733469805.867562, -20.816386, 16.132430, -24.419660, 0.155986, -0.731219, 6.043657, -57.113083, -7.513000, -644.980164
1733469805.878160, -21.280113, 16.058210, -23.356784, 0.483813, -1.198020, 5.529154, -55.709213, -6.176468, -644.277710
1733469805.888156, -21.241357, 16.671425, -23.649625, 1.071908, -1.898095, 5.087245, -54.205154, -5.384293, -644.197266
1733469805.898158, -21.781250, 16.900071, -24.137144, 1.924717, -2.578778, 4.709731, -53.464630, -4.953720, -644.278198
1733469805.908151, -22.344486, 16.719159, -24.585458, 2.949931, -2.878792, 4.347849, -52.542648, -4.851089, -644.662109
1733469805.917154, -22.812702, 17.167773, -23.522732, 3.946482, -2.617860, 4.115384, -51.916748, -5.112747, -645.132874
1733469805.928154, -23.482330, 17.343597, -20.607043, 4.707490, -2.041598, 3.989851, -50.744415, -5.545700, -646.472595
1733469805.938214, -24.818444, 16.911892, -17.118542, 5.229836, -1.332919, 3.966253, -49.700348, -6.828293, -648.199890
1733469805.948161, -26.828227, 15.743672, -13.301436, 5.495555, -0.633853, 3.775697, -49.338272, -7.956192, -650.356812
1733469805.958157, -28.000188, 14.498088, -9.377938, 5.467002, -0.155628, 3.338746, -48.557465, -9.287567, -651.925781
1733469805.968145, -28.531851, 13.813047, -5.899463, 5.267499, -0.070192, 2.772671, -47.912567, -10.550415, -653.557251
1733469805.978158, -28.334928, 13.579313, -3.520225, 5.015108, -0.365646, 2.138450, -46.828354, -12.327744, -655.168396
1733469805.988154, -27.645996, 13.610737, -3.219453, 4.791873, -0.737224, 1.674174, -45.943863, -13.782974, -656.113220
1733469805.998155, -27.986721, 13.171700, -4.432116, 4.658650, -0.742185, 1.388846, -45.681290, -15.456818, -657.301453
1733469806.008149, -29.245473, 12.413936, -5.358972, 4.582674, -0.391847, 1.094143, -45.448990, -17.052048, -658.630737
1733469806.018207, -30.508414, 11.891850, -5.656601, 4.544952, 0.190914, 0.707386, -45.108673, -19.090088, -659.344788
1733469806.028154, -31.287427, 11.869704, -5.018845, 4.543891, 0.694673, 0.201472, -44.272339, -21.209000, -660.232300
1733469806.038148, -31.162031, 11.920730, -4.127304, 4.595585, 0.951378, -0.382372, -44.056305, -23.304047, -660.904663
1733469806.048147, -30.349200, 11.813141, -3.003077, 4.705183, 0.974817, -1.026081, -43.990982, -25.953293, -661.622009
1733469806.058158, -29.161526, 12.430994, -1.577031, 4.803698, 0.723154, -1.650195, -43.895004, -28.379028, -662.464417
1733469806.068161, -27.993455, 12.875867, -1.020678, 4.877120, 0.450203, -2.145401, -43.652023, -30.684219, -662.507996
1733469806.078154, -27.223420, 12.373234, -0.654365, 4.896838, 0.351536, -2.605895, -43.999435, -33.347977, -662.778198
1733469806.088161, -26.283695, 12.026374, -0.071976, 4.825271, 0.417085, -3.060212, -44.310303, -36.068985, -663.215088
1733469806.098164, -24.783578, 11.682806, 0.618452, 4.678586, 0.530675, -3.507592, -44.627487, -39.129868, -663.173523
1733469806.108144, -22.765266, 11.321431, 1.239897, 4.512777, 0.585229, -3.925554, -44.629105, -41.576736, -663.427979
1733469806.118143, -20.632631, 11.071088, 1.699883, 4.375526, 0.534139, -4.306218, -44.686768, -44.251602, -663.062927
1733469806.128156, -18.548329, 10.880898, 2.130989, 4.281655, 0.411768, -4.643511, -44.468735, -46.974136, -663.244202
1733469806.138198, -16.521039, 10.746524, 2.825757, 4.191963, 0.235977, -4.937913, -44.215179, -49.495636, -662.855530
1733469806.148138, -14.469807, 10.562769, 3.511995, 4.029045, -0.030323, -5.163118, -44.428406, -51.966537, -662.418091
1733469806.158139, -12.727426, 10.136900, 3.867384, 3.818769, -0.292900, -5.354361, -43.669861, -54.294830, -662.106079
1733469806.168145, -11.142166, 9.604490, 4.154987, 3.575671, -0.515424, -5.518584, -43.365799, -56.490707, -661.762817
1733469806.178136, -9.569774, 9.206154, 4.556764, 3.304369, -0.776412, -5.641300, -42.975266, -58.815704, -661.364990
1733469806.188138, -8.117541, 9.013122, 4.797232, 3.041484, -1.112441, -5.703465, -42.418869, -60.613831, -660.868103
1733469806.198159, -6.777985, 8.696189, 4.674978, 2.801774, -1.429289, -5.714733, -42.022980, -62.339432, -659.481995
1733469806.208158, -5.607370, 8.268525, 4.345177, 2.579359, -1.668830, -5.672217, -41.645203, -63.798141, -659.274841
1733469806.218155, -4.661960, 7.832032, 4.031237, 2.358238, -1.793086, -5.599558, -41.176453, -65.291489, -658.543823
1733469806.228159, -3.763835, 7.464223, 3.889530, 2.134907, -1.835836, -5.522928, -40.760559, -66.535126, -657.930359
1733469806.238148, -2.802712, 7.064391, 4.067000, 1.904816, -1.852108, -5.454882, -40.115875, -67.612961, -657.789673
1733469806.248138, -1.866879, 6.722469, 4.634426, 1.665957, -1.936248, -5.386635, -39.695465, -68.491333, -656.924072
1733469806.258138, -0.916979, 6.465242, 5.367202, 1.401671, -2.155091, -5.309484, -39.282883, -69.500809, -656.828796
1733469806.268148, -0.182857, 6.220585, 5.943456, 1.093897, -2.482558, -5.228121, -38.438477, -69.999786, -656.824219
1733469806.278141, 0.581791, 5.976825, 5.852327, 0.762858, -2.808505, -5.077125, -38.054245, -70.563553, -655.943115
1733469806.288152, 1.445350, 5.764489, 5.354033, 0.413239, -2.953740, -4.844162, -37.810104, -70.743652, -655.693054
1733469806.298134, 2.312350, 5.603180, 4.769100, 0.013509, -2.883972, -4.523176, -37.481140, -70.924759, -655.575195
1733469806.308137, 3.152415, 5.398027, 4.216039, -0.392469, -2.679610, -4.121433, -37.409897, -70.584625, -655.969788
1733469806.318193, 3.874417, 4.862175, 3.695151, -0.749999, -2.390423, -3.690969, -37.309433, -70.393204, -656.404419
1733469806.328134, 4.459201, 4.157681, 3.586813, -1.024914, -2.140783, -3.277232, -37.190720, -70.206009, -657.005737
1733469806.338132, 4.666748, 3.398120, 3.836409, -1.229274, -2.093887, -2.916816, -37.631912, -69.759857, -657.341919
1733469806.348141, 4.661511, 2.677615, 4.063559, -1.360388, -2.257351, -2.630436, -38.013062, -69.136551, -657.663391
1733469806.358168, 4.553921, 2.129792, 4.087950, -1.441404, -2.558693, -2.411773, -38.194641, -68.668488, -658.456299
1733469806.368143, 4.620211, 1.869722, 3.927538, -1.502043, -2.863360, -2.194232, -38.697327, -67.949310, -658.913269
1733469806.378142, 4.751443, 1.695693, 3.840599, -1.604926, -3.102201, -1.959059, -39.416840, -67.255966, -659.060486
1733469806.388135, 4.937293, 1.499818, 3.880851, -1.774736, -3.303470, -1.694203, -40.613739, -66.330811, -659.445984
1733469806.398143, 5.129278, 1.501613, 3.815160, -1.993645, -3.445522, -1.389771, -41.661118, -65.678192, -659.348328
1733469806.408201, 5.195268, 1.659331, 3.706823, -2.242639, -3.582716, -1.075293, -42.998062, -64.565384, -660.079895
1733469806.418139, 5.258714, 2.029385, 3.325995, -2.483557, -3.696973, -0.743328, -44.337402, -63.346863, -660.496643
1733469806.428130, 5.278167, 2.591274, 2.714426, -2.690570, -3.802099, -0.398857, -45.990128, -62.040146, -660.847778
1733469806.438214, 5.438579, 3.358317, 1.955315, -2.844840, -3.843404, -0.032591, -47.577194, -60.847382, -660.899414
1733469806.448130, 5.697152, 4.231303, 1.132906, -2.938333, -3.877363, 0.375575, -49.179916, -59.294067, -660.897705
1733469806.458141, 5.744887, 5.015703, 0.207697, -2.956426, -3.916817, 0.846745, -51.238998, -57.754547, -661.178955
1733469806.467863, 5.626972, 6.148609, -0.727089, -2.896948, -3.911533, 1.326775, -53.090805, -56.052734, -660.312622
1733469806.478148, 5.982362, 7.491008, -1.461211, -2.775837, -3.917735, 1.842170, -54.890945, -54.373001, -660.631714
1733469806.488135, 6.812252, 8.853010, -2.217031, -2.626987, -3.974076, 2.508201, -56.728394, -52.484344, -659.634949
1733469806.498130, 7.227047, 10.209774, -3.128174, -2.531676, -3.882305, 3.343245, -58.716324, -50.485138, -658.433105
1733469806.508155, 6.784719, 11.354202, -3.666421, -2.691764, -3.621768, 4.212558, -60.709457, -47.958023, -658.100464
1733469806.518135, 5.681441, 12.409895, -4.544943, -3.137888, -3.244167, 5.000685, -62.348129, -45.060303, -657.485413
1733469806.528184, 3.933673, 13.733290, -6.234052, -3.654467, -2.869629, 5.655305, -63.228043, -41.838821, -656.941650
1733469806.538143, 1.941398, 14.923807, -8.680477, -4.037098, -2.632203, 6.158557, -63.972321, -38.385605, -655.926880
1733469806.548130, -0.397737, 16.278177, -11.630283, -4.114687, -2.574903, 6.567873, -64.383591, -34.476364, -654.834351
1733469806.558121, -3.071013, 17.910274, -14.521731, -4.005211, -2.466718, 6.937395, -64.836578, -30.719543, -653.929749
1733469806.568137, -6.280590, 18.578257, -16.941670, -3.931828, -2.289822, 7.210871, -64.673370, -27.149475, -652.288208
1733469806.578136, -9.373599, 18.367866, -19.213319, -3.839832, -2.075908, 7.251896, -64.146576, -23.617874, -651.411377
1733469806.588128, -11.120917, 17.946487, -21.190780, -3.569621, -1.952972, 7.143921, -63.689285, -20.447861, -650.474548
1733469806.598131, -12.401965, 18.496704, -22.665907, -3.116689, -1.952537, 7.046669, -62.257675, -17.446487, -648.094238
1733469806.608134, -13.743765, 19.361161, -23.971495, -2.598031, -1.973938, 6.995526, -61.023514, -14.537384, -647.370361
1733469806.618129, -14.923059, 19.586964, -24.997411, -2.070612, -1.908087, 6.979333, -59.897324, -12.158264, -646.456116
1733469806.628133, -15.915904, 19.133711, -25.898977, -1.559630, -1.716308, 6.975318, -57.863495, -9.855835, -645.759033
1733469806.638168, -17.415273, 18.977340, -26.765379, -1.046520, -1.220839, 7.026613, -56.325165, -7.855652, -645.309814
1733469806.648184, -20.064906, 18.975694, -25.607034, -0.717903, -0.623779, 6.952558, -54.230667, -6.197891, -645.134277
1733469806.658185, -22.844574, 18.557307, -24.121731, -0.498147, -0.557729, 6.561682, -52.697159, -4.829941, -644.976685
1733469806.668312, -24.412777, 18.284967, -24.514530, 0.010175, -0.875659, 5.989332, -50.820251, -3.908905, -644.484375
1733469806.678194, -25.055470, 18.267759, -24.749311, 0.765408, -1.367815, 5.392720, -49.277496, -3.250031, -644.593323
1733469806.688195, -25.472061, 18.167352, -25.229499, 1.641800, -1.642436, 4.993133, -47.878479, -2.946106, -645.115906
1733469806.698176, -26.567259, 16.826749, -24.866328, 2.481740, -1.485749, 4.720980, -46.270630, -3.061707, -645.753113
1733469806.708155, -27.768849, 15.531186, -23.641694, 3.098126, -0.992865, 4.449638, -45.100571, -3.445892, -647.285522
1733469806.718150, -29.058874, 14.845696, -22.212356, 3.554681, -0.320554, 4.197990, -43.726212, -4.453995, -649.378723
1733469806.728162, -30.347105, 14.425963, -19.995923, 3.903996, 0.266122, 3.766070, -42.327316, -5.445053, -650.477234
1733469806.738124, -30.420427, 15.130906, -17.097293, 4.194983, 0.470117, 3.248326, -41.174500, -6.757980, -651.866943
1733469806.748116, -30.121451, 16.307506, -14.539238, 4.506593, 0.273209, 2.785325, -40.210709, -8.243347, -653.705444
1733469806.758127, -29.829957, 16.462830, -12.801946, 5.302158, -0.638533, 1.978694, -39.628540, -10.072800, -655.254944
1733469806.768137, -29.941886, 16.154576, -12.036101, 5.659670, -0.810166, 1.556220, -39.153549, -12.109985, -656.007812
1733469806.778129, -30.832379, 15.329774, -11.142914, 5.901789, -0.659691, 1.119074, -39.241364, -14.542603, -657.509888
1733469806.788135, -31.526997, 14.990546, -10.222493, 6.033183, -0.399994, 0.576482, -39.035599, -17.166016, -658.974487
1733469806.798130, -31.959450, 14.373889, -8.779388, 6.086174, -0.185955, -0.081860, -39.293671, -19.959991, -659.614014
1733469806.808115, -31.687558, 13.818883, -7.209989, 6.112605, -0.124446, -0.799908, -39.805862, -22.997833, -661.502197
1733469806.818129, -30.587572, 13.535320, -5.533150, 6.144904, -0.232826, -1.500749, -40.307327, -26.188873, -662.426147
1733469806.828018, -28.844444, 13.404836, -3.952079, 6.172968, -0.428151, -2.133660, -40.747375, -29.561142, -663.172363
1733469806.838127, -26.927436, 13.550134, -2.622698, 6.169975, -0.630300, -2.659590, -41.297531, -32.641144, -663.325073
1733469806.848130, -25.117121, 13.685556, -1.527351, 6.110505, -0.735709, -3.113436, -42.291183, -35.992996, -663.414429
1733469806.858134, -23.472903, 13.411270, -0.690428, 5.987090, -0.754270, -3.538013, -43.048676, -39.333893, -663.775696
1733469806.867625, -21.801451, 12.720543, 0.128239, 5.987090, -0.754270, -3.538013, -43.626389, -42.578003, -664.096558
1733469806.878128, -19.914670, 12.008717, 1.027861, 5.602311, -0.681647, -4.276571, -44.202194, -45.689728, -664.062012
1733469806.888112, -17.906833, 11.475558, 2.108693, 5.324249, -0.663746, -4.555924, -44.333923, -49.021896, -663.282471
1733469806.898113, -15.941343, 11.018415, 3.235464, 4.978937, -0.740809, -4.769855, -44.482468, -51.840195, -662.199707
1733469806.908172, -14.056208, 10.549301, 4.377947, 4.581573, -0.882722, -4.927535, -44.354034, -54.738647, -662.330200
1733469806.918113, -12.261156, 10.098892, 5.209633, 4.150104, -1.025778, -5.024328, -44.306534, -57.072922, -661.330444
1733469806.928116, -10.708516, 9.635315, 5.705532, 3.700566, -1.191548, -5.102684, -44.379608, -59.387238, -660.935669
1733469806.938114, -9.396344, 8.850615, 6.080374, 3.252522, -1.353878, -5.176518, -43.837204, -61.361145, -660.231995
1733469806.948127, -8.217648, 8.072799, 6.165518, 2.824296, -1.500360, -5.239892, -43.440521, -63.242249, -659.838562
1733469806.958119, -7.182306, 7.478139, 6.051794, 2.420570, -1.596933, -5.279962, -43.176163, -64.487946, -658.667786
1733469806.968123, -6.120777, 6.964583, 5.869535, 2.024099, -1.654006, -5.279532, -42.654999, -65.816437, -657.933533
1733469806.978118, -5.139752, 6.631490, 5.824644, 1.622498, -1.659831, -5.235853, -41.990295, -67.067673, -657.397705
1733469806.988115, -4.318541, 6.393566, 5.714660, 1.207019, -1.610096, -5.182330, -41.206436, -67.783936, -656.880737
1733469806.998124, -3.532196, 6.165069, 5.606771, 0.796279, -1.591448, -5.107047, -40.885880, -68.514969, -656.191711
1733469807.008124, -2.765303, 6.085462, 5.597643, 0.435397, -1.622077, -4.989541, -39.966888, -69.136810, -656.692017
1733469807.018111, -1.948282, 6.121225, 5.397279, 0.124194, -1.630257, -4.837433, -39.501038, -69.355698, -656.589966
1733469807.028155, -1.123030, 5.943755, 5.141548, -0.177268, -1.712151, -4.652280, -38.575119, -69.494583, -656.831970
1733469807.038120, -0.377685, 5.566519, 5.086033, -0.440177, -1.854597, -4.466168, -38.255600, -69.579437, -657.169250
1733469807.048121, 0.079607, 5.125387, 4.819378, -0.637331, -2.004200, -4.291463, -37.956085, -69.132187, -657.655762
1733469807.058122, 0.446219, 4.649839, 4.299537, -0.785405, -2.097467, -4.112917, -37.680939, -69.051086, -657.876038
1733469807.068113, 0.816872, 4.123264, 3.752013, -0.904309, -2.116933, -3.932683, -37.495331, -68.679321, -658.239746
1733469807.078109, 1.134103, 3.640982, 3.295918, -1.013666, -2.055479, -3.753817, -37.305786, -68.418472, -658.466064
1733469807.088109, 1.542913, 3.216161, 2.916138, -1.129564, -1.954536, -3.566688, -36.953934, -67.971893, -659.016357
1733469807.098113, 2.068141, 2.862268, 2.836530, -1.252492, -1.938879, -3.359789, -36.932678, -67.529739, -658.371643
1733469807.108119, 2.552668, 2.549376, 3.082984, -1.377496, -2.044531, -3.155812, -36.996979, -66.898376, -659.426208
1733469807.118108, 2.844312, 2.284966, 3.317765, -1.487555, -2.220443, -2.967618, -37.397049, -66.290161, -659.576660
1733469807.128120, 3.117849, 2.122759, 3.344400, -1.592743, -2.445726, -2.764485, -37.631866, -65.687119, -660.365845
1733469807.138116, 3.484761, 2.035520, 3.412785, -1.698732, -2.763900, -2.533806, -38.218414, -64.829575, -660.802551
1733469807.148104, 3.628862, 2.047940, 3.581726, -1.817692, -3.080131, -2.300781, -39.063141, -64.108185, -660.945129
1733469807.158116, 3.322853, 1.932570, 3.567959, -1.989731, -3.298984, -2.108973, -40.009796, -63.212158, -661.196960
1733469807.167950, 3.055151, 1.562067, 3.535338, -2.235426, -3.522706, -1.920047, -41.148346, -62.179153, -661.979553
1733469807.178115, 3.076848, 1.430535, 3.621529, -2.498063, -3.761821, -1.708612, -42.405640, -60.969070, -662.206360
1733469807.188104, 3.026421, 1.500716, 3.478326, -2.733151, -3.981722, -1.504690, -44.354172, -59.672256, -662.705811
1733469807.198108, 2.962675, 1.710807, 3.212270, -2.936466, -4.239176, -1.300492, -45.808090, -58.457123, -661.660156
1733469807.208112, 3.048567, 2.000954, 3.149273, -3.110707, -4.624168, -1.060014, -47.842056, -56.951706, -662.514465
1733469807.218108, 3.118448, 2.396297, 3.158401, -3.247687, -5.045788, -0.784864, -49.733658, -55.647629, -662.567932
1733469807.228108, 2.935740, 2.989610, 2.886360, -3.358101, -5.436548, -0.502997, -52.122238, -53.967896, -662.466675
1733469807.238116, 2.514211, 3.937265, 2.352004, -3.460397, -5.775656, -0.192637, -52.122238, -53.967896, -662.466675
1733469807.248120, 2.302773, 5.145888, 1.504307, -3.557262, -6.106313, 0.160593, -54.683075, -52.108490, -661.410278
1733469807.258161, 2.184559, 6.152799, 0.106243, -3.539031, -6.400155, 0.536223, -57.635712, -50.456573, -660.523560
1733469807.268130, 2.154931, 6.918944, -2.157176, -3.248502, -6.688601, 1.029601, -60.091202, -48.810669, -658.759277
1733469807.277411, 2.371756, 7.851036, -4.797980, -2.585590, -6.930032, 1.733164, -62.491211, -46.998672, -657.282654
1733469807.288123, 2.230049, 9.551967, -7.268198, -1.736109, -6.950288, 2.667792, -64.725540, -45.335892, -655.147278
1733469807.298104, 1.877802, 11.544391, -9.128941, -0.991508, -6.628466, 3.847520, -66.715073, -43.786621, -653.042847
1733469807.308156, 1.112855, 13.497761, -9.998336, -0.630337, -5.818842, 5.127170, -68.552002, -41.964813, -649.885620
1733469807.318102, -0.544531, 15.108610, -10.350583, -0.821347, -4.561389, 6.291971, -70.070663, -39.261810, -648.066101
1733469807.328100, -3.542072, 16.165500, -10.392182, -1.498935, -3.006961, 7.179217, -70.950531, -36.410339, -646.510620
1733469807.338100, -7.505822, 16.927155, -10.724228, -2.357759, -1.457376, 7.697662, -71.720276, -32.977356, -645.604980
1733469807.348107, -10.919206, 16.733075, -11.870153, -3.002964, -0.375412, 7.875901, -71.564026, -29.295502, -644.962402
1733469807.358166, -13.266870, 16.010176, -13.502549, -3.199610, 0.041550, 7.729903, -71.041916, -25.641678, -644.932129
1733469807.367155, -15.189115, 15.308077, -15.296854, -2.986037, 0.047171, 7.441159, -69.444946, -21.741806, -644.289734
1733469807.378101, -16.587478, 15.470733, -16.658257, -2.708285, -0.153155, 7.129230, -68.354340, -18.390472, -643.834717
1733469807.388104, -17.346889, 16.127791, -17.206080, -2.536811, -0.415885, 6.753000, -67.011856, -15.398926, -642.852539
1733469807.398109, -17.412580, 15.629348, -18.038364, -2.221554, -0.885933, 6.348175, -65.597656, -12.660385, -642.504944
1733469807.408094, -17.530793, 15.738584, -19.071313, -1.612505, -1.592716, 5.983435, -64.252380, -10.262878, -640.969910
1733469807.418113, -17.415273, 16.173431, -20.580408, -0.711465, -2.339103, 5.727103, -63.003525, -7.998566, -639.885132
1733469807.428113, -16.873136, 15.813253, -22.047455, 0.306641, -2.864971, 5.599785, -61.725021, -6.248215, -639.110779
1733469807.438113, -17.271023, 16.201114, -23.053768, 1.211400, -2.918470, 5.516735, -59.909515, -4.962067, -638.054321
1733469807.448112, -18.577808, 16.545430, -23.554605, 1.878658, -2.462036, 5.477390, -58.737015, -3.665955, -637.823730
1733469807.458107, -19.971832, 16.465523, -23.242610, 2.316480, -1.719923, 5.394844, -57.248108, -2.775421, -638.209839
1733469807.468097, -21.620838, 16.644340, -22.292861, 2.609209, -0.952411, 5.241922, -55.561768, -2.098953, -638.992310
1733469807.478101, -22.862681, 17.135601, -20.821474, 2.908742, -0.640220, 5.018515, -53.852783, -1.812378, -639.615662
1733469807.488104, -23.634062, 17.510293, -18.852842, 3.435716, -0.816315, 4.833222, -51.948807, -1.586823, -640.794678
1733469807.498097, -24.176648, 17.256059, -17.884686, 4.222295, -1.131480, 4.749989, -50.365005, -1.663986, -641.729980
1733469807.508098, -25.433305, 16.911892, -17.447745, 5.005801, -1.238839, 4.637218, -48.586166, -2.110718, -643.531494
1733469807.518107, -27.930308, 16.116269, -16.632070, 5.533705, -0.967576, 4.301087, -47.335785, -2.826828, -645.505432
1733469807.528106, -31.201386, 14.694562, -15.522507, 5.696253, -0.452222, 3.611613, -46.536087, -3.892227, -647.721985
1733469807.537555, -33.539773, 13.362189, -14.163947, 5.663896, 0.033862, 2.742726, -45.613678, -5.385300, -649.842651
1733469807.548111, -33.663972, 12.860753, -13.067702, 5.740173, 0.246993, 1.990610, -44.387299, -7.209518, -651.507751
1733469807.558117, -31.964238, 13.708451, -12.058247, 6.052473, 0.085138, 1.511249, -43.195663, -9.291840, -653.579712
1733469807.568104, -30.062195, 15.168016, -10.906486, 6.514047, -0.208547, 1.242501, -42.521179, -11.805328, -655.668030
1733469807.578091, -29.342587, 16.086192, -9.897330, 6.911817, -0.398106, 0.943878, -42.519501, -14.278702, -657.335388
1733469807.588093, -29.853301, 15.828217, -8.914211, 7.159885, -0.368923, 0.482572, -42.643387, -17.280319, -658.679688
1733469807.598113, -30.697257, 15.012243, -7.873332, 7.268180, -0.249768, -0.181400, -42.975189, -20.775513, -659.801575
1733469807.608104, -30.853179, 14.359673, -6.228067, 7.256561, -0.231814, -0.933163, -43.246811, -24.256500, -661.317871
1733469807.618101, -29.809606, 14.325257, -4.252551, 7.177879, -0.364450, -1.636189, -43.793610, -27.961655, -662.578125
1733469807.628100, -27.661858, 14.592360, -2.511667, 7.087663, -0.542849, -2.147128, -43.993027, -31.403137, -662.744629
1733469807.638119, -25.314193, 15.173852, -1.245434, 6.983667, -0.637740, -2.489147, -44.604034, -35.040619, -663.329163
1733469807.648105, -23.622241, 15.339201, -0.206350, 6.821574, -0.588976, -2.773733, -45.237137, -38.855591, -663.186768
1733469807.658104, -22.336405, 14.642488, 0.765995, 6.586534, -0.424121, -3.059947, -45.689209, -42.488785, -663.228027
1733469807.668093, -21.148283, 13.557167, 1.830218, 6.265575, -0.212129, -3.371236, -45.775208, -46.068344, -663.103516
1733469807.677923, -19.795708, 12.565070, 3.208679, 5.840127, -0.097448, -3.658945, -46.057556, -49.166153, -662.423462
1733469807.688094, -18.039412, 11.697171, 4.681412, 5.362590, -0.111203, -3.920335, -46.162827, -52.325424, -661.627930
1733469807.698104, -16.215928, 10.830620, 5.905747, 4.870154, -0.260983, -4.147458, -46.089355, -55.438354, -661.227417
1733469807.708104, -14.527866, 10.012252, 6.790704, 4.379575, -0.495797, -4.350414, -45.791046, -57.889420, -660.556946
1733469807.718100, -12.939463, 9.180117, 7.247548, 3.905617, -0.761031, -4.543210, -45.737244, -60.233551, -659.693665
1733469807.728098, -11.523592, 8.363395, 7.394043, 3.441314, -1.023601, -4.712357, -45.162140, -62.335251, -659.391479
1733469807.738082, -10.097097, 7.737312, 7.501932, 2.976185, -1.273601, -4.827308, -44.646774, -64.220551, -658.313110
1733469807.748083, -8.615235, 7.231536, 7.558495, 2.500139, -1.532186, -4.873497, -44.171005, -65.907425, -657.411438
1733469807.758151, -7.307403, 6.700323, 7.482479, 2.028709, -1.711580, -4.876889, -43.634613, -67.316513, -657.252075
1733469807.768032, -6.293758, 6.222081, 7.048679, 1.577761, -1.768392, -4.852412, -43.017059, -68.370621, -656.618591
1733469807.778085, -5.547964, 5.793369, 6.572532, 1.136740, -1.724183, -4.835312, -42.807983, -69.399490, -656.088013
1733469807.788146, -4.923077, 5.382465, 6.265775, 0.696495, -1.651138, -4.836401, -42.128906, -70.084015, -655.998169
1733469807.798087, -4.344877, 5.064036, 6.155792, 0.282154, -1.645366, -4.846492, -41.420334, -70.674744, -654.755737
1733469807.808091, -3.826234, 4.764611, 6.107908, -0.070471, -1.724451, -4.872850, -40.791260, -70.915237, -655.709351
1733469807.818095, -3.420416, 4.459500, 5.928343, -0.334145, -1.895544, -4.924608, -40.078079, -71.068420, -656.085754
1733469807.828102, -3.002329, 4.190900, 5.645976, -0.495471, -2.119845, -4.976978, -39.360214, -71.048035, -656.092773
1733469807.837506, -2.405275, 3.916914, 5.099350, -0.568804, -2.240109, -4.966045, -38.701416, -70.986725, -656.038025
1733469807.848091, -1.550096, 3.892224, 4.304475, -0.642164, -2.232428, -4.856880, -38.293442, -70.663956, -655.879822
1733469807.858091, -0.364218, 3.948039, 4.048595, -0.768149, -2.258837, -4.667074, -37.825790, -70.440201, -656.199097
1733469807.868093, 0.763152, 4.094983, 4.240131, -0.928839, -2.342418, -4.432314, -37.263077, -70.421707, -656.584778
1733469807.878102, 1.735946, 4.160674, 4.129699, -1.059293, -2.460403, -4.171479, -36.959579, -70.059601, -657.154602
1733469807.888086, 2.402282, 4.138228, 3.856909, -1.156228, -2.571431, -3.894212, -37.078705, -69.689178, -657.302734
1733469807.898087, 3.072509, 4.023755, 3.633650, -1.287224, -2.651771, -3.557790, -36.992004, -69.085007, -657.349060
1733469807.908097, 4.218434, 3.957466, 3.553145, -1.473621, -2.717539, -3.167117, -37.271606, -68.408310, -658.288330
1733469807.918081, 4.425083, 3.803638, 3.541473, -1.709976, -2.809892, -2.751978, -37.545929, -67.852783, -658.542480
1733469807.928096, 4.515913, 3.524265, 3.152415, -1.930254, -2.936793, -2.332649, -38.373138, -67.039673, -659.334778
1733469807.938082, 4.471172, 3.197456, 2.625092, -2.078920, -3.055246, -1.943072, -39.239517, -66.303879, -659.612610
1733469807.948111, 4.446481, 2.994697, 2.191742, -2.158636, -3.218700, -1.594743, -39.885437, -65.369064, -660.081177
1733469807.958091, 4.472219, 3.025373, 1.443255, -2.191506, -3.375498, -1.239576, -41.505341, -64.178848, -660.511719
1733469807.968088, 4.558111, 3.111115, 0.664690, -2.200551, -3.437363, -0.855384, -42.635345, -63.236191, -660.755127
1733469807.978078, 4.671536, 2.953547, 0.102202, -2.219268, -3.371634, -0.462703, -43.934189, -62.198257, -660.984741
1733469807.988080, 4.663306, 2.908805, -0.064494, -2.295817, -3.234722, -0.078324, -45.355820, -61.108673, -661.169067
1733469807.998078, 4.667945, 3.214216, -0.004788, -2.425617, -3.150976, 0.309794, -46.709610, -60.019333, -660.895508
1733469808.008084, 4.774188, 3.707870, -0.076465, -2.558379, -3.129678, 0.732591, -48.025421, -58.576355, -661.816345
1733469808.018078, 4.784662, 4.350264, -0.317531, -2.692464, -3.135801, 1.186167, -49.415436, -57.045303, -661.652832
1733469808.028097, 4.647894, 5.089025, -0.759860, -2.890802, -3.128501, 1.666211, -51.298157, -55.423355, -661.391602
1733469808.038085, 4.203470, 5.802048, -1.411083, -3.120717, -3.176296, 2.144852, -52.820709, -53.661118, -661.334229
1733469808.048077, 3.617040, 6.334758, -2.733131, -3.260488, -3.253056, 2.624469, -54.292618, -51.477081, -661.173279
1733469808.058075, 2.518251, 7.164798, -4.166061, -3.347300, -3.291963, 3.072546, -56.244720, -49.442352, -660.581909
1733469808.068080, 1.138443, 7.915979, -5.592107, -3.383404, -3.373616, 3.442738, -57.730698, -47.083618, -659.965210
1733469808.078079, 0.001796, 8.189068, -7.297976, -3.291242, -3.438443, 3.733825, -59.343552, -44.783218, -659.361816
1733469808.088078, -0.917279, 8.637531, -8.594136, -3.108053, -3.397926, 4.000109, -61.147964, -42.345276, -658.254150
1733469808.098095, -1.811214, 9.416844, -9.132383, -3.027801, -3.222491, 4.296458, -62.112320, -39.683197, -656.688232
1733469808.108075, -2.860622, 9.977985, -9.539098, -3.185141, -2.905945, 4.583282, -62.834824, -37.105499, -656.711670
1733469808.118084, -3.939360, 10.250176, -10.581773, -3.479213, -2.596566, 4.798276, -63.915878, -34.504440, -655.863220
1733469808.128081, -4.967220, 10.428993, -11.895591, -3.664925, -2.576124, 4.904535, -64.759186, -31.505554, -654.441895
1733469808.138074, -5.926697, 11.158775, -13.428479, -3.588143, -2.933208, 4.944338, -65.078201, -28.577621, -653.021423
1733469808.148115, -6.600664, 12.118701, -15.373169, -3.305941, -3.358811, 5.041053, -65.212753, -25.668915, -651.287964
1733469808.158082, -7.710227, 13.190255, -17.417069, -3.048665, -3.378720, 5.248674, -64.854263, -22.806870, -649.478149
1733469808.168074, -9.306561, 13.846716, -19.584570, -3.014261, -2.949513, 5.523732, -64.860779, -20.113892, -648.552673
1733469808.178078, -11.480796, 13.949517, -22.224476, -3.125713, -2.228454, 5.781062, -64.185577, -17.160187, -646.313232
1733469808.188077, -14.345757, 13.914801, -25.013721, -3.104011, -1.602945, 5.833383, -63.635910, -14.653870, -645.429993
1733469808.198087, -16.415395, 12.965051, -27.960834, -2.584240, -1.284427, 5.614980, -62.762421, -12.473038, -643.860840
1733469808.208081, -17.665617, 12.442067, -29.913754, -1.509519, -1.245795, 5.245577, -61.627869, -10.581558, -644.003235
1733469808.218089, -17.988236, 12.338668, -29.838486, -0.190705, -1.454112, 4.816334, -60.683578, -9.700104, -643.608826
1733469808.228080, -17.132009, 12.730120, -28.439076, 0.998397, -1.752136, 4.469729, -59.509628, -8.668991, -642.989624
1733469808.238080, -16.371252, 14.046781, -26.577584, 1.881702, -1.918603, 4.324803, -58.648315, -8.097107, -643.243896
1733469808.248075, -16.079758, 15.217246, -24.792557, 2.510245, -1.919852, 4.369903, -57.623016, -7.855286, -643.658325
1733469808.258090, -16.693122, 15.760431, -23.527072, 3.065777, -1.781523, 4.553156, -56.584518, -7.573532, -644.603271
1733469808.268074, -18.340931, 15.978004, -22.111350, 3.695711, -1.583476, 4.701652, -54.913940, -7.736237, -645.223511
1733469808.278071, -20.628890, 16.340277, -20.371364, 4.385287, -1.222562, 4.868843, -53.394241, -7.918732, -646.544067
1733469808.288079, -24.047511, 16.325014, -17.631350, 4.966084, -0.635327, 5.025400, -51.872269, -8.680618, -648.237427
1733469808.298089, -27.774535, 15.129858, -13.913753, 5.184194, 0.013140, 4.942829, -50.647751, -9.388443, -649.172607
1733469808.308068, -30.693516, 13.025953, -10.101286, 4.953018, 0.392984, 4.470361, -49.878738, -10.299500, -651.526245
1733469808.318070, -31.843032, 11.073482, -7.431003, 4.428918, 0.329337, 3.635747, -48.945221, -11.299713, -652.150452
1733469808.328075, -31.295957, 10.494684, -6.768558, 3.959706, -0.231781, 2.712804, -47.751541, -12.351715, -653.675049
1733469808.338067, -30.618996, 11.677569, -8.346037, 3.961686, -0.921535, 1.971872, -47.711411, -13.415405, -654.687439
1733469808.348080, -30.070574, 12.643480, -10.101586, 4.410590, -1.293190, 1.507156, -47.490402, -15.057602, -655.544312
1733469808.358072, -30.353689, 12.632556, -10.574889, 4.976832, -1.260253, 1.161038, -47.515137, -16.975342, -656.443359
1733469808.368079, -31.245529, 12.591406, -9.744401, 5.432156, -0.901509, 0.764446, -47.749603, -19.310318, -657.654846
1733469808.378066, -31.611393, 12.576592, -7.816769, 5.711795, -0.456716, 0.235273, -47.623795, -21.744614, -658.770813
1733469808.388066, -31.223981, 13.467684, -5.508459, 5.853667, -0.064516, -0.279068, -47.756332, -24.523392, -659.300720
1733469808.398067, -30.496443, 13.689895, -3.165434, 5.901567, 0.229540, -0.752322, -47.814423, -27.567825, -659.880859
1733469808.408118, -29.347525, 13.250559, -1.053299, 5.846181, 0.346027, -1.262194, -47.903381, -30.393463, -661.135986
1733469808.418082, -27.864018, 13.405285, 0.493056, 5.724872, 0.358284, -1.729075, -48.039673, -33.302658, -661.393982
1733469808.428061, -26.350733, 13.291859, 1.338508, 5.588142, 0.375998, -2.119253, -48.291473, -36.422409, -661.700134
1733469808.438060, -24.762779, 12.613552, 1.796549, 5.453681, 0.510787, -2.476780, -47.966614, -39.344818, -661.901245
1733469808.448111, -23.060501, 12.145037, 2.792687, 5.300947, 0.654575, -2.810194, -48.215546, -42.281311, -661.826660
1733469808.458089, -21.315128, 11.728595, 3.952079, 5.131074, 0.717728, -3.093852, -48.158295, -45.366379, -662.154785
1733469808.468066, -19.671808, 10.913370, 4.998046, 4.926576, 0.703418, -3.366314, -48.123901, -48.106781, -661.758057
1733469808.478060, -18.097172, 10.117896, 5.936722, 4.657415, 0.609081, -3.651211, -47.707352, -51.007278, -661.811462
1733469808.488108, -16.463728, 9.443480, 6.618621, 4.325784, 0.458890, -3.931195, -47.252899, -53.422867, -661.644592
1733469808.498064, -14.860062, 8.741978, 7.185897, 3.945453, 0.247918, -4.213091, -47.183899, -55.701416, -660.470093
1733469808.508071, -13.159879, 8.306533, 7.529615, 3.552222, -0.069024, -4.462171, -46.720917, -57.798889, -660.353333
1733469808.518061, -11.298836, 8.208969, 7.650372, 3.197219, -0.450123, -4.637844, -46.376572, -59.568634, -659.593750
1733469808.528108, -9.477597, 8.100183, 7.576750, 2.865003, -0.864602, -4.711698, -45.774460, -61.594437, -659.550049
1733469808.538056, -8.053047, 7.351396, 7.429208, 2.534434, -1.268919, -4.729300, -45.930969, -62.947983, -658.805481
1733469808.548062, -7.218368, 6.607697, 6.987627, 2.193505, -1.609821, -4.728697, -45.322937, -64.300308, -658.375122
1733469808.558063, -6.638523, 5.943755, 6.488885, 1.830778, -1.793168, -4.753317, -45.269897, -65.453369, -657.464417
1733469808.568061, -6.089353, 5.585822, 5.971588, 1.433364, -1.839837, -4.774360, -44.671844, -66.496750, -657.401245
1733469808.578105, -5.420772, 5.561581, 5.295076, 1.017070, -1.716485, -4.767632, -44.171646, -67.285599, -656.860352
1733469808.588057, -4.639215, 5.527463, 4.812345, 0.603189, -1.493806, -4.712638, -43.407761, -67.809479, -656.994263
1733469808.598068, -3.888483, 5.393687, 4.497358, 0.231315, -1.294995, -4.626219, -42.957581, -68.447983, -656.467407
1733469808.608067, -3.325845, 5.132719, 4.216488, -0.059079, -1.178459, -4.547015, -42.198639, -68.830612, -657.095703
1733469808.618061, -2.551471, 4.881179, 4.060566, -0.266376, -1.196182, -4.472741, -41.699188, -68.962769, -657.236694
1733469808.628057, -1.717840, 4.517559, 4.068497, -0.378892, -1.379754, -4.387811, -41.084930, -69.005920, -657.313599
1733469808.638056, -1.022923, 4.101118, 4.069245, -0.412397, -1.743209, -4.291939, -40.905350, -69.132935, -657.020752
1733469808.648066, -0.351948, 3.698593, 3.807529, -0.415610, -2.154469, -4.184273, -40.664276, -69.001190, -657.463196
1733469808.658058, 0.227898, 3.211522, 3.324948, -0.448528, -2.471977, -4.045777, -40.710815, -69.155792, -657.310486
1733469808.668074, 0.839617, 2.924068, 2.706346, -0.534373, -2.577354, -3.863351, -40.253326, -68.764328, -657.569702
1733469808.678059, 1.521515, 2.831592, 2.388515, -0.667906, -2.497382, -3.611304, -40.524155, -68.829453, -657.700378
1733469808.688063, 2.151190, 2.655469, 2.441487, -0.842028, -2.376846, -3.309361, -40.820557, -68.421326, -657.696777
1733469808.698073, 2.717419, 2.442385, 2.624644, -1.027976, -2.305408, -2.992783, -40.690369, -68.301804, -657.794250
1733469808.708055, 3.155857, 2.102857, 2.763358, -1.198695, -2.349889, -2.680128, -41.514359, -67.760666, -658.225342
1733469808.718058, 3.505859, 1.625214, 2.779219, -1.330946, -2.498379, -2.392249, -42.191086, -67.238831, -658.791504
1733469808.728059, 3.809923, 1.311723, 2.879177, -1.422876, -2.756115, -2.114827, -42.191086, -67.238831, -658.791504
1733469808.738056, 3.930531, 1.100435, 2.870797, -1.500879, -3.086854, -1.840163, -42.935013, -66.600647, -659.461243
1733469808.748071, 4.059967, 0.923264, 2.493860, -1.598279, -3.344927, -1.558508, -43.665665, -66.125290, -659.311035
1733469808.758074, 4.219780, 1.024569, 1.980005, -1.744742, -3.420664, -1.258060, -44.583115, -65.326996, -659.301758
1733469808.768069, 4.449474, 1.264887, 1.502960, -1.947404, -3.358788, -0.909230, -45.943741, -64.476822, -659.576172
1733469808.778064, 4.754735, 1.538723, 0.929100, -2.208147, -3.163083, -0.532583, -47.004868, -63.525757, -659.921265
1733469808.788054, 5.100398, 1.994220, 0.263063, -2.473522, -2.950336, -0.155168, -48.276169, -62.762299, -659.969299
1733469808.798111, 5.452046, 2.293795, -0.499041, -2.640376, -2.851963, 0.205177, -49.733917, -61.340179, -660.491333
1733469808.808048, 5.654805, 2.538303, -1.555782, -2.661522, -2.916857, 0.538362, -51.053543, -60.332352, -659.736816
1733469808.818047, 5.843797, 3.008165, -2.551770, -2.486335, -3.129645, 0.853715, -52.499023, -59.069763, -660.554565
1733469808.828046, 6.089053, 3.944747, -3.198055, -2.141010, -3.442801, 1.239045, -53.932953, -57.774170, -660.213989
1733469808.838111, 6.431873, 4.642507, -3.396774, -1.838672, -3.701038, 1.723315, -55.631470, -56.463379, -659.819214
1733469808.848057, 6.721272, 4.777929, -3.327940, -1.759016, -3.858294, 2.283062, -57.842239, -55.019119, -659.015625
1733469808.858067, 6.326678, 5.239561, -3.564218, -1.910789, -3.901533, 2.866901, -59.585571, -53.490692, -658.150452
1733469808.868054, 5.468207, 5.909937, -4.465186, -2.175128, -3.829792, 3.440747, -61.395630, -51.834290, -657.479370
1733469808.878070, 4.207061, 6.153248, -5.879710, -2.420227, -3.703091, 3.954348, -63.259338, -49.553207, -656.476929
1733469808.888052, 2.520645, 6.872556, -7.233631, -2.548157, -3.524705, 4.369546, -64.815186, -47.363937, -655.525879
1733469808.898060, 0.854730, 7.887099, -8.008455, -2.529034, -3.433141, 4.730471, -66.067490, -44.951508, -654.624268
1733469808.908042, -1.148020, 8.721179, -8.983494, -2.483767, -3.302241, 5.100491, -67.204498, -42.243637, -653.228271
1733469808.918110, -3.683479, 9.195829, -10.307038, -2.598090, -2.939202, 5.475454, -68.245529, -39.085205, -652.364319
1733469808.928047, -6.222530, 8.856152, -11.861324, -2.906995, -2.313640, 5.699812, -68.655426, -36.128937, -651.789795
1733469808.938045, -8.252514, 8.249521, -13.643957, -3.212298, -1.598645, 5.725178, -68.949097, -33.186417, -651.079468
1733469808.948111, -9.538499, 7.859266, -15.109058, -3.290956, -1.146535, 5.576100, -69.117889, -30.176361, -649.968750
1733469808.958069, -9.885808, 7.834726, -16.190340, -2.959562, -1.168398, 5.357119, -68.514847, -27.468506, -649.490723
1733469808.968047, -9.934590, 8.925584, -16.540791, -2.315588, -1.570441, 5.233516, -67.854004, -24.934006, -647.940247
1733469808.978057, -10.912472, 10.571747, -16.437990, -1.692557, -2.117543, 5.290974, -67.231033, -22.242844, -646.506836
1733469808.988102, -13.297695, 10.997765, -17.196204, -1.397523, -2.272016, 5.394070, -66.875732, -20.092392, -646.022766
1733469808.998043, -16.090980, 10.995072, -18.911649, -1.425274, -1.793789, 5.426197, -65.890656, -17.672852, -644.339722
1733469809.008044, -18.589180, 11.614871, -21.239113, -1.659868, -0.880328, 5.311332, -65.047272, -15.480728, -644.024719
1733469809.018057, -19.986197, 12.755558, -23.489213, -1.738059, -0.077303, 5.061151, -63.704651, -13.385635, -643.573792
1733469809.027291, -19.969587, 13.942184, -25.426871, -1.270376, 0.081703, 4.810866, -62.491745, -11.796738, -643.393494
1733469809.038068, -19.660735, 14.556297, -26.815508, -0.201306, -0.262557, 4.670339, -61.129639, -10.476440, -643.167480
1733469809.048050, -20.087801, 14.747384, -26.763883, 1.097030, -0.769922, 4.572876, -60.161972, -9.623886, -643.288879
1733469809.058084, -21.085435, 14.083592, -25.373749, 2.197150, -1.071042, 4.405048, -59.244400, -9.213013, -643.751831
1733469809.068050, -22.171504, 13.331513, -23.260417, 2.959247, -1.115125, 4.120589, -58.355392, -9.035492, -644.524597
1733469809.078074, -22.605304, 13.424738, -20.446931, 3.499299, -1.117392, 3.769993, -57.493622, -9.194382, -645.111328
1733469809.088084, -22.861035, 14.263905, -17.975367, 4.027040, -1.346105, 3.535480, -56.383911, -9.389587, -646.059082
1733469809.098052, -24.144476, 14.498537, -16.850541, 4.642023, -1.460442, 3.518262, -55.510834, -10.065491, -646.790283
1733469809.108065, -27.196036, 13.556868, -15.503204, 5.186414, -1.115495, 3.523379, -54.692932, -10.893127, -647.982117
1733469809.118132, -30.794222, 12.500875, -12.887539, 5.367507, -0.443884, 3.301636, -54.090164, -11.910049, -649.608582
1733469809.128131, -33.358262, 11.156232, -10.124929, 5.160922, 0.235578, 2.796584, -53.437561, -13.193314, -651.507935
1733469809.138114, -34.078917, 9.728090, -8.069956, 4.778599, 0.664486, 2.049749, -52.380432, -14.629974, -652.682983
1733469809.148081, -33.240497, 10.183288, -6.700024, 4.484447, 0.743375, 1.331279, -51.954971, -16.066162, -654.066833
1733469809.158094, -32.353745, 11.424681, -6.138733, 4.483020, 0.422850, 0.751565, -51.429092, -17.821426, -654.839111
1733469809.168097, -31.788115, 11.995848, -6.621913, 4.816523, 0.052408, 0.247995, -51.254364, -19.712296, -656.111206
1733469809.178091, -31.476420, 12.119000, -6.596774, 5.308998, -0.154553, -0.225072, -51.486710, -22.257751, -657.330444
1733469809.188065, -31.202732, 12.105981, -5.519982, 5.736831, -0.137363, -0.754527, -51.730377, -24.975723, -658.412109
1733469809.198056, -30.454245, 12.529905, -3.428198, 5.970757, 0.096438, -1.817224, -51.682831, -27.887390, -658.141541
1733469809.208042, -29.187862, 12.832322, -1.343895, 5.918526, 0.196440, -2.235944, -51.889450, -30.991333, -659.409302
1733469809.218045, -27.708844, 13.224373, 0.255731, 5.827413, 0.338654, -2.579142, -52.209229, -34.190369, -659.778137
1733469809.228037, -26.386347, 13.181577, 1.657386, 5.670528, 0.515840, -2.891651, -52.365952, -37.207825, -660.496094
1733469809.238039, -24.915110, 12.776956, 3.061286, 5.439576, 0.647404, -3.150588, -52.150467, -40.514267, -660.667114
1733469809.248043, -23.267151, 12.354978, 4.371214, 5.192706, 0.748912, -3.363106, -52.153976, -43.555878, -660.558594
1733469809.258039, -21.685182, 11.959337, 5.467309, 4.921822, 0.735056, -3.577879, -51.715652, -46.747086, -660.604431
1733469809.268038, -19.950882, 10.994473, 6.718279, 4.612982, 0.587371, -3.818030, -51.865570, -49.586975, -660.666016
1733469809.278038, -18.106000, 9.893889, 7.688081, 4.264466, 0.402174, -4.052367, -51.109940, -52.267883, -660.287598
1733469809.288036, -16.414198, 9.151237, 8.279598, 3.880599, 0.187269, -4.260260, -50.654877, -54.984772, -659.987061
1733469809.298031, -14.689175, 8.402301, 8.790012, 3.464448, -0.055754, -4.438911, -50.559631, -57.358948, -658.584595
1733469809.308030, -13.035081, 7.681197, 9.116671, 3.058964, -0.336712, -4.561492, -49.726685, -59.631790, -658.868164
1733469809.318033, -11.436802, 7.163302, 9.205406, 2.693122, -0.594091, -4.604860, -49.128403, -61.600235, -658.236572
1733469809.328033, -9.878326, 6.768558, 9.211541, 2.304078, -0.806712, -4.590118, -48.541183, -63.202866, -657.430054
1733469809.338026, -8.567501, 6.157587, 9.316736, 1.839742, -0.920096, -4.543843, -48.185883, -64.721603, -656.970703
1733469809.348033, -7.615507, 5.545719, 9.298181, 1.321730, -0.942803, -4.505241, -47.635376, -66.061859, -656.426025
1733469809.357711, -6.993463, 5.161600, 9.193136, 0.775733, -0.912703, -4.477073, -46.805206, -67.076035, -656.178589
1733469809.368036, -6.274155, 5.167136, 8.890569, 0.253831, -0.886822, -4.422958, -46.360168, -67.738068, -656.017029
1733469809.378036, -5.370793, 5.204545, 8.291719, -0.177055, -0.911036, -4.367358, -45.846069, -68.253769, -656.063232
1733469809.388058, -4.554669, 5.023783, 7.532009, -0.507898, -1.017921, -4.315120, -44.917648, -68.633286, -655.937866
1733469809.398034, -3.907038, 4.863970, 6.762872, -0.746258, -1.131172, -4.242741, -44.300369, -68.938995, -655.563721
1733469809.408035, -3.322553, 4.671686, 5.814319, -0.916196, -1.235108, -4.196275, -43.531570, -68.999695, -656.453613
1733469809.418031, -2.844910, 4.228160, 5.122694, -1.021805, -1.425819, -4.168765, -42.869171, -68.899521, -656.736816
1733469809.428034, -2.310704, 3.905242, 4.610634, -1.038975, -1.646346, -4.136134, -42.360077, -68.743668, -657.268555
1733469809.438031, -1.608904, 3.705476, 3.948039, -1.003650, -1.841866, -4.046530, -42.094681, -68.822342, -657.354004
1733469809.448032, -0.694767, 3.566163, 3.424008, -0.964989, -1.967432, -3.874938, -41.672867, -68.462494, -657.599548
1733469809.458041, 0.416292, 3.522619, 3.075651, -0.995725, -2.021703, -3.617454, -41.608475, -68.253708, -657.569824
1733469809.468029, 1.515380, 3.582923, 3.181894, -1.127656, -2.095373, -3.307883, -41.398270, -67.996933, -657.984009
1733469809.478031, 2.162563, 3.697545, 3.594595, -1.347734, -2.160382, -2.996174, -41.445740, -67.774109, -658.334290
1733469809.488033, 2.623147, 3.629310, 3.682581, -1.593985, -2.204798, -2.684760, -41.592941, -67.363617, -658.143066
1733469809.498027, 2.984073, 3.414431, 3.262249, -1.803131, -2.187501, -2.368250, -41.869949, -66.632263, -658.351624
1733469809.508049, 3.381810, 3.229479, 2.488623, -1.926507, -2.189363, -2.046214, -42.364502, -65.994278, -659.642334
1733469809.518030, 3.855114, 3.117400, 1.958607, -1.946240, -2.310596, -1.724097, -43.144089, -65.139130, -659.809753
1733469809.528029, 4.229806, 3.026570, 1.527351, -1.864306, -2.551574, -1.387827, -43.754456, -64.587479, -660.118225
1733469809.538028, 4.578162, 2.822614, 0.831387, -1.708471, -2.753761, -1.030220, -44.606125, -64.028625, -660.398560
1733469809.548026, 4.788852, 2.550872, -0.020800, -1.599078, -2.857304, -0.691707, -45.716736, -63.077393, -660.196655
1733469809.558027, 4.789750, 2.299481, -0.454898, -1.597785, -2.917314, -0.405268, -46.875107, -62.233765, -660.208435
1733469809.568028, 4.837784, 2.058864, -0.568473, -1.672794, -2.947430, -0.124151, -48.115936, -61.520355, -660.389954
1733469809.578027, 5.095160, 2.101361, -0.817620, -1.768293, -2.980880, 0.171462, -49.233215, -61.024078, -660.193542
1733469809.588033, 5.355380, 2.589329, -0.986261, -1.870286, -3.034038, 0.519439, -50.944855, -59.902664, -660.426880
1733469809.598043, 5.797410, 3.496283, -1.035941, -1.986302, -3.158455, 0.961655, -51.829498, -58.833923, -659.249939
1733469809.608041, 6.317251, 4.556465, -1.052252, -2.127400, -3.312924, 1.521017, -53.495316, -57.457642, -659.749817
1733469809.618079, 6.618022, 5.283704, -1.684022, -2.320396, -3.304567, 2.166094, -55.061432, -55.929581, -659.192017
1733469809.628025, 6.450578, 5.211578, -3.255665, -2.573199, -3.077609, 2.761324, -56.869446, -54.263062, -658.865173
1733469809.638026, 5.541230, 4.528034, -5.243601, -2.829818, -2.641159, 3.210065, -58.661682, -52.018661, -658.862549
1733469809.648030, 4.198083, 4.079121, -7.256376, -3.062271, -2.123441, 3.510233, -59.868927, -50.053482, -658.718018
1733469809.658028, 2.915090, 3.889381, -8.865878, -3.227146, -1.786084, 3.672796, -60.810379, -48.050812, -658.473633
1733469809.668085, 1.955464, 4.015525, -9.701604, -3.169510, -1.808686, 3.777605, -61.694550, -45.536835, -657.938599
1733469809.678032, 1.394323, 4.736479, -10.323199, -2.834798, -2.109087, 3.902212, -62.865677, -43.421906, -657.799683
1733469809.688023, 0.918775, 5.660791, -10.804284, -2.435042, -2.569178, 4.097954, -63.529770, -41.270462, -657.008423
1733469809.698037, 0.434997, 6.360197, -10.775703, -2.125358, -2.989917, 4.380075, -64.190445, -38.950073, -654.828186
1733469809.708029, -0.583886, 7.039402, -10.864737, -1.963299, -3.157257, 4.704406, -65.097626, -36.639465, -654.416138
1733469809.718017, -2.330157, 7.618649, -11.473763, -2.019420, -2.963014, 4.985864, -65.819427, -34.393921, -653.308899
1733469809.728029, -4.355202, 7.609222, -12.506412, -2.186723, -2.557695, 5.156652, -66.416779, -31.961761, -652.244324
1733469809.738020, -6.398654, 7.543082, -13.709199, -2.291790, -2.163877, 5.204002, -66.385864, -29.468719, -651.210571
1733469809.748022, -8.312070, 8.129961, -14.878317, -2.200342, -2.054745, 5.178628, -66.551025, -26.952087, -650.083923
1733469809.758023, -10.102484, 9.065944, -15.977406, -1.824592, -2.137905, 5.157088, -66.424911, -24.584320, -648.814880
1733469809.768018, -11.692233, 9.688137, -17.468245, -1.338516, -2.132979, 5.178274, -65.645538, -22.273743, -647.667175
1733469809.778017, -13.465738, 10.180594, -19.300408, -0.918552, -1.698637, 5.228601, -65.395477, -20.353882, -647.684204
1733469809.788018, -15.292963, 10.356119, -21.619641, -0.630723, -0.812726, 5.232897, -64.559296, -18.286591, -646.998169
1733469809.798022, -17.029358, 9.458593, -23.304710, -0.477093, 0.090720, 5.043583, -63.383499, -16.700760, -646.374512
1733469809.808030, -18.677167, 9.038560, -23.513604, -0.270151, 0.464485, 4.710607, -62.416779, -15.358612, -647.007568
1733469809.818022, -19.037345, 9.810690, -23.151032, 0.219147, 0.135655, 4.410744, -61.401520, -14.459671, -646.473450
1733469809.828031, -18.236185, 11.230901, -23.163003, 1.054022, -0.609154, 4.276162, -60.363586, -13.539047, -647.029785
1733469809.838026, -17.510592, 12.522872, -23.724294, 2.081477, -1.223981, 4.259214, -59.516037, -13.040283, -647.014099
1733469809.848040, -18.271350, 12.651111, -24.054843, 2.938796, -1.460947, 4.124220, -58.881638, -12.659973, -647.462646
1733469809.858029, -20.090195, 12.034155, -23.005136, 3.578529, -1.324260, 3.981070, -58.055328, -12.872513, -648.075684
1733469809.868030, -21.684584, 12.039093, -21.650616, 4.176019, -0.842153, 3.853501, -57.095444, -13.351212, -648.666992
1733469809.878027, -23.288250, 12.301109, -20.037373, 4.643013, -0.324007, 3.698000, -56.142380, -14.174576, -650.148315
1733469809.888030, -24.633492, 12.452542, -17.210868, 4.956472, 0.106704, 3.502428, -55.561737, -14.950897, -651.566467
1733469809.898026, -26.402208, 12.701090, -14.157812, 5.037051, 0.449236, 3.117717, -54.669617, -16.368515, -652.252930
1733469809.908021, -27.798627, 11.877485, -10.926089, 4.805144, 0.597754, 2.656094, -53.698135, -17.339081, -654.051331
1733469809.918026, -27.817481, 11.351958, -7.836671, 4.481158, 0.528603, 2.284118, -53.167801, -18.652817, -655.275879
1733469809.928016, -27.606642, 11.546935, -6.178986, 4.283514, 0.244685, 1.881888, -52.304306, -19.993164, -656.051880
1733469809.938019, -28.022335, 11.604396, -5.790526, 4.385347, -0.180970, 1.484502, -51.990936, -21.608185, -657.266113
1733469809.948018, -28.724584, 11.836185, -6.827216, 4.776150, -0.454030, 1.022107, -51.616638, -23.406433, -657.980469
1733469809.958016, -29.518860, 11.520898, -8.292168, 5.221911, -0.400219, 0.541699, -51.480148, -25.679535, -658.982178
1733469809.968028, -30.126090, 11.491719, -8.539519, 5.502160, -0.224152, 0.038597, -51.220612, -28.082535, -659.449463
1733469809.978027, -30.555101, 11.585392, -6.971616, 5.580882, 0.026959, -0.479523, -51.168869, -30.804993, -660.137756
1733469809.988021, -30.494049, 11.690587, -5.029918, 5.501326, 0.168827, -0.989200, -50.622345, -33.594528, -660.157593
1733469809.998034, -29.890860, 11.903372, -2.850896, 5.369390, 0.217751, -1.373916, -50.485336, -36.386719, -659.973328
1733469810.008031, -29.262531, 12.625074, -1.299453, 5.195753, 0.303543, -1.661595, -50.549179, -38.888077, -660.268250
1733469810.018018, -29.305028, 12.902053, -0.370353, 4.983177, 0.533740, -1.994454, -50.368912, -41.641541, -660.490967
1733469810.028014, -29.493272, 11.856386, 0.013467, 4.776625, 0.880103, -2.443006, -50.402954, -44.484436, -660.782043
1733469810.038016, -29.039422, 10.860398, 0.590470, 4.578837, 1.116634, -2.949448, -49.985962, -46.833542, -660.428528
1733469810.048017, -27.435606, 10.562170, 1.779341, 4.428376, 1.131731, -3.400971, -49.675430, -49.635468, -660.264709
1733469810.058010, -25.023298, 10.673201, 3.073107, 4.311273, 0.961212, -3.783206, -49.494003, -52.483536, -660.281372
1733469810.068008, -22.598570, 10.633248, 4.342483, 4.169660, 0.686287, -4.133253, -48.901642, -54.812546, -659.588318
1733469810.078022, -20.255545, 10.177452, 5.421221, 3.954885, 0.381047, -4.436210, -48.221558, -57.471634, -659.062805
1733469810.088008, -18.010382, 9.686042, 6.332813, 3.661210, 0.136866, -4.692075, -47.558365, -59.616699, -658.389832
1733469810.098036, -15.982194, 9.214833, 7.014861, 3.304421, -0.086504, -4.892713, -46.882706, -61.733337, -657.177734
1733469810.108011, -14.076110, 8.813804, 7.721749, 2.891157, -0.331516, -5.021746, -46.206085, -63.531281, -657.569092
1733469810.118002, -12.075306, 8.574085, 8.344990, 2.452564, -0.637373, -5.077458, -45.770966, -65.196747, -657.247803
1733469810.128016, -10.122535, 8.249970, 8.680028, 2.015291, -0.942184, -5.078521, -44.857147, -66.586197, -656.523621
1733469810.138056, -8.480412, 7.856573, 8.693346, 1.576608, -1.194536, -5.040561, -44.362686, -67.642548, -656.017883
1733469810.148007, -7.113472, 7.468413, 8.279898, 1.149979, -1.302397, -4.977339, -43.464951, -68.498032, -655.553955
1733469810.157958, -5.894973, 6.971167, 7.579893, 0.757229, -1.310825, -4.886759, -42.913437, -69.337723, -655.763000
1733469810.167020, -4.748151, 6.455067, 7.001543, 0.406484, -1.246777, -4.775397, -42.913437, -69.337723, -655.763000
1733469810.178028, -3.665523, 6.153547, 6.761525, 0.017131, -1.152427, -4.664426, -41.357224, -70.041443, -655.985474
1733469810.188006, -2.723404, 5.960664, 6.799982, -0.400155, -1.083992, -4.556744, -40.694138, -70.063812, -655.674194
1733469810.198008, -1.851017, 5.843797, 6.703465, -0.776538, -1.051672, -4.445724, -39.992752, -69.974075, -655.237000
1733469810.208011, -0.998083, 5.814768, 6.175694, -1.046798, -1.063148, -4.307277, -39.300110, -69.778778, -656.267883
1733469810.218007, 0.027234, 5.890185, 5.495291, -1.199414, -1.188733, -4.134026, -38.660492, -69.451752, -656.419128
1733469810.228003, 0.970549, 5.812523, 4.901080, -1.254174, -1.373390, -3.940050, -38.660492, -69.451752, -656.419128
1733469810.238052, 1.819444, 5.719000, 4.165013, -1.223597, -1.593014, -3.710593, -38.130768, -69.161774, -657.539612
1733469810.248003, 2.766051, 5.490054, 3.455132, -1.137375, -1.795159, -3.417387, -37.933624, -68.675629, -657.469666
1733469810.258004, 3.762638, 5.150227, 2.693776, -1.037306, -1.906064, -3.065330, -37.709457, -68.381714, -657.900452
1733469810.268026, 4.597915, 4.864419, 2.102857, -0.954705, -1.930421, -2.666238, -37.785797, -67.816360, -658.082092
1733469810.277582, 5.244648, 4.560805, 1.793107, -0.906450, -1.867385, -2.248482, -37.837051, -67.513138, -658.593506
1733469810.288008, 5.686977, 4.247463, 1.683573, -0.914023, -1.754840, -1.813892, -37.989685, -67.051086, -658.568970
1733469810.298015, 5.952883, 3.881749, 1.917456, -1.016348, -1.573260, -1.404837, -38.379684, -66.718430, -658.941406
1733469810.308010, 5.916072, 3.432088, 2.302474, -1.227293, -1.367206, -1.047585, -38.769211, -66.148392, -658.284668
1733469810.318070, 5.783793, 2.914492, 2.954894, -1.523366, -1.255332, -0.749898, -39.260696, -65.737061, -659.427246
1733469810.328001, 5.661090, 2.508076, 3.684078, -1.854233, -1.324145, -0.512835, -39.851791, -64.733566, -659.957397
1733469810.337999, 5.614852, 2.214637, 4.238186, -2.151081, -1.607066, -0.305234, -40.243881, -64.101990, -660.411255
1733469810.348000, 5.767033, 1.969680, 4.560655, -2.419424, -2.035793, -0.120276, -41.050705, -62.955109, -661.012024
1733469810.358012, 5.896769, 1.775450, 4.540603, -2.683378, -2.444652, 0.061227, -42.070786, -61.729538, -661.202759
1733469810.368070, 5.595997, 2.087744, 2.850596, -2.936899, -2.743243, 0.262306, -43.302795, -60.447159, -661.686035
1733469810.378010, 5.433192, 2.733580, 1.714099, -3.171574, -2.863508, 0.491792, -44.575562, -58.908737, -662.209473
1733469810.387995, 5.595997, 3.554043, 0.767342, -3.391924, -2.873260, 0.782745, -45.804703, -57.153687, -662.256714
1733469810.398003, 5.626374, 4.764611, -0.173580, -3.596762, -2.818600, 1.148597, -47.205261, -55.496506, -662.435608
1733469810.407999, 5.708375, 5.595100, -1.274015, -3.813732, -2.738854, 1.571260, -48.677338, -53.381851, -662.159058
1733469810.418008, 6.076933, 5.661090, -2.508375, -4.003212, -2.750042, 2.019188, -50.129852, -51.336670, -662.744812
1733469810.428000, 5.981314, 6.079477, -3.894019, -4.040639, -2.891256, 2.479511, -51.933289, -49.121368, -662.928040
1733469810.437998, 5.097555, 7.086538, -4.933701, -3.919429, -3.172220, 2.900529, -53.359131, -46.862839, -662.271667
1733469810.448010, 3.786131, 7.911041, -5.622034, -3.737879, -3.587827, 3.256387, -54.863739, -44.521606, -661.811157
1733469810.458006, 2.115726, 9.160066, -6.630143, -3.607091, -3.958913, 3.576525, -56.495895, -41.944199, -660.722778
1733469810.468001, 0.483778, 10.562619, -8.390031, -3.673210, -3.972563, 3.923226, -58.026291, -39.301697, -659.404175
1733469810.478004, -0.795025, 11.359290, -10.762086, -3.941515, -3.687712, 4.281240, -59.330780, -36.617996, -658.764221
1733469810.488002, -1.912817, 11.940333, -14.034660, -4.180206, -3.184353, 4.652307, -60.300705, -33.517090, -657.525208
1733469810.498005, -3.236063, 12.861801, -17.158196, -4.187886, -2.606730, 4.993106, -60.722504, -30.617111, -656.574402
1733469810.508005, -4.402638, 13.847464, -19.492243, -3.951785, -2.157751, 5.257012, -61.236069, -27.661346, -655.257812
1733469810.517995, -5.347749, 14.594006, -21.217864, -3.450897, -1.980727, 5.477631, -61.068512, -24.823517, -654.239136
1733469810.528002, -7.210288, 15.286379, -22.240038, -2.727284, -1.961857, 5.709466, -60.392014, -22.052505, -653.221008
1733469810.538002, -10.346842, 15.313015, -22.267422, -2.141508, -1.911280, 5.823219, -59.803528, -19.698135, -652.206665
1733469810.548005, -13.415460, 14.828488, -22.471079, -1.863427, -1.767845, 5.753839, -59.497009, -17.444641, -650.536255
1733469810.557995, -16.153978, 14.995184, -23.094320, -1.779649, -1.606458, 5.475646, -58.568176, -15.487778, -649.857239
1733469810.568009, -17.802086, 16.034268, -24.104074, -1.614701, -1.773614, 5.067319, -57.716614, -13.664551, -649.276001
1733469810.578002, -18.401984, 17.131860, -26.001329, -1.072942, -2.304871, 4.731505, -56.965057, -12.062180, -648.636108
1733469810.588004, -19.413085, 17.397017, -28.274923, -0.053308, -2.966779, 4.562049, -56.380188, -10.867249, -647.435791
1733469810.598007, -21.505318, 16.501287, -30.445566, 1.245519, -3.179068, 4.512310, -55.374466, -9.940048, -646.869629
1733469810.608009, -24.690055, 15.315409, -30.785692, 2.493702, -2.749202, 4.488910, -54.656082, -9.748810, -647.018799
1733469810.617992, -28.105833, 13.740772, -29.167811, 3.439256, -1.671474, 4.379763, -53.740631, -9.579758, -647.586548
1733469810.627992, -30.789433, 12.089970, -25.417892, 3.952718, -0.423458, 4.078993, -53.199249, -10.152145, -648.464233
1733469810.637992, -32.430060, 11.307066, -21.192126, 4.183820, 0.428801, 3.579432, -52.213287, -10.820557, -650.178589
1733469810.647988, -32.596307, 10.681880, -17.853263, 4.377147, 0.696402, 2.988987, -51.100082, -11.899445, -652.120361
1733469810.657992, -31.999104, 10.883592, -15.226374, 4.658512, 0.522286, 2.463931, -49.664749, -13.381073, -653.482605
1733469810.668001, -31.900642, 11.287164, -13.251008, 4.985995, 0.216915, 2.098663, -48.959030, -14.662231, -654.980713
1733469810.678005, -32.709733, 10.801142, -11.852196, 5.207139, 0.101490, 1.733350, -48.195663, -16.552628, -656.348511
1733469810.687992, -34.075176, 10.493936, -10.634296, 5.283970, 0.156111, 1.216671, -48.163406, -18.548874, -657.550903
1733469810.697992, -34.346319, 10.616938, -9.740959, 5.326838, 0.245677, 0.505863, -47.877670, -20.916336, -658.094238
1733469810.708004, -32.882564, 11.773187, -8.706963, 5.429052, 0.224630, -0.193060, -47.289764, -23.187408, -659.731812
1733469810.717999, -31.199590, 13.787758, -7.470358, 5.653742, 0.081505, -0.627090, -47.168961, -26.001404, -660.925476
1733469810.728004, -30.492702, 14.159458, -6.242881, 5.896508, 0.023307, -0.947515, -46.846970, -28.830109, -660.906860
1733469810.737989, -30.414292, 13.678972, -4.548385, 6.032420, 0.105095, -1.291086, -46.902802, -31.820267, -661.241638
1733469810.747991, -30.257172, 13.135488, -2.847454, 6.044601, 0.266918, -1.697390, -47.188522, -34.952744, -661.893127
1733469810.758050, -29.370719, 12.413786, -1.029656, 5.949737, 0.452090, -2.179804, -47.585327, -38.149948, -661.771851
1733469810.767988, -27.569082, 12.013805, 0.932990, 5.748905, 0.478763, -2.681069, -47.613068, -41.503723, -662.173645
1733469810.777988, -25.256433, 11.783662, 2.388216, 5.515513, 0.390978, -3.122252, -47.504074, -44.722458, -662.251221
1733469810.787988, -22.815694, 11.486033, 3.658190, 5.261117, 0.205336, -3.474072, -47.557892, -47.560394, -661.722778
1733469810.797989, -20.516213, 11.049690, 4.660613, 4.948421, -0.008698, -3.746794, -47.537994, -50.465149, -660.654175
1733469810.807997, -18.500595, 10.422858, 5.415086, 4.577957, -0.222482, -3.971447, -47.691162, -53.266953, -660.876465
1733469810.817997, -16.626683, 9.630826, 5.780650, 4.174381, -0.406599, -4.185292, -47.508041, -55.758987, -659.911377
1733469810.827985, -14.735713, 8.855853, 5.911583, 3.774887, -0.606400, -4.390901, -47.473999, -58.056366, -659.376221
1733469810.837997, -13.046454, 8.412925, 5.935974, 3.396039, -0.800882, -4.558918, -47.194565, -60.220932, -658.675781
1733469810.848007, -11.561450, 7.983316, 6.033239, 3.035181, -0.991636, -4.684714, -47.069321, -62.139374, -657.832520
1733469810.857985, -10.394427, 7.595455, 6.174945, 2.671175, -1.146497, -4.792021, -46.649139, -63.910995, -657.550415
1733469810.867995, -9.350106, 7.377433, 6.396559, 2.291701, -1.273617, -4.893547, -45.952118, -65.366699, -656.922241
1733469810.878042, -8.099584, 7.082049, 6.458958, 1.893894, -1.376548, -4.966500, -45.678818, -66.689850, -656.333069
1733469810.887984, -6.771850, 6.926425, 6.353313, 1.482837, -1.367388, -4.978706, -44.749756, -67.710068, -655.765564
1733469810.897981, -5.563975, 7.020099, 6.453421, 1.054096, -1.280631, -4.932056, -44.487183, -68.876358, -654.973999
1733469810.907979, -4.415955, 7.151480, 6.624307, 0.629912, -1.210477, -4.840609, -43.447479, -69.395187, -655.677551
1733469810.917993, -3.427300, 7.299771, 6.637176, 0.239067, -1.179345, -4.725978, -42.690216, -69.875641, -655.289856
1733469810.927987, -2.509572, 7.286154, 6.496367, -0.101314, -1.200099, -4.604679, -42.194000, -70.306427, -655.320496
1733469810.937981, -1.749114, 7.070078, 6.165369, -0.393425, -1.235112, -4.498823, -41.199142, -70.224564, -655.018433
1733469810.947991, -0.885256, 6.940940, 5.682937, -0.643781, -1.207776, -4.385419, -40.276840, -70.470718, -655.614624
1733469810.957993, 0.237026, 7.052271, 5.401469, -0.889079, -1.110448, -4.237088, -39.570694, -70.174744, -656.484619
1733469810.967994, 1.458518, 7.005284, 5.215319, -1.127431, -1.017699, -4.021225, -38.675522, -69.958191, -656.553467
1733469810.977988, 2.587833, 6.715436, 5.031564, -1.318651, -0.939379, -3.739167, -38.130783, -69.533997, -657.042236
1733469810.987985, 3.513790, 6.374412, 5.142745, -1.451191, -0.943083, -3.415782, -37.964935, -68.878067, -657.215820
1733469810.997976, 4.147206, 5.681740, 5.308244, -1.560506, -1.043258, -3.084265, -37.743042, -68.365570, -657.285645
1733469811.007972, 4.506187, 4.711190, 5.304503, -1.668432, -1.214169, -2.778679, -37.443298, -67.723923, -658.279724
1733469811.018000, 4.722712, 4.018069, 5.246145, -1.783572, -1.411173, -2.492362, -37.562439, -66.823212, -658.965637
1733469811.027985, 4.846612, 3.451840, 5.129577, -1.913131, -1.580340, -2.202959, -37.503571, -66.211487, -659.435913
1733469811.037977, 4.847809, 2.749142, 5.143044, -2.092630, -1.702032, -1.942475, -37.970398, -65.075348, -660.261108
1733469811.047987, 4.714931, 2.369362, 5.021239, -2.324890, -1.773599, -1.709691, -38.113235, -64.184357, -660.670532
1733469811.057978, 4.675577, 2.383278, 4.676774, -2.575760, -1.793360, -1.486068, -38.366592, -62.970993, -661.729126
1733469811.067980, 4.779874, 2.504036, 4.435707, -2.816565, -1.806362, -1.258752, -39.209869, -61.617630, -661.845825
1733469811.077638, 4.932654, 2.669236, 4.295796, -3.030818, -1.893649, -1.024691, -39.916550, -60.187866, -662.622498
1733469811.087976, 5.073912, 2.814983, 3.901501, -3.224249, -2.045183, -0.775594, -40.645935, -58.633270, -663.127686
1733469811.097295, 5.282806, 3.091812, 3.260603, -3.370740, -2.225034, -0.520274, -41.691574, -56.997238, -663.089966
1733469811.107985, 5.691616, 3.425354, 2.782661, -3.454891, -2.460813, -0.229342, -43.030136, -55.100418, -664.013855
1733469811.117988, 5.906795, 3.895516, 2.423381, -3.507279, -2.768947, 0.091522, -44.193985, -53.414871, -664.186279
1733469811.127978, 5.909039, 4.678270, 1.740136, -3.564488, -3.076391, 0.444036, -45.933914, -51.520966, -663.903809
1733469811.137975, 5.884948, 5.756259, 0.795623, -3.604461, -3.282331, 0.824341, -47.435852, -49.501266, -664.146851
1733469811.147991, 5.735310, 7.381773, 0.062848, -3.642181, -3.406350, 1.260637, -48.891083, -47.361969, -663.484985
1733469811.158040, 5.680094, 9.270798, -0.694468, -3.723098, -3.479876, 1.762738, -50.469238, -45.222595, -662.929565
1733469811.167982, 5.868338, 10.388890, -1.725770, -3.941127, -3.523456, 2.369333, -52.243759, -42.720062, -662.753540
1733469811.177975, 5.321712, 10.950181, -3.350984, -4.207568, -3.667046, 2.987176, -54.124557, -40.355408, -662.119141
1733469811.188046, 3.877859, 11.666645, -5.727080, -4.319141, -3.915903, 3.473798, -56.161835, -37.689667, -661.100098
1733469811.197970, 2.672378, 12.061838, -8.245631, -4.156262, -4.308622, 3.823924, -57.946640, -35.104156, -659.496460
1733469811.207973, 1.774552, 12.362011, -10.964396, -3.719067, -4.793624, 4.125649, -58.965897, -32.579498, -658.254578
1733469811.218021, 1.379659, 13.182325, -14.806491, -3.057180, -4.807217, 4.511888, -59.704681, -29.866837, -656.448608
1733469811.227968, 1.595735, 15.480309, -17.565060, -2.523581, -4.066364, 5.221171, -59.644897, -27.183395, -655.192017
1733469811.237962, 0.481833, 18.054375, -19.432089, -2.457704, -2.839846, 6.167341, -59.245865, -24.527435, -653.959961
1733469811.247977, -2.632724, 19.437775, -21.762994, -2.659968, -1.363935, 7.092434, -58.576340, -21.452942, -654.079773
1733469811.257973, -7.548768, 19.478177, -23.093272, -2.952142, -0.257718, 7.639448, -57.228027, -18.498154, -652.902649
1733469811.267980, -12.467207, 18.729690, -24.320001, -3.061354, -0.084241, 7.606142, -56.383896, -15.941772, -652.342041
1733469811.277977, -15.892561, 17.438617, -26.232968, -2.653561, -0.815107, 7.141679, -55.201843, -13.735092, -651.686279
1733469811.287971, -18.015170, 15.479262, -28.101792, -1.778111, -2.004456, 6.500236, -53.916000, -11.946045, -651.030273
1733469811.297969, -19.628114, 13.699921, -29.653085, -0.705257, -3.054121, 5.863483, -53.354706, -10.509338, -649.101746
1733469811.307972, -20.710892, 12.101193, -30.713866, 0.182516, -3.437842, 5.326402, -52.757629, -9.614853, -649.071411
1733469811.318029, -21.164443, 11.128399, -31.426740, 0.815670, -3.133492, 4.951832, -52.057343, -9.173843, -648.939880
1733469811.327972, -21.554998, 11.393108, -31.392024, 1.316957, -2.318439, 4.725074, -51.434647, -8.713898, -648.905579
1733469811.337976, -22.447436, 11.996896, -30.138809, 1.748643, -1.436141, 4.645563, -50.241791, -8.653656, -649.369141
1733469811.347988, -23.986758, 11.635521, -28.454339, 2.192844, -0.790058, 4.476070, -49.041992, -9.100800, -650.258911
1733469811.357981, -25.777322, 11.361983, -26.763733, 2.754957, -0.437462, 4.218265, -48.395737, -9.453384, -651.556396
1733469811.367973, -27.737126, 10.529699, -24.549845, 3.362437, -0.238083, 3.811002, -47.560989, -10.437424, -652.695679
1733469811.377969, -28.702288, 9.150339, -21.831977, 3.796432, -0.105794, 3.163676, -46.911469, -11.537415, -653.983887
1733469811.388014, -28.408849, 8.908675, -19.208680, 4.012576, 0.002270, 2.460766, -46.461227, -12.914215, -655.728638
1733469811.397980, -27.175685, 9.360131, -16.913538, 4.062009, 0.021706, 1.754445, -45.658356, -14.427673, -655.981079
1733469811.407971, -24.809765, 11.213243, -15.336059, 4.078225, -0.073866, 1.232219, -45.008453, -16.038071, -656.957703
1733469811.417987, -23.231537, 14.101399, -14.573655, 4.248684, -0.214006, 1.117512, -44.754272, -17.840958, -658.175110
1733469811.427964, -23.620745, 14.854974, -14.273033, 4.605903, -0.311299, 1.157948, -44.635880, -19.756546, -659.305176
1733469811.437965, -25.665543, 14.098406, -13.593978, 5.026612, -0.279212, 1.055087, -44.646622, -22.141235, -660.128662
1733469811.447964, -27.853394, 13.416508, -11.898135, 5.372846, -0.118739, 0.642952, -44.195389, -24.761154, -661.313110
1733469811.457976, -28.501175, 13.047800, -9.267655, 5.575196, 0.021166, 0.022674, -44.283997, -27.557281, -662.222412
1733469811.467977, -27.807006, 13.189358, -6.430676, 5.607999, 0.028231, -0.621806, -43.968018, -30.213959, -662.210388
1733469811.477986, -27.032332, 13.779828, -4.035427, 5.543083, -0.077925, -1.177139, -44.383484, -33.083221, -662.682800
1733469811.487976, -26.685024, 14.072519, -2.207005, 5.436940, -0.208431, -1.650521, -44.363403, -35.882065, -662.982544
1733469811.497978, -26.432136, 14.062493, -0.985513, 5.294294, -0.282860, -2.074229, -44.734787, -38.884766, -662.378418
1733469811.507975, -26.005070, 13.625701, -0.247201, 5.139875, -0.214277, -2.468332, -45.268448, -41.452362, -663.163574
1733469811.517980, -25.131486, 12.467207, 0.669030, 4.992303, -0.049933, -2.883512, -45.167084, -44.195145, -662.721191
1733469811.527961, -23.609372, 11.770344, 1.846378, 4.834584, 0.100792, -3.271833, -45.076431, -46.830139, -662.673889
1733469811.537969, -21.791575, 11.494413, 3.210924, 4.684711, 0.175321, -3.574511, -45.147629, -49.479431, -662.277039
1733469811.547989, -20.052935, 10.796652, 4.889109, 4.495128, 0.121831, -3.834792, -45.313858, -52.022369, -662.101257
1733469811.557961, -18.315942, 9.993547, 6.321889, 4.238076, -0.128287, -4.065120, -45.192261, -54.475418, -661.562927
1733469811.567965, -16.842460, 9.089287, 7.242610, 3.528343, -0.868318, -4.544716, -45.215790, -56.427063, -660.911865
1733469811.577960, -15.531037, 8.232013, 7.873033, 3.126779, -1.275343, -4.764108, -45.140732, -58.701706, -660.203125
1733469811.587965, -14.288296, 7.664139, 8.202236, 2.695904, -1.607327, -4.963235, -44.918015, -60.303909, -659.864624
1733469811.597977, -12.983756, 7.365163, 8.186973, 2.238553, -1.845617, -5.099979, -44.878387, -61.873428, -658.321411
1733469811.607961, -11.422437, 7.114670, 8.027758, 1.763588, -1.968267, -5.166810, -44.881012, -63.277924, -658.193420
1733469811.617976, -9.726145, 7.102699, 7.598298, 1.283826, -1.977060, -5.125650, -44.468063, -64.301987, -658.118225
1733469811.627957, -7.887997, 7.195025, 7.052720, 0.811152, -1.906803, -5.028826, -44.320450, -65.241348, -657.691040
1733469811.637982, -6.373664, 7.003489, 6.545298, 0.371784, -1.794690, -4.920464, -43.905960, -65.970398, -657.755737
1733469811.647961, -5.187636, 6.733094, 6.092196, -0.010220, -1.771259, -4.817962, -43.820129, -66.282150, -657.574097
1733469811.657963, -4.166659, 6.594080, 5.860407, -0.319834, -1.870385, -4.731690, -43.536697, -66.713486, -657.843628
1733469811.667958, -3.298761, 6.436662, 5.423914, -0.548041, -2.023401, -4.651408, -43.315414, -66.855820, -657.611816
1733469811.677954, -2.448670, 6.158635, 4.653580, -0.704855, -2.167867, -4.557711, -43.271378, -66.873062, -657.531738
1733469811.687962, -1.653944, 6.032939, 3.784485, -0.806844, -2.293990, -4.447994, -43.190933, -66.932190, -657.735352
1733469811.697956, -0.845153, 6.029348, 3.129371, -0.864485, -2.427965, -4.292150, -43.032593, -66.936844, -657.374878
1733469811.707961, 0.032322, 6.106262, 2.536058, -0.897955, -2.519218, -4.053562, -42.756271, -66.830460, -657.965576
1733469811.717963, 1.053748, 6.155193, 1.860744, -0.916534, -2.544757, -3.748192, -42.756271, -66.830460, -657.965576
1733469811.727990, 1.987337, 6.114192, 1.420809, -0.928130, -2.558635, -3.383164, -42.685684, -66.780975, -658.123779
1733469811.737954, 2.808548, 5.986552, 1.162385, -0.942499, -2.503743, -2.975193, -43.128876, -66.481461, -658.371460
1733469811.747965, 3.576788, 5.589264, 0.833481, -0.988017, -2.365661, -2.526735, -43.167709, -66.266647, -658.780579
1733469811.757954, 4.178331, 5.225644, 0.757615, -1.104465, -2.134226, -2.047625, -43.489716, -65.901321, -658.182983
1733469811.767959, 4.652682, 5.016750, 1.044620, -1.330350, -1.874586, -1.584108, -43.909180, -65.782410, -658.549011
1733469811.777645, 4.816535, 4.655076, 1.828721, -1.649018, -1.736864, -1.157400, -44.559952, -65.080566, -658.673218
1733469811.787976, 4.815488, 4.116231, 2.655319, -1.999894, -1.686767, -0.783288, -45.072495, -64.604736, -659.219543
1733469811.797958, 4.648791, 3.676746, 2.987515, -2.322084, -1.739439, -0.479890, -45.525772, -63.753555, -659.297058
1733469811.807951, 4.288763, 3.414580, 3.006968, -2.564438, -1.879116, -0.239052, -46.128448, -62.920563, -659.694580
1733469811.817950, 4.078074, 3.195062, 2.678663, -2.741281, -2.046438, -0.019861, -46.985199, -61.604965, -660.350037
1733469811.827959, 4.002656, 3.236661, 2.292747, -2.905483, -2.223371, 0.184395, -47.990799, -60.400482, -660.940552
1733469811.837952, 4.056077, 3.496582, 1.824681, -3.030363, -2.412620, 0.422084, -48.851913, -58.783493, -661.245361
1733469811.847965, 4.377947, 3.707571, 0.966509, -3.088086, -2.563723, 0.717855, -50.073441, -57.517807, -661.329407
1733469811.857963, 4.713285, 4.079720, -0.115969, -3.087015, -2.670495, 1.034170, -51.176788, -55.867935, -661.526123
1733469811.867961, 4.922179, 4.324826, -1.087716, -3.057127, -2.745892, 1.363227, -52.410461, -54.308060, -661.761536
1733469811.877951, 5.087080, 4.692037, -1.832761, -3.016708, -2.801421, 1.706825, -53.893082, -52.647598, -661.333618
1733469811.887205, 5.173870, 5.085883, -2.401833, -2.995729, -2.885351, 2.069901, -55.613831, -50.800018, -660.988159
1733469811.897957, 4.900183, 6.049399, -2.677316, -3.045291, -2.931185, 2.482805, -56.793060, -48.969330, -660.623962
1733469811.907956, 4.445733, 7.080103, -3.321207, -3.251045, -3.026331, 2.911206, -57.842697, -47.213562, -659.373169
1733469811.917951, 3.962254, 7.469161, -4.288165, -3.492609, -3.230870, 3.315699, -59.373016, -44.890854, -659.582947
1733469811.927947, 2.776226, 7.953089, -6.001964, -3.560550, -3.475665, 3.615514, -60.850967, -42.426788, -658.597412
1733469811.937945, 0.884508, 9.095422, -8.108413, -3.463409, -3.862639, 3.847334, -62.425827, -39.695969, -657.180664
1733469811.947947, -0.689829, 9.775525, -9.699509, -3.232523, -4.410859, 4.015979, -63.649048, -37.513580, -655.957336
1733469811.957945, -2.147150, 10.080636, -11.545738, -2.820466, -4.802844, 4.229911, -65.215607, -34.869202, -654.324890
1733469811.967959, -3.317466, 10.558280, -14.383017, -2.380495, -4.610811, 4.675000, -65.867340, -32.427551, -652.418945
1733469811.977962, -4.210204, 10.990283, -17.448044, -2.201610, -3.814677, 5.211276, -66.722687, -29.993011, -650.978577
1733469811.987956, -5.843648, 10.722731, -19.952678, -2.194358, -2.466243, 5.646105, -67.284164, -27.049011, -649.236389
1733469811.997947, -8.071752, 10.100538, -22.261586, -2.252661, -0.937425, 5.911280, -66.903732, -24.441452, -648.599792
1733469812.007943, -9.897330, 9.684995, -23.201759, -2.310682, 0.149690, 6.002217, -66.252457, -21.916504, -648.196655
1733469812.017949, -11.407024, 9.810391, -22.533029, -2.233962, 0.440463, 5.932053, -65.218033, -19.457916, -648.340759
1733469812.027960, -13.050494, 10.338911, -21.732767, -1.969586, 0.104609, 5.709765, -63.695328, -16.831787, -647.616943
1733469812.037938, -14.875474, 10.719888, -21.805042, -1.532687, -0.488127, 5.420527, -62.643250, -14.748856, -647.204590
1733469812.047951, -16.190789, 11.087698, -22.701671, -1.006791, -1.042739, 5.195630, -61.080185, -12.768860, -646.098999
1733469812.057953, -17.030555, 11.443087, -23.933038, -0.424896, -1.383684, 5.059812, -59.950302, -11.063202, -645.346619
1733469812.067968, -18.457499, 11.817480, -25.097369, 0.193797, -1.484393, 4.856628, -58.591782, -9.646027, -645.220764
1733469812.077952, -20.125958, 11.687744, -26.272473, 0.981968, -1.525119, 4.545910, -57.972580, -8.702942, -644.833862
1733469812.088010, -21.566819, 12.121843, -27.209653, 1.962176, -1.535538, 4.242795, -56.775055, -8.087646, -644.905212
1733469812.097946, -22.440104, 13.339145, -27.585393, 3.037686, -1.431223, 4.091478, -55.483719, -7.759018, -645.127197
1733469812.107950, -23.384916, 14.518738, -26.698341, 4.032063, -1.150823, 4.000642, -54.413177, -7.904144, -645.805847
1733469812.117954, -25.318234, 14.694712, -24.462157, 4.696549, -0.654280, 3.830152, -53.438644, -8.343506, -647.383301
1733469812.128006, -27.791893, 14.199411, -21.194221, 4.978476, -0.098516, 3.495554, -52.375931, -9.286789, -648.704224
1733469812.137958, -29.803621, 13.262979, -17.625514, 4.977710, 0.333063, 3.002811, -52.025650, -10.200180, -650.380859
1733469812.147957, -30.518140, 12.065430, -14.800356, 4.869586, 0.538074, 2.490265, -51.002319, -11.659332, -652.036438
1733469812.157954, -30.159459, 11.557560, -12.710068, 4.798739, 0.499634, 2.022358, -50.176224, -12.960342, -653.391541
1733469812.167937, -29.572580, 11.618462, -11.363929, 4.859571, 0.399902, 1.624960, -49.316132, -14.460571, -655.005554
1733469812.178002, -28.992585, 12.160898, -11.118224, 5.059043, 0.393454, 1.320401, -48.319107, -16.348602, -656.646790
1733469812.187936, -28.756008, 12.680291, -11.044752, 5.316219, 0.508264, 0.940579, -47.909958, -18.302383, -658.279602
1733469812.197935, -29.111846, 12.790125, -10.488249, 5.569959, 0.541702, 0.422000, -47.461884, -20.845856, -659.108398
1733469812.207933, -29.061418, 13.061268, -8.890120, 5.782073, 0.343212, -0.097438, -46.760132, -23.333344, -660.331299
1733469812.218001, -28.509704, 14.015657, -6.546047, 5.879345, 0.040900, -0.577891, -46.442093, -25.928940, -660.804749
1733469812.227936, -28.459725, 14.989348, -4.472967, 5.833875, -0.132402, -1.032513, -46.393311, -28.741974, -661.085205
1733469812.237938, -28.609812, 14.934581, -3.380014, 5.713778, 0.029194, -1.454977, -46.158203, -31.717041, -661.609009
1733469812.247942, -28.959665, 14.691121, -2.955642, 5.547426, 0.451656, -1.875589, -46.327011, -34.462326, -661.670654
1733469812.257937, -29.567642, 14.695759, -2.080711, 5.330508, 0.937742, -2.380133, -46.470215, -37.380066, -662.151733
1733469812.267997, -29.371318, 14.158411, -0.812083, 5.139044, 1.344935, -2.898753, -45.980988, -40.312149, -662.079468
1733469812.277936, -28.087128, 13.708750, 0.481833, 5.002651, 1.566764, -3.376741, -45.453293, -43.231644, -662.047058
1733469812.287949, -25.964219, 13.954006, 1.932270, 4.884893, 1.550776, -3.747392, -44.943192, -46.087784, -662.216064
1733469812.297937, -23.425617, 14.227693, 3.315071, 4.762543, 1.389468, -4.028714, -44.416138, -48.964081, -661.242676
1733469812.307939, -20.917990, 14.066533, 4.510526, 4.615916, 1.097590, -4.225372, -43.724884, -51.524170, -661.633301
1733469812.317936, -18.605940, 13.359945, 5.687426, 4.436362, 0.729620, -4.387118, -42.907425, -54.341095, -661.379883
1733469812.327951, -16.772430, 12.386103, 6.521506, 4.220520, 0.390253, -4.556919, -42.571960, -56.792007, -661.327942
1733469812.337931, -15.301492, 11.273248, 7.143998, 3.945051, 0.066256, -4.724559, -41.877731, -59.093018, -660.267090
1733469812.347941, -13.863625, 10.261997, 7.810185, 3.614275, -0.229188, -4.862834, -41.251755, -61.078217, -660.113037
1733469812.357944, -12.348993, 9.257929, 8.429236, 3.196515, -0.442676, -4.991257, -40.427902, -62.971344, -659.535156
1733469812.367946, -10.901399, 8.306982, 8.954464, 2.672143, -0.583903, -5.067818, -39.905685, -64.369247, -658.599792
1733469812.377030, -9.290700, 7.760056, 9.356241, 2.096927, -0.671839, -5.073586, -39.061111, -65.693619, -658.015747
1733469812.387935, -7.564779, 7.322067, 9.581445, 1.527092, -0.766080, -5.035117, -38.540894, -66.828476, -657.877686
1733469812.397885, -5.861754, 6.750302, 9.662100, 0.996163, -0.887517, -4.960796, -37.434174, -67.446793, -657.012451
1733469812.407951, -4.295946, 6.333262, 9.595960, 0.503070, -1.030197, -4.863376, -36.828415, -67.659836, -657.250488
1733469812.417925, -2.999336, 6.117335, 9.467571, 0.006287, -1.144782, -4.724798, -36.130066, -67.787735, -657.716309
1733469812.427929, -1.828123, 5.940014, 9.036765, -0.468990, -1.168066, -4.553091, -35.610031, -67.598328, -658.026245
1733469812.437951, -0.885406, 5.775563, 8.217648, -0.877818, -1.126471, -4.371479, -34.751923, -67.380066, -658.049011
1733469812.447921, -0.091429, 5.674258, 7.363966, -1.199106, -1.102395, -4.193906, -34.309708, -66.866730, -658.523376
1733469812.457952, 0.564583, 5.513846, 6.745663, -1.448189, -1.133987, -4.025387, -33.669037, -66.149612, -658.612732
1733469812.467931, 1.073351, 5.253776, 6.161628, -1.625830, -1.194683, -3.868475, -33.159088, -65.447266, -659.778137
1733469812.477926, 1.505504, 4.951209, 5.534646, -1.740973, -1.281349, -3.714054, -32.973389, -64.498810, -660.310181
1733469812.487925, 1.929577, 4.748450, 5.008371, -1.799487, -1.454803, -3.522303, -33.020844, -63.569046, -660.928223
1733469812.497943, 2.595464, 4.648043, 4.596418, -1.803003, -1.681670, -3.291738, -32.796219, -62.817245, -660.701843
1733469812.507928, 3.258658, 4.286220, 4.197036, -1.812131, -1.874307, -3.039161, -32.857285, -61.822250, -661.904846
1733469812.517938, 3.654300, 3.854964, 3.798401, -1.839811, -2.040863, -2.779682, -33.385376, -60.864639, -662.676697
1733469812.527936, 3.851971, 3.576189, 3.545364, -1.887420, -2.154728, -2.528071, -33.790405, -59.756729, -663.032837
1733469812.537940, 4.059070, 3.298611, 3.253271, -1.961142, -2.234013, -2.247299, -34.412460, -58.782944, -662.991821
1733469812.547703, 4.354005, 3.235315, 2.924817, -2.051044, -2.286878, -1.931286, -35.108307, -57.779266, -663.668030
1733469812.557917, 4.789301, 3.293524, 2.666841, -2.151965, -2.343502, -1.589644, -35.938995, -56.562073, -664.109985
1733469812.567960, 5.046678, 3.315820, 2.435502, -2.275522, -2.359757, -1.241187, -36.707764, -55.575073, -664.265137
1733469812.577926, 5.383063, 3.410391, 2.017713, -2.401999, -2.411384, -0.855807, -37.743729, -54.497253, -664.320007
1733469812.587942, 6.129904, 3.738247, 1.727865, -2.530529, -2.531980, -0.394256, -38.855606, -53.195663, -664.593445
1733469812.597945, 6.925528, 4.175188, 1.415422, -2.673578, -2.672285, 0.088792, -40.396378, -51.958359, -664.192627
1733469812.607925, 7.074267, 4.559159, 1.185279, -2.883476, -2.875518, 0.535344, -41.456833, -50.345703, -665.059204
1733469812.617929, 6.742970, 5.050868, 0.994940, -3.110615, -3.159764, 0.937779, -43.316910, -48.705917, -665.233521
1733469812.627927, 6.149806, 5.326051, 0.205004, -3.273697, -3.364371, 1.286713, -44.906509, -46.718948, -665.210388
1733469812.637937, 5.195717, 5.593454, -1.286584, -3.418678, -3.352989, 1.605114, -46.371521, -44.954590, -664.732849
1733469812.647943, 4.235043, 6.040272, -2.968810, -3.659397, -3.097131, 1.885457, -47.825317, -42.847473, -664.396851
1733469812.657935, 3.199402, 6.271911, -4.440795, -3.993411, -2.788398, 2.051988, -49.251251, -40.536301, -664.164673
1733469812.667939, 2.312200, 6.498312, -5.628618, -4.241505, -2.657379, 2.188519, -50.415817, -38.099106, -663.410278
1733469812.677928, 2.073229, 7.115717, -7.001843, -4.253851, -2.705675, 2.378250, -51.825592, -35.903503, -662.693237
1733469812.687930, 1.852962, 8.201039, -8.636334, -4.108440, -2.883109, 2.595860, -52.601654, -33.435303, -661.876831
1733469812.697927, 1.557129, 8.929474, -10.090662, -3.876122, -3.041409, 2.888103, -53.634933, -31.148361, -660.428284
1733469812.707923, 1.136049, 9.676765, -11.576414, -3.739131, -3.067895, 3.237367, -54.290512, -28.722656, -660.140198
1733469812.717938, 0.331896, 10.410887, -12.884546, -3.775619, -2.800298, 3.601692, -54.890579, -26.350662, -658.861511
1733469812.727934, -0.814627, 10.569353, -15.049652, -3.877968, -2.219906, 3.835644, -55.474335, -23.889465, -657.772339
1733469812.737920, -2.799271, 10.490045, -17.420810, -3.894454, -1.677842, 3.885875, -55.277603, -21.478088, -657.120972
1733469812.747915, -4.408473, 10.767024, -19.112912, -3.729163, -1.406696, 3.905291, -54.990952, -19.260010, -655.692749
1733469812.757944, -4.868908, 11.372308, -20.498706, -3.374472, -1.403026, 3.992084, -54.368225, -17.127441, -654.772888
1733469812.767927, -4.902577, 11.685649, -21.637298, -2.924150, -1.543005, 4.158857, -53.785538, -15.127380, -653.912292
1733469812.778208, -5.446210, 11.806407, -22.679075, -2.492883, -1.586951, 4.346040, -53.199219, -13.445450, -652.760864
1733469812.787898, -6.774394, 12.095656, -23.760805, -2.148220, -1.439911, 4.516722, -52.159485, -11.645798, -651.647949
1733469812.797683, -8.087912, 12.154165, -25.027189, -1.815731, -1.164715, 4.624941, -51.767624, -10.282135, -650.793579
1733469812.807937, -9.296685, 11.998392, -26.291477, -1.459518, -0.887603, 4.606769, -51.107391, -8.943222, -650.630127
1733469812.817927, -10.769418, 12.161048, -27.026497, -1.051236, -0.862787, 4.423455, -49.603607, -8.117264, -649.917664
1733469812.827911, -11.996447, 12.418125, -27.140520, -0.411112, -1.153720, 4.286622, -48.142654, -7.377975, -649.919128
1733469812.837913, -13.011289, 13.997999, -27.913399, 0.490596, -1.517427, 4.342141, -47.198746, -6.912018, -650.015442
1733469812.848018, -15.306281, 13.360393, -27.416003, 1.430346, -1.723432, 4.397326, -46.567062, -6.822586, -650.263977
1733469812.857940, -15.306281, 13.360393, -27.416003, 2.222605, -1.662207, 4.249740, -45.555511, -7.279510, -651.077759
1733469812.867957, -19.133412, 11.465532, -24.706665, 2.825454, -1.425937, 3.956244, -44.802216, -7.924744, -651.705139
