SamplingTime, AccelerationX, AccelerationY, AccelerationZ, GyroX, GyroY, GyroZ, MagneticFieldX, MagneticFieldY, MagneticFieldZ
1733469724.723768, -5.255572, -3.864391, -8.430732, -0.548516, 0.264532, 0.123529, -38.527496, -47.837891, -664.282166
1733469724.733773, -5.243751, -4.082263, -8.714295, -0.399039, 0.203336, 0.223805, -38.497696, -47.598099, -664.816406
1733469724.743771, -5.555595, -4.403835, -9.076269, -0.181244, 0.114038, 0.284903, -38.723099, -47.440948, -664.977295
1733469724.753809, -6.138883, -4.812944, -9.318532, 0.072716, 0.027454, 0.277028, -38.584915, -47.615814, -664.070435
1733469724.763775, -6.767061, -5.187936, -9.283367, 0.316267, -0.046953, 0.195537, -38.680435, -47.630264, -664.877869
1733469724.773785, -7.293935, -5.454291, -8.962993, 0.493689, -0.131350, 0.052818, -38.834198, -48.047333, -664.529846
1733469724.783783, -7.551312, -5.566070, -8.412925, 0.593909, -0.226951, -0.109244, -38.725143, -48.224091, -664.956299
1733469724.793779, -7.634211, -5.536142, -7.894880, 0.631185, -0.354613, -0.266718, -39.029144, -48.619843, -665.310791
1733469724.803785, -7.605780, -5.391144, -7.382521, 0.617800, -0.509136, -0.399164, -39.063995, -48.940765, -664.249451
1733469724.813782, -7.420379, -5.191677, -7.079505, 0.566203, -0.628310, -0.496818, -39.419388, -49.031357, -664.791809
1733469724.823777, -7.202956, -5.012710, -6.998700, 0.507682, -0.705133, -0.552470, -39.527725, -49.563004, -664.263550
1733469724.833275, -6.991069, -4.840028, -7.076662, 0.469015, -0.735085, -0.569103, -39.709976, -49.863358, -664.591309
1733469724.843797, -6.814347, -4.631583, -7.208941, 0.460965, -0.723996, -0.568369, -40.321228, -50.081772, -664.718384
1733469724.853793, -6.774693, -4.496311, -7.370699, 0.487131, -0.677818, -0.567842, -40.465469, -50.465012, -663.981323
1733469724.863506, -6.633734, -4.459500, -7.478439, 0.552938, -0.623376, -0.571320, -40.847855, -50.778030, -664.513794
1733469724.873756, -6.399851, -4.457555, -7.430255, 0.638176, -0.582549, -0.575146, -41.144058, -50.935593, -663.805237
1733469724.883785, -6.162077, -4.418499, -7.199514, 0.716390, -0.555023, -0.582853, -41.374985, -51.361176, -664.129089
1733469724.893771, -5.897667, -4.368221, -6.844125, 0.766904, -0.544680, -0.593802, -41.691299, -51.841705, -664.569946
1733469724.903790, -5.602881, -4.325574, -6.421847, 0.786624, -0.543798, -0.603674, -41.855469, -52.267838, -663.678406
1733469724.913765, -5.342362, -4.302680, -5.990442, 0.771475, -0.562770, -0.598507, -42.406372, -52.689987, -663.921875
1733469724.923786, -5.082292, -4.297442, -5.466262, 0.738089, -0.614163, -0.596729, -42.283768, -53.071136, -663.235474
1733469724.933771, -4.987421, -4.462792, -5.051167, 0.684095, -0.654489, -0.621387, -42.876968, -53.432632, -663.716614
1733469724.943765, -5.029170, -4.723461, -4.740070, 0.607729, -0.669450, -0.686266, -42.905579, -53.619736, -663.628296
1733469724.953775, -4.948815, -4.873248, -4.389619, 0.525078, -0.689674, -0.779035, -43.237930, -54.088135, -662.975098
1733469724.963771, -4.754585, -4.801871, -4.061015, 0.471447, -0.727162, -0.853387, -43.646500, -54.223465, -663.748901
1733469724.973799, -4.530278, -4.538209, -3.747225, 0.431292, -0.757658, -0.913415, -43.744354, -54.584579, -662.759399
1733469724.983767, -4.257639, -4.315249, -3.422661, 0.374376, -0.805391, -0.949246, -43.837936, -54.869812, -662.898926
1733469724.992883, -3.894917, -4.238635, -3.056647, 0.298013, -0.908222, -0.957111, -44.478531, -55.019531, -662.987000
1733469725.002863, -3.501071, -4.223521, -2.657115, 0.213098, -1.069044, -0.934459, -44.732895, -55.214478, -662.430420
1733469725.013755, -3.209876, -4.178929, -2.240524, 0.141236, -1.293723, -0.901687, -45.419571, -55.388901, -663.118164
1733469725.023771, -2.980631, -4.101716, -1.812261, 0.081463, -1.573875, -0.877827, -45.905930, -55.637421, -661.889160
1733469725.033038, -2.798074, -4.109049, -1.326687, 0.039409, -1.870184, -0.840946, -46.985168, -55.576370, -662.380859
1733469725.043761, -2.520346, -4.090942, -0.815525, -0.012427, -2.176779, -0.789964, -47.846512, -55.767014, -662.266357
1733469725.053774, -2.317288, -4.085705, -0.276231, -0.089359, -2.511372, -0.749637, -49.063400, -55.736908, -661.502441
1733469725.063383, -2.210596, -4.046949, 0.239719, -0.193276, -2.810826, -0.699933, -50.396545, -55.501205, -661.794312
1733469725.073778, -1.977012, -3.798700, 0.513556, -0.339191, -3.020868, -0.612124, -51.660202, -55.438797, -660.837646
1733469725.083760, -1.728165, -3.272425, 0.834379, -0.536023, -3.161832, -0.458792, -52.872910, -55.207214, -660.111084
1733469725.093762, -1.368436, -2.663998, 1.172710, -0.780681, -3.286467, -0.258160, -54.552872, -54.993393, -660.622559
1733469725.103035, -1.000926, -2.103905, 1.513884, -1.053062, -3.449151, -0.018262, -55.854660, -54.680664, -659.498901
1733469725.113773, -0.773177, -1.615936, 1.656039, -1.322443, -3.639174, 0.258117, -57.471832, -53.744797, -659.609558
1733469725.123759, -0.696413, -1.022773, 1.527501, -1.577942, -3.818797, 0.582709, -59.181473, -52.865768, -658.504578
1733469725.133768, -0.788590, -0.049231, 1.225532, -1.847288, -3.929217, 0.980413, -61.091492, -51.788116, -657.459595
1733469725.143776, -0.985962, 0.971148, 0.744148, -2.144948, -3.940933, 1.391853, -62.906662, -50.257080, -657.267517
1733469725.153749, -1.412280, 1.429787, -0.150984, -2.414326, -3.816485, 1.777218, -64.580536, -48.960587, -655.748108
1733469725.163763, -1.934814, 1.804480, -1.533636, -2.600043, -3.571642, 2.160812, -66.042969, -47.156265, -656.007751
1733469725.173763, -2.463634, 2.409016, -2.898480, -2.669195, -3.340234, 2.497637, -67.612061, -45.477386, -654.778503
1733469725.183778, -2.870797, 2.713079, -4.282030, -2.593622, -3.156074, 2.762335, -69.025330, -43.667953, -654.140869
1733469725.193769, -3.330035, 2.687940, -5.718551, -2.359640, -3.052884, 2.979154, -70.145630, -41.732773, -653.539795
1733469725.203767, -3.887435, 3.033154, -6.948422, -2.020385, -3.012842, 3.178826, -71.520874, -40.081833, -651.728027
1733469725.213772, -4.649091, 3.576339, -7.829638, -1.599713, -3.092638, 3.331316, -72.050110, -38.242340, -651.289185
1733469725.223769, -5.581632, 4.127304, -8.583812, -1.081856, -3.213437, 3.484817, -73.224258, -36.836533, -649.717041
1733469725.233751, -6.557569, 4.753388, -9.257330, -0.527450, -3.340591, 3.680448, -73.822144, -35.226486, -647.872864
1733469725.243751, -7.659051, 4.698172, -9.364022, -0.034778, -3.430724, 3.865883, -74.051407, -33.888916, -647.209473
1733469725.253751, -9.207351, 4.437503, -9.598055, 0.283297, -3.312178, 4.073042, -74.283066, -32.146133, -645.395020
1733469725.263762, -11.040262, 4.224120, -10.179397, 0.345440, -2.957918, 4.285478, -74.531860, -30.523712, -644.938293
1733469725.273769, -13.587693, 3.703680, -11.139622, 0.208071, -2.303266, 4.412127, -74.508591, -28.673676, -644.030396
1733469725.283750, -16.560543, 3.061286, -12.907740, 0.041028, -1.418957, 4.357118, -73.819824, -27.102264, -643.573181
1733469725.293749, -19.738397, 2.346916, -15.002517, -0.048992, -0.425751, 4.098158, -72.843765, -25.654633, -642.762817
1733469725.303762, -22.801180, 3.056647, -16.959776, 0.064064, 0.466429, 3.756414, -71.793701, -24.412598, -643.631775
1733469725.313754, -25.141811, 5.015104, -18.565837, 0.500543, 0.994372, 3.434011, -71.052505, -23.590256, -643.427246
1733469725.323760, -26.470443, 6.799533, -19.080590, 1.226728, 1.004804, 3.094715, -69.830826, -22.973160, -644.666382
1733469725.333763, -27.543046, 7.819163, -19.518430, 2.158822, 0.842219, 2.803981, -68.932877, -22.609528, -645.185730
1733469725.343755, -28.804939, 8.611195, -20.045154, 3.116565, 0.765595, 2.533734, -68.181763, -22.948929, -645.590027
1733469725.353764, -30.510509, 8.448539, -20.149003, 3.985388, 0.958492, 2.188621, -67.268982, -23.582764, -647.741699
1733469725.363760, -31.978603, 7.241413, -19.688717, 4.714281, 1.378180, 1.789206, -66.376251, -24.921173, -649.010742
1733469725.373748, -32.917430, 5.995979, -18.151041, 5.332492, 1.834861, 1.316587, -65.342255, -26.781021, -649.900940
1733469725.383758, -33.556532, 5.514894, -16.138715, 5.977107, 2.329743, 0.877917, -64.275375, -28.824127, -652.057556
1733469725.393755, -34.076972, 5.845294, -13.468881, 6.492988, 2.805481, 0.464570, -63.122681, -31.412064, -653.539795
1733469725.403750, -34.481292, 6.585551, -9.396044, 6.707324, 3.144940, 0.039470, -61.747116, -34.166061, -655.160156
1733469725.413754, -34.319983, 7.151181, -5.321263, 6.645013, 3.325902, -0.385708, -60.886597, -37.237701, -655.809875
1733469725.423758, -33.634343, 7.233631, -1.569100, 6.386093, 3.217374, -0.849046, -59.694290, -40.047211, -657.637329
1733469725.433778, -32.456696, 6.901137, 1.949928, 6.038186, 2.702254, -1.365122, -59.091797, -43.144043, -657.942139
1733469725.443758, -31.161881, 6.616825, 4.392761, 5.751124, 1.867831, -1.924066, -58.844131, -46.261871, -658.114868
1733469725.453746, -30.044537, 6.369624, 5.676802, 5.555190, 0.850742, -2.586331, -58.633011, -49.292236, -656.981445
1733469725.463744, -28.953230, 6.175993, 6.493524, 5.394769, -0.166936, -3.318513, -58.568588, -52.452545, -656.741699
1733469725.473746, -27.251252, 6.256348, 6.804920, 5.212358, -1.003689, -4.034896, -58.963440, -55.671341, -655.830566
1733469725.483756, -25.146300, 6.610092, 7.083695, 4.943978, -1.592640, -4.666483, -58.852692, -58.728455, -654.145935
1733469725.493763, -22.830808, 7.137414, 7.427412, 4.579596, -1.910979, -5.171428, -59.141006, -61.766891, -653.213623
1733469725.503743, -20.122966, 7.561338, 7.775320, 4.144804, -2.068404, -5.542197, -58.715790, -64.658951, -651.268372
1733469725.513743, -17.376667, 7.882310, 8.201039, 3.677025, -2.104747, -5.775345, -58.184082, -67.183899, -650.406616
1733469725.523752, -14.631864, 8.023868, 8.659229, 3.160675, -2.074945, -5.898665, -57.685608, -69.437439, -649.440002
1733469725.533310, -11.839926, 8.095993, 9.355193, 2.571854, -2.028006, -5.935209, -56.818085, -71.338104, -648.302551
1733469725.543756, -9.186252, 8.238149, 10.134207, 1.927995, -2.018461, -5.835031, -56.099289, -73.035324, -647.780579
1733469725.553750, -6.689399, 8.091953, 10.672752, 1.241224, -2.028587, -5.651358, -55.288177, -74.373276, -647.476807
1733469725.563739, -4.710143, 7.684639, 10.967389, 0.551264, -2.090815, -5.438582, -54.299133, -75.484177, -646.528992
1733469725.573741, -3.033154, 7.154922, 10.482563, -0.060474, -2.146024, -5.234954, -53.477203, -76.056366, -646.844421
1733469725.583753, -1.732803, 6.512977, 9.521291, -0.557150, -2.179609, -5.042373, -52.512726, -76.535751, -646.610107
1733469725.593747, -0.805200, 6.039972, 8.400057, -0.956155, -2.171178, -4.864426, -51.739838, -77.006348, -647.272095
1733469725.603748, 0.011223, 5.908441, 7.287501, -1.267396, -2.139272, -4.696246, -51.000290, -77.137329, -647.514282
1733469725.613750, 0.876876, 5.708076, 6.376806, -1.485178, -2.145966, -4.520802, -50.115677, -77.160461, -648.087097
1733469725.623743, 1.698686, 5.416133, 5.638495, -1.622430, -2.181988, -4.351102, -49.218170, -77.344193, -648.208008
1733469725.632835, 2.301576, 5.280561, 5.161300, -1.702623, -2.293854, -4.170766, -49.218170, -77.344193, -648.208008
1733469725.643741, 2.860622, 5.230283, 4.816535, -1.762420, -2.439461, -3.989196, -48.025421, -76.969376, -649.150696
1733469725.653749, 3.337517, 5.169830, 4.479701, -1.822517, -2.565481, -3.798015, -47.530579, -76.603195, -649.706848
1733469725.663737, 3.864241, 5.192126, 4.184316, -1.901745, -2.651083, -3.563277, -47.473953, -76.202271, -650.175354
1733469725.673756, 4.374805, 5.176264, 3.949535, -2.001877, -2.733438, -3.277402, -47.446457, -75.705276, -650.654602
1733469725.683747, 4.769250, 5.063138, 3.771017, -2.132576, -2.839394, -2.954948, -47.609879, -75.110794, -651.171326
1733469725.693745, 5.127332, 4.992958, 3.535188, -2.244876, -2.980497, -2.599092, -47.680603, -74.572830, -651.955688
1733469725.703744, 5.584475, 4.779874, 3.239504, -2.299606, -3.210606, -2.228592, -47.680603, -74.572830, -651.955688
1733469725.713749, 5.888689, 4.493168, 3.011307, -2.291209, -3.548570, -1.845319, -48.343185, -74.052017, -651.869812
1733469725.723736, 5.970540, 4.142567, 2.588282, -2.230381, -3.908286, -1.467510, -49.051498, -73.364685, -652.660645
1733469725.733743, 5.914426, 3.768174, 1.917157, -2.130885, -4.236306, -1.094117, -50.306351, -72.611710, -653.003967
1733469725.743734, 5.942857, 3.482815, 1.226729, -1.994445, -4.500294, -0.710419, -51.828384, -71.850296, -653.128296
1733469725.753781, 6.177340, 3.307739, 0.794276, -1.864127, -4.673357, -0.287521, -53.221634, -71.299316, -652.692261
1733469725.763759, 6.295703, 3.548805, 0.745345, -1.800339, -4.836212, 0.213891, -55.014481, -70.359634, -652.769470
1733469725.772956, 6.377405, 4.057124, 0.887052, -1.815168, -4.949788, 0.779475, -56.876587, -69.441483, -652.193848
1733469725.783808, 6.197391, 4.585495, 0.894683, -1.910066, -4.970419, 1.382940, -59.032486, -68.494858, -651.780457
1733469725.793736, 5.810428, 5.224447, 0.747440, -2.071499, -4.879266, 2.044698, -61.072617, -67.074036, -650.759033
1733469725.803746, 5.360019, 5.906346, 0.394594, -2.586063, -4.409771, 3.480340, -63.466629, -65.588257, -649.918213
1733469725.813735, 4.119823, 7.232135, -0.888099, -2.912781, -4.102298, 4.195760, -65.476288, -63.225433, -649.856995
1733469725.823729, 3.173215, 8.239944, -1.784279, -3.210654, -3.834886, 4.870384, -67.717987, -60.997253, -649.222656
1733469725.833736, 1.979705, 9.417443, -3.133262, -3.313248, -3.642368, 5.520379, -69.713531, -58.388138, -648.832336
1733469725.843741, 0.428712, 11.009886, -5.002385, -3.173275, -3.436837, 6.182343, -71.382385, -55.328842, -647.969971
1733469725.853735, -1.631648, 12.616695, -7.249194, -2.912819, -3.124080, 6.821084, -72.806686, -52.069672, -647.300537
1733469725.863741, -4.134786, 13.832350, -9.158121, -2.613057, -2.818637, 7.389577, -74.177917, -48.246597, -646.494934
1733469725.873733, -6.894403, 14.495245, -10.638336, -2.305628, -2.571961, 7.853038, -75.218430, -44.421021, -644.763489
1733469725.883733, -9.793482, 14.313884, -12.674455, -1.989213, -2.308142, 8.136771, -76.019577, -40.600342, -643.579956
1733469725.893728, -13.444789, 13.308170, -14.666131, -1.627918, -2.016715, 8.107311, -76.470535, -36.592010, -643.162598
1733469725.903748, -17.650204, 12.483816, -16.559197, -1.201284, -1.640227, 7.750780, -76.412842, -33.085968, -641.746094
1733469725.913734, -20.727502, 11.380239, -18.270303, -0.771801, -1.170667, 7.193949, -75.954758, -29.506332, -641.520874
1733469725.923735, -22.113295, 10.868778, -19.169924, -0.470909, -0.597411, 6.653156, -75.215363, -26.466156, -640.367615
1733469725.933724, -22.146066, 12.198457, -19.401413, -0.399513, 0.072496, 6.292235, -74.118301, -23.702988, -639.975220
1733469725.943738, -21.173122, 14.189835, -19.199552, -0.472703, 0.558676, 6.206263, -72.541290, -21.046890, -640.054077
1733469725.953734, -20.506337, 16.172533, -18.638261, -0.456156, 0.516898, 6.267404, -71.239853, -18.614868, -640.074646
1733469725.963736, -21.191827, 17.289578, -19.581427, -0.097965, 0.109298, 6.300773, -69.448257, -16.384338, -640.378662
1733469725.973729, -23.092823, 17.533936, -22.107908, 0.654753, -0.373508, 6.186389, -68.209808, -14.160538, -639.940369
1733469725.983737, -25.295339, 16.573562, -24.937855, 1.743433, -0.643411, 5.866896, -66.823578, -12.368973, -640.391541
1733469725.993734, -27.317691, 15.406538, -26.926688, 2.999621, -0.574320, 5.416711, -65.354218, -10.884888, -640.733521
1733469726.003752, -28.469452, 15.239243, -26.881498, 4.153597, -0.270088, 4.978799, -63.928375, -10.077164, -641.275635
1733469726.013738, -28.626272, 15.903634, -24.713548, 5.107399, 0.100362, 4.681508, -62.450363, -10.025818, -642.511597
1733469726.023729, -28.723537, 17.097892, -21.556045, 5.877441, 0.513942, 4.566176, -60.502075, -10.246719, -644.306763
1733469726.033738, -29.283929, 18.018762, -18.111238, 6.529308, 0.889898, 4.624170, -58.682297, -10.777878, -646.481384
1733469726.043725, -31.302840, 18.051682, -14.719851, 7.057609, 1.255954, 4.646601, -56.508438, -11.674606, -648.493042
1733469726.053734, -34.747348, 16.642994, -11.735329, 7.330745, 1.684195, 4.380579, -55.035339, -13.335114, -650.871887
1733469726.063744, -38.668152, 14.226346, -8.593538, 7.195511, 2.103960, 3.656073, -53.777359, -15.056778, -652.976624
1733469726.073796, -41.201517, 11.730241, -5.085434, 6.690857, 2.211546, 2.591002, -52.313461, -17.192917, -655.090332
1733469726.083727, -40.708461, 10.338761, -2.068291, 6.130455, 1.862040, 1.491057, -51.103073, -19.585205, -656.901184
1733469726.093726, -38.201134, 10.547207, -0.514604, 5.810613, 1.113610, 0.613219, -49.903351, -22.085800, -658.522949
1733469726.103727, -35.671211, 11.625944, -0.041450, 5.792283, 0.174615, -0.057657, -49.359863, -24.791183, -659.975830
1733469726.113736, -34.158524, 11.696872, -0.493355, 5.938305, -0.574114, -0.711355, -49.474670, -27.248917, -660.320679
1733469726.123738, -33.421260, 10.775254, -1.219546, 6.068126, -0.946285, -1.446787, -50.032364, -30.246902, -660.655273
1733469726.133554, -32.792482, 10.267384, -1.368735, 6.110782, -0.946232, -2.205622, -50.882584, -33.175873, -661.038879
1733469726.143729, -31.510687, 10.549601, -0.714968, 6.054295, -0.687401, -2.887473, -51.545288, -36.608383, -661.198730
1733469726.153732, -29.418753, 10.806828, 0.712874, 5.897177, -0.440132, -3.500133, -52.152863, -39.972565, -660.936279
1733469726.163737, -26.990135, 10.996568, 2.497003, 5.671279, -0.282559, -4.018938, -52.374878, -43.415802, -660.808167
1733469726.173791, -24.432080, 11.201721, 4.325724, 5.383369, -0.295501, -4.436687, -52.847214, -46.957245, -660.743835
1733469726.183736, -21.860558, 11.098771, 5.853524, 5.035195, -0.440912, -4.782678, -52.794617, -50.242584, -660.375122
1733469726.193721, -19.509751, 10.659734, 6.950068, 4.659893, -0.668152, -5.073603, -52.794266, -53.306519, -659.890076
1733469726.203718, -17.300501, 10.119542, 7.753921, 4.261249, -0.961991, -5.320378, -52.766678, -56.136749, -658.898071
1733469726.213718, -15.088558, 9.425673, 8.396465, 3.818642, -1.300262, -5.525428, -52.776474, -58.911270, -658.185181
1733469726.223718, -12.863746, 8.703073, 8.744223, 3.317020, -1.601929, -5.685638, -52.444107, -61.595261, -657.663940
1733469726.233720, -10.736797, 8.217050, 8.679430, 2.771591, -1.805673, -5.757050, -51.925217, -63.657272, -656.355347
1733469726.243719, -8.884134, 7.835474, 8.366837, 2.203832, -1.900291, -5.762338, -51.697937, -65.555267, -655.463562
1733469726.253728, -7.398682, 7.323713, 7.995436, 1.647309, -1.934458, -5.740256, -51.073105, -67.313599, -654.801331
1733469726.263626, -6.187365, 6.825869, 7.582736, 1.133193, -1.914886, -5.706269, -50.416519, -68.536911, -654.315796
1733469726.273719, -5.199458, 6.409727, 7.164798, 0.675974, -1.902302, -5.670041, -49.697937, -69.713943, -653.756531
1733469726.283727, -4.268712, 6.070798, 6.812701, 0.282286, -1.883229, -5.627531, -49.012817, -70.741241, -653.854980
1733469726.293719, -3.162291, 5.970091, 6.429928, -0.061493, -1.852123, -5.544369, -47.872314, -71.501205, -652.926758
1733469726.303725, -1.995417, 6.011092, 6.162226, -0.380142, -1.847026, -5.406765, -47.320755, -71.911667, -653.349487
1733469726.313717, -1.107169, 5.936573, 5.955577, -0.676438, -1.863850, -5.256010, -46.326752, -72.282043, -653.882202
1733469726.323717, -0.426916, 5.828085, 5.766435, -0.934373, -1.950709, -5.093734, -45.541153, -72.190903, -653.455872
1733469726.333730, 0.276979, 5.864148, 5.631761, -1.132596, -2.120262, -4.907562, -44.828461, -72.349594, -653.566406
1733469726.343720, 0.963965, 5.841702, 5.440225, -1.293995, -2.349795, -4.715879, -44.169281, -72.399780, -654.366516
1733469726.353723, 1.503559, 5.600786, 5.187636, -1.426288, -2.618378, -4.518073, -43.730011, -72.133392, -654.606262
1733469726.363719, 2.197428, 5.454740, 4.813542, -1.539790, -2.875929, -4.282757, -43.402161, -71.895615, -655.203613
1733469726.373722, 2.830994, 5.251681, 4.527136, -1.648497, -3.146851, -4.025342, -43.442749, -71.324799, -655.323608
1733469726.383285, 3.226636, 5.018696, 4.238485, -1.748601, -3.408634, -3.754005, -43.734085, -70.860748, -655.604736
1733469726.393761, 3.583521, 4.774936, 3.683479, -1.835030, -3.619705, -3.465604, -43.898575, -70.462784, -655.551514
1733469726.403722, 3.829974, 4.642207, 3.160197, -1.895872, -3.795709, -3.162896, -44.596146, -69.724182, -656.493347
1733469726.413720, 4.061314, 4.592079, 2.644994, -1.932329, -3.910487, -2.837084, -45.209656, -69.179962, -656.547119
1733469726.423725, 4.409970, 4.681263, 2.282871, -1.963387, -3.987402, -2.467209, -46.058533, -68.417511, -656.971985
1733469726.433461, 4.927716, 4.772242, 2.053926, -1.999704, -4.038032, -2.032398, -47.039612, -67.733170, -657.200806
1733469726.443711, 5.615600, 4.765808, 1.999158, -2.048495, -4.103143, -1.542053, -48.178329, -67.144958, -657.696655
1733469726.453727, 6.297349, 4.907216, 2.199972, -2.135675, -4.200498, -1.003417, -49.829697, -66.303650, -657.580505
1733469726.463727, 6.843676, 5.144092, 2.569577, -2.272332, -4.373077, -0.424045, -51.379578, -65.260147, -657.752747
1733469726.473754, 7.138612, 5.439925, 2.796428, -2.456341, -4.561846, 0.175799, -53.279999, -64.151367, -657.803284
1733469726.483710, 7.114221, 5.959168, 2.676119, -2.681386, -4.702026, 0.787090, -55.139709, -62.885269, -657.476501
1733469726.493720, 6.836194, 6.834548, 2.494309, -2.941313, -4.830390, 1.399315, -57.299042, -61.583496, -656.659790
1733469726.503711, 6.463746, 8.241141, 2.249203, -3.198702, -5.001925, 2.047316, -59.644028, -59.644287, -656.752319
1733469726.513721, 6.001515, 10.018986, 1.579275, -3.418256, -5.183183, 2.778360, -61.976837, -57.441666, -655.687866
1733469726.523766, 5.470452, 11.503241, 0.456844, -3.618145, -5.365714, 3.559985, -64.451050, -54.902252, -654.829895
1733469726.533723, 4.612280, 12.585420, -1.155202, -3.785936, -5.499345, 4.349480, -66.811295, -51.962006, -653.881897
1733469726.543723, 3.371634, 14.342315, -3.487753, -3.872690, -5.488192, 5.217834, -68.957748, -48.846481, -652.036499
1733469726.553711, 2.012626, 16.663195, -6.505046, -3.907727, -5.268731, 6.167098, -70.670990, -45.109818, -650.047241
1733469726.563714, 0.112976, 19.025673, -9.610026, -3.895217, -4.900762, 7.118489, -72.416138, -41.216019, -648.854126
1733469726.573713, -2.726547, 20.677223, -13.031340, -3.621952, -4.576731, 7.928998, -73.393814, -36.982376, -646.458252
1733469726.583720, -7.429208, 21.949442, -17.083377, -2.957699, -4.331580, 8.459402, -73.903046, -32.788620, -644.798645
1733469726.593722, -13.056479, 21.730074, -22.218940, -1.920603, -3.856335, 8.658341, -73.619904, -28.855530, -642.134644
1733469726.603715, -18.700211, 20.619463, -27.206062, -0.800904, -2.956876, 8.570640, -73.196518, -24.913269, -641.481567
1733469726.613721, -23.411701, 19.132814, -30.335732, 0.071427, -1.683575, 8.217688, -72.327515, -21.692902, -640.619080
1733469726.623714, -26.354474, 16.960225, -31.323041, 0.593318, -0.296969, 7.693214, -71.123749, -19.171722, -641.468994
1733469726.633721, -27.239132, 15.923835, -30.048877, 0.934769, 0.527743, 7.167422, -69.327347, -16.824768, -641.119873
1733469726.643722, -26.083331, 15.780931, -27.555316, 1.371795, 0.464461, 6.819359, -67.759583, -15.016495, -642.012329
1733469726.653718, -24.802134, 15.726912, -25.919029, 2.086486, -0.246906, 6.586045, -66.321198, -13.326157, -641.858826
1733469726.662838, -24.922891, 15.809213, -24.992024, 3.025240, -1.172986, 6.366437, -64.733429, -12.161606, -642.431152
1733469726.673715, -26.304196, 15.169362, -24.391079, 4.004298, -1.827812, 6.092413, -63.496933, -11.535965, -643.358826
1733469726.683711, -28.968344, 14.185495, -23.449709, 4.804492, -1.882695, 5.715734, -61.490967, -11.083801, -643.725830
1733469726.693714, -31.797243, 13.476812, -22.291663, 5.431204, -1.240018, 5.374244, -59.729614, -11.290115, -644.577026
1733469726.703712, -33.880946, 13.119477, -20.996101, 5.973685, -0.075477, 5.164902, -58.330505, -11.561310, -646.459229
1733469726.713711, -36.292656, 13.231855, -17.861193, 6.206600, 1.168391, 4.890713, -56.885757, -12.471893, -648.923218
1733469726.723716, -38.968475, 13.199084, -13.022063, 5.958985, 2.074408, 4.359299, -55.317352, -13.525253, -650.794739
1733469726.733479, -40.722976, 12.855815, -8.403498, 5.443348, 2.388327, 3.634804, -53.789017, -14.952194, -652.672302
1733469726.743717, -41.332749, 12.323554, -4.809652, 5.037287, 1.811765, 2.715991, -52.571808, -16.425507, -654.350037
1733469726.753708, -41.317486, 11.736526, -3.210026, 5.035161, 0.648150, 1.726475, -51.800430, -18.190826, -655.403809
1733469726.763712, -40.571692, 10.805930, -4.056376, 5.401001, -0.543037, 0.703320, -52.297318, -20.401596, -656.742432
1733469726.773716, -39.852384, 9.592968, -5.285649, 5.932469, -1.287833, -0.368764, -52.926956, -23.075562, -658.207642
1733469726.783718, -38.729504, 9.075072, -6.159682, 6.409103, -1.394106, -1.385521, -53.613266, -25.920242, -657.868835
1733469726.793707, -36.706852, 9.843760, -5.414188, 6.668593, -1.049685, -2.190615, -54.369720, -29.466629, -657.761597
1733469726.803714, -34.283022, 11.724555, -3.052607, 6.698827, -0.508088, -2.756757, -54.629959, -33.078308, -659.161011
1733469726.813708, -32.011524, 13.206267, 0.004938, 6.522114, -0.001692, -3.180696, -55.286713, -36.851486, -659.227600
1733469726.823710, -29.888615, 13.711294, 3.004873, 6.182697, 0.331245, -3.579976, -55.744156, -40.551102, -659.572998
1733469726.833710, -27.897387, 13.387927, 5.548263, 5.743506, 0.425971, -4.009118, -55.973526, -43.964279, -659.859619
1733469726.843711, -25.795428, 12.723685, 7.136816, 5.294622, 0.390262, -4.469794, -55.809921, -47.365601, -659.469727
1733469726.853714, -23.519739, 11.946168, 7.981371, 4.881792, 0.225025, -4.928355, -55.424957, -50.588623, -659.069092
1733469726.863706, -20.895694, 11.310658, 8.643966, 4.497161, -0.039659, -5.324059, -55.194275, -53.655945, -658.180237
1733469726.873705, -18.306216, 10.993575, 8.834604, 4.137898, -0.316723, -5.621248, -54.945679, -56.592819, -657.645752
1733469726.883721, -15.870415, 10.916662, 8.807071, 3.805686, -0.571257, -5.822589, -54.322266, -59.262741, -657.169861
1733469726.893709, -13.340492, 10.809072, 8.737639, 3.458096, -0.764975, -5.921523, -53.744293, -61.555511, -656.071350
1733469726.903712, -10.885836, 10.602423, 8.847174, 3.046335, -0.910905, -5.923117, -53.091217, -63.984528, -655.657532
1733469726.913715, -8.811859, 10.333524, 9.166351, 2.563751, -1.049244, -5.863404, -52.068344, -66.038589, -655.248901
1733469726.923705, -6.987328, 9.912893, 9.348310, 2.039701, -1.158950, -5.743116, -51.488831, -67.625626, -654.484131
1733469726.933705, -5.355829, 9.368212, 9.314342, 1.503953, -1.241099, -5.588622, -50.482605, -68.971115, -654.167236
1733469726.943180, -4.036474, 8.818443, 9.208548, 0.980653, -1.340975, -5.423984, -49.682648, -70.017059, -653.630981
1733469726.953694, -2.891597, 8.173356, 8.978556, 0.500215, -1.463417, -5.255307, -48.698441, -70.841003, -653.759583
1733469726.963704, -2.117671, 7.425916, 8.537723, 0.059559, -1.590364, -5.116811, -48.019379, -71.380920, -653.699158
1733469726.973693, -1.619079, 6.771999, 7.828591, -0.331929, -1.671016, -5.008225, -47.182358, -71.678665, -653.208069
1733469726.983697, -1.052401, 6.470929, 7.042694, -0.654288, -1.734481, -4.895951, -46.421844, -71.888351, -653.627258
1733469726.993691, -0.348805, 6.357503, 6.434567, -0.900855, -1.820433, -4.746781, -45.756561, -72.132446, -653.125000
1733469727.003702, 0.600346, 6.341492, 5.686678, -1.063604, -1.922477, -4.526682, -44.952347, -72.037918, -654.356689
1733469727.013704, 1.716493, 6.285378, 4.882076, -1.138815, -2.050565, -4.220962, -44.688309, -71.912155, -654.766235
1733469727.023692, 2.625092, 5.806238, 4.237438, -1.143491, -2.210666, -3.909606, -44.507324, -71.867386, -655.156555
1733469727.033693, 3.327042, 5.041740, 3.730465, -1.106729, -2.342360, -3.628325, -44.440216, -71.513000, -654.940063
1733469727.043692, 3.967342, 4.381389, 3.416825, -1.092038, -2.456680, -3.346578, -44.206467, -71.559357, -655.392273
1733469727.053177, 4.627543, 3.833416, 3.426252, -1.139303, -2.589616, -3.054160, -44.387985, -71.116226, -655.566406
1733469727.063701, 4.865616, 3.453935, 3.673603, -1.257021, -2.751800, -2.778593, -44.839157, -70.614716, -655.744385
1733469727.073689, 5.016002, 3.217957, 3.687071, -1.417511, -2.890916, -2.519426, -45.208832, -70.269302, -656.203857
1733469727.083694, 5.391742, 3.217059, 3.691111, -1.594745, -3.044480, -2.224222, -46.080139, -69.773087, -656.474670
1733469727.093701, 5.877466, 3.380014, 3.945644, -1.811555, -3.289972, -1.893263, -46.697418, -69.028610, -656.114258
1733469727.103698, 6.206818, 3.515287, 4.230554, -2.051074, -3.611912, -1.540272, -47.987793, -68.356552, -657.227661
1733469727.113696, 6.473622, 3.682432, 4.261080, -2.280706, -3.986441, -1.157458, -49.577988, -67.340134, -657.057922
1733469727.123698, 6.706458, 3.825336, 4.094983, -2.493131, -4.401491, -0.750341, -51.289215, -66.294052, -656.723511
1733469727.133695, 6.723816, 3.951480, 3.747075, -2.693921, -4.794908, -0.343837, -53.257111, -65.024506, -657.051514
1733469727.143696, 6.427683, 4.193743, 3.224391, -2.941259, -5.100448, 0.030534, -55.373352, -63.503006, -656.896118
1733469727.153703, 6.071845, 4.726603, 2.508076, -3.245831, -5.319572, 0.406693, -57.460724, -61.844543, -656.678772
1733469727.163700, 5.916521, 5.584026, 1.475277, -3.558775, -5.441388, 0.821653, -59.799179, -60.044281, -656.255310
1733469727.173694, 5.924003, 6.915502, 0.148441, -3.795626, -5.502520, 1.342732, -62.068710, -58.025208, -655.678711
1733469727.183382, 5.937470, 8.874258, -1.365892, -3.889086, -5.560173, 1.987612, -62.068710, -58.025208, -655.678711
1733469727.193709, 5.713313, 10.996269, -3.086575, -3.783580, -5.653898, 2.739997, -64.378098, -55.776230, -654.273987
1733469727.203697, 5.455637, 12.858659, -5.057452, -3.458856, -5.824603, 3.651294, -66.672485, -53.585388, -652.707397
1733469727.213692, 4.998195, 14.380922, -7.105392, -2.941245, -5.984646, 4.697807, -68.993591, -50.588974, -651.655884
1733469727.223690, 3.448548, 16.001946, -9.004144, -2.380875, -5.976655, 5.818959, -70.691147, -47.806625, -649.441650
1733469727.233683, 0.843507, 17.697490, -10.616489, -1.952564, -5.727552, 6.907115, -72.794388, -44.495422, -647.288574
1733469727.243683, -2.661903, 18.808848, -12.430396, -1.618905, -5.268581, 7.844712, -74.182816, -40.914291, -645.208801
1733469727.253685, -7.168389, 19.187132, -14.875175, -1.257018, -4.594539, 8.485191, -75.337402, -37.109467, -643.424133
1733469727.263686, -12.147581, 18.519898, -17.931972, -0.830538, -3.619723, 8.781152, -75.819153, -33.119781, -641.839172
1733469727.273698, -17.077541, 17.119589, -20.888512, -0.413664, -2.304620, 8.744689, -75.740448, -29.287842, -640.741760
1733469727.283701, -21.511902, 15.413571, -22.501755, -0.262240, -0.831785, 8.367897, -75.164597, -25.907791, -639.809814
1733469727.293693, -24.350527, 14.090475, -22.526595, -0.330775, 0.407204, 7.800457, -73.611435, -22.877975, -640.191895
1733469727.303689, -25.126548, 13.879935, -22.374413, -0.289906, 1.142309, 7.330703, -71.844025, -20.042953, -639.817627
1733469727.313694, -24.939351, 14.852879, -21.963209, 0.002549, 1.100606, 7.004380, -70.314224, -17.268051, -640.464172
1733469727.323690, -25.265262, 15.703269, -21.231182, 0.595640, 0.352932, 6.687356, -68.627518, -15.194000, -640.974304
1733469727.333689, -26.140343, 14.960917, -21.495891, 1.417283, -0.641550, 6.311038, -67.034943, -13.302917, -640.806274
1733469727.343694, -27.815386, 13.598617, -23.006632, 2.374343, -1.353470, 5.842514, -65.337082, -11.749100, -640.878479
1733469727.353691, -30.043640, 12.350938, -24.735246, 3.410144, -1.529975, 5.343800, -63.940979, -10.712631, -641.113342
1733469727.363692, -32.596756, 12.220155, -25.296536, 4.385102, -1.223458, 4.804109, -62.733231, -10.372025, -641.912231
1733469727.373701, -34.567484, 12.673706, -24.149564, 5.213775, -0.681511, 4.300288, -61.304764, -10.560623, -642.882202
1733469727.383693, -35.372684, 13.675830, -21.921011, 5.978673, -0.008791, 3.997582, -60.045578, -11.111191, -644.379761
1733469727.393698, -36.044556, 14.999224, -19.077298, 6.636478, 0.719702, 3.845312, -58.626999, -12.184082, -646.419312
1733469727.403691, -37.429303, 15.757738, -14.830134, 7.033988, 1.297311, 3.640797, -57.059113, -13.562729, -648.766418
1733469727.413688, -39.269696, 15.107113, -10.075549, 7.154939, 1.503785, 3.193074, -56.572586, -15.407684, -651.390198
1733469727.423687, -41.109640, 12.830976, -5.373786, 7.095323, 1.182230, 2.345005, -55.823303, -17.623322, -653.434082
1733469727.433699, -41.765651, 10.299407, -2.203563, 7.032388, 0.539982, 1.246078, -55.478958, -20.117111, -655.526184
1733469727.443694, -40.803631, 8.895207, -0.588375, 7.029095, -0.080752, 0.169473, -55.166992, -23.040176, -656.790466
1733469727.453685, -38.414666, 8.684218, 0.249895, 7.044237, -0.411018, -0.645613, -55.265991, -25.882736, -657.242371
1733469727.463560, -36.181026, 9.137471, 1.585859, 6.933232, -0.536158, -1.277637, -55.445038, -29.243729, -658.025574
1733469727.473740, -34.542344, 9.257929, 3.608960, 6.655814, -0.555809, -1.840502, -56.083466, -32.635513, -658.373596
1733469727.483673, -33.147572, 8.776694, 5.589862, 6.211512, -0.594006, -2.448782, -56.708374, -35.953400, -658.957153
1733469727.493674, -31.506946, 7.899668, 6.955305, 5.684439, -0.627465, -3.092048, -57.488556, -39.257233, -658.921143
1733469727.503683, -29.487885, 7.564630, 7.610419, 5.148322, -0.645993, -3.712105, -57.705414, -42.598450, -658.216370
1733469727.513735, -27.105206, 7.575703, 8.128913, 4.625088, -0.701345, -4.260272, -58.413757, -45.438538, -658.406372
1733469727.523695, -24.424448, 7.741501, 8.416367, 4.114182, -0.751635, -4.711155, -58.464340, -48.533875, -657.727661
1733469727.533676, -21.755512, 8.080131, 8.621670, 3.617529, -0.833160, -5.046502, -58.891251, -51.176376, -656.871094
1733469727.543685, -19.167380, 8.585158, 8.781782, 3.122038, -0.865408, -5.271130, -58.617172, -53.803299, -656.506653
1733469727.553688, -16.440384, 9.057714, 8.695292, 2.633750, -0.876324, -5.349973, -58.199722, -56.268112, -655.703857
1733469727.563680, -13.867366, 9.126996, 8.648006, 2.135947, -0.842012, -5.325867, -58.163879, -58.256058, -655.558228
1733469727.573721, -11.787253, 8.917952, 8.559570, 1.620238, -0.822662, -5.252547, -57.952133, -59.925980, -655.073853
1733469727.583679, -10.149170, 8.359505, 8.190265, 1.104988, -0.750134, -5.182810, -57.403824, -61.722717, -655.015747
1733469727.593677, -8.899547, 7.809437, 7.564779, 0.629085, -0.649585, -5.133141, -56.520218, -63.129272, -654.876648
1733469727.603728, -7.669975, 7.264906, 7.148039, 0.231057, -0.597673, -5.093803, -55.789932, -64.210938, -654.707153
1733469727.613671, -6.353014, 6.726360, 6.597672, -0.066564, -0.560568, -5.020862, -55.023987, -65.332031, -654.833313
1733469727.623671, -5.093215, 6.436662, 6.116736, -0.283745, -0.564056, -4.903768, -54.255630, -65.876419, -654.651367
1733469727.633741, -4.115633, 6.328623, 5.931784, -0.442863, -0.625475, -4.774217, -53.256866, -66.708084, -654.818359
1733469727.643683, -3.215712, 6.270713, 5.858462, -0.585844, -0.732281, -4.616955, -52.484070, -67.138245, -654.889099
1733469727.653671, -2.302175, 6.138583, 5.818957, -0.746448, -0.850098, -4.464913, -51.879333, -67.601547, -654.936157
1733469727.663722, -1.548300, 6.064812, 6.093842, -0.942589, -1.087412, -4.291991, -51.348953, -67.929764, -655.060852
1733469727.673729, -0.862960, 6.019622, 6.257695, -1.144674, -1.404465, -4.108547, -50.615204, -67.940781, -655.032043
1733469727.683676, -0.454000, 5.554548, 5.761347, -1.319455, -1.662299, -3.941565, -50.376114, -67.857056, -655.361694
1733469727.693672, -0.212186, 5.087529, 4.749049, -1.460533, -1.773397, -3.782059, -49.881424, -67.870316, -655.924072
1733469727.703675, 0.138864, 4.846014, 3.840748, -1.572825, -1.790740, -3.600235, -49.643845, -67.598053, -656.150757
1733469727.713665, 0.626832, 4.549881, 3.023278, -1.643678, -1.743692, -3.416821, -49.657532, -67.514725, -656.429443
1733469727.723666, 1.085920, 4.122067, 2.438943, -1.684380, -1.668279, -3.235827, -49.407669, -67.239929, -657.011841
1733469727.733670, 1.532289, 3.880402, 2.189497, -1.702866, -1.643714, -3.050233, -49.327835, -66.940063, -657.188904
1733469727.743675, 2.166004, 3.710115, 2.208052, -1.708696, -1.679041, -2.832220, -49.517578, -66.523010, -657.342041
1733469727.753668, 2.968511, 3.632453, 2.385074, -1.731867, -1.787397, -2.568903, -49.544159, -65.940842, -657.468018
1733469727.763667, 3.649811, 3.688567, 2.678962, -1.807315, -1.926815, -2.270340, -49.884979, -65.398193, -657.443542
1733469727.773672, 4.055778, 3.670311, 2.626140, -1.977115, -1.981270, -1.938022, -50.149536, -64.698517, -657.868225
1733469727.783723, 4.542698, 3.433734, 2.318186, -2.242485, -1.895655, -1.580006, -50.703705, -63.859344, -658.622437
1733469727.793681, 5.046827, 2.999037, 2.063802, -2.591686, -1.742258, -1.213325, -51.305923, -62.682022, -658.610352
1733469727.803670, 5.432444, 2.582446, 1.621323, -2.987832, -1.520373, -0.818904, -51.365646, -61.448975, -659.810303
1733469727.813675, 5.750124, 2.464531, 0.977134, -3.391460, -1.248000, -0.434750, -51.930740, -60.129990, -660.236572
1733469727.823729, 5.852177, 2.625392, 0.341174, -3.746372, -1.028180, -0.084007, -52.414429, -58.266205, -660.866333
1733469727.833687, 6.120178, 3.055750, -0.279972, -3.960259, -0.989226, 0.252658, -53.141891, -56.487961, -661.794189
1733469727.843670, 6.210110, 3.655048, -0.581043, -3.962390, -1.303755, 0.577112, -53.843643, -54.524399, -661.855408
1733469727.853675, 6.013187, 4.274997, -1.007360, -3.767003, -1.798542, 0.872971, -54.727158, -52.682327, -661.913391
1733469727.863669, 5.613206, 4.726154, -1.818247, -3.473069, -2.362588, 1.182787, -55.894089, -50.960846, -661.657349
1733469727.873713, 5.423914, 4.564845, -2.615665, -3.218765, -2.902512, 1.507474, -57.495865, -49.044556, -661.912720
1733469727.883672, 5.161151, 4.021810, -3.255516, -3.058856, -3.389217, 1.813442, -59.206940, -47.333557, -660.973877
1733469727.893677, 4.492719, 4.166210, -4.156334, -2.947817, -3.700523, 2.089250, -60.700043, -45.347534, -659.237183
1733469727.903667, 3.863194, 5.209035, -5.199458, -2.839654, -3.861617, 2.423896, -62.167969, -43.473312, -659.243896
1733469727.913667, 3.487454, 6.678775, -6.069002, -2.751856, -3.970651, 2.837268, -63.770203, -41.532700, -657.969055
1733469727.923679, 3.100042, 7.766192, -6.943484, -2.631682, -4.060790, 3.311932, -65.162460, -39.184448, -657.084106
1733469727.933664, 2.342876, 8.638130, -7.968053, -2.485912, -4.115100, 3.824799, -66.281342, -37.039398, -655.396484
1733469727.943667, 0.599897, 10.301502, -8.774300, -2.396248, -4.114587, 4.332168, -67.310287, -34.645782, -653.949097
1733469727.953656, -1.580472, 12.048969, -9.976040, -2.345740, -4.026678, 4.841626, -67.954666, -32.032135, -652.487061
1733469727.962788, -4.046500, 13.056180, -11.962329, -2.314428, -3.746392, 5.308511, -68.468246, -29.529999, -650.833862
1733469727.973671, -6.937648, 13.120973, -14.604780, -2.308927, -3.184109, 5.644125, -68.952255, -26.450897, -649.556458
1733469727.983713, -9.775974, 12.154015, -17.525855, -2.303655, -2.409408, 5.784392, -68.758575, -23.858521, -648.900269
1733469727.993659, -12.329241, 10.918757, -20.545243, -2.120899, -1.617702, 5.711945, -68.183731, -21.589233, -647.394897
1733469728.003663, -13.944279, 9.558401, -23.285706, -1.600366, -1.019130, 5.539314, -67.520996, -19.679260, -647.868652
1733469728.013666, -14.441525, 8.682872, -24.536976, -0.829997, -0.803080, 5.376494, -66.636368, -17.568527, -646.814941
1733469728.023672, -14.786440, 9.126098, -24.151509, 0.010930, -0.868788, 5.271333, -65.302338, -15.872498, -646.690796
1733469728.033669, -15.224878, 9.735722, -22.999449, 0.693650, -1.015614, 5.242116, -64.220535, -14.706085, -646.673096
1733469728.043073, -15.971420, 10.307786, -21.570709, 1.119808, -1.138527, 5.252242, -63.430679, -13.505890, -646.339905
1733469728.053677, -17.129765, 10.237606, -20.800824, 1.378892, -1.170718, 5.190476, -62.077606, -12.552536, -646.445312
1733469728.063667, -18.987665, 10.496928, -20.609138, 1.572561, -1.148264, 5.064868, -61.027695, -11.531921, -646.548279
1733469728.073673, -21.448605, 11.416002, -20.683807, 1.864586, -1.112509, 4.866168, -60.134735, -11.100327, -646.382507
1733469728.083678, -23.982269, 11.719467, -21.084687, 2.395998, -1.156423, 4.545591, -59.123444, -10.817825, -647.301514
1733469728.093668, -25.948507, 11.340585, -21.347899, 3.148363, -1.255662, 4.115397, -58.535797, -11.385864, -647.227295
1733469728.103668, -27.068096, 10.874314, -20.669891, 3.987322, -1.381916, 3.632128, -57.700363, -11.998367, -649.007935
1733469728.113670, -27.682209, 11.076624, -18.811542, 4.776400, -1.450474, 3.188375, -57.354370, -12.943680, -649.765198
1733469728.123666, -28.225243, 11.633875, -15.931018, 5.387622, -1.438461, 2.828187, -56.869385, -14.365921, -651.251160
1733469728.133667, -29.191304, 11.799673, -12.677148, 5.784094, -1.251338, 2.518810, -56.494949, -15.905304, -652.338135
1733469728.143665, -30.663289, 11.245565, -9.690531, 5.913294, -0.870067, 2.166154, -56.289536, -17.706360, -653.439331
1733469728.153655, -32.144252, 10.144532, -6.964583, 5.790391, -0.416670, 1.690472, -56.359161, -19.699738, -654.592712
1733469728.163705, -33.233913, 8.776096, -4.899883, 5.502797, 0.038571, 1.094930, -56.135956, -21.769577, -656.434082
1733469728.173675, -33.578379, 7.519140, -3.421015, 5.189917, 0.398547, 0.408803, -55.965897, -23.690048, -656.947205
1733469728.183663, -33.129466, 6.956802, -2.417695, 4.982765, 0.618837, -0.272667, -55.451447, -25.853088, -657.699890
1733469728.193655, -31.985487, 7.409456, -1.515679, 4.882203, 0.672489, -0.849589, -55.360703, -28.258575, -657.880493
1733469728.203662, -30.423719, 8.309226, -0.396989, 4.840705, 0.554416, -1.304843, -55.511734, -30.694672, -658.968323
1733469728.213720, -29.290364, 9.169044, 0.620398, 4.819336, 0.403761, -1.678049, -55.449966, -33.319763, -659.606812
1733469728.223681, -28.498931, 9.258079, 1.289128, 4.732076, 0.376587, -2.054051, -55.660568, -36.032471, -659.832764
1733469728.233774, -27.922676, 8.879196, 2.144157, 4.543052, 0.393076, -2.491395, -55.769135, -38.678894, -659.947754
1733469728.243790, -27.308414, 8.517672, 2.972102, 4.287729, 0.457924, -2.984820, -55.773956, -41.071457, -659.804077
1733469728.253697, -26.001928, 8.258200, 3.204489, 4.020192, 0.576799, -3.481749, -55.750229, -43.670059, -659.974182
1733469728.263726, -24.196401, 8.281544, 3.486107, 3.763061, 0.643398, -3.940394, -55.421387, -46.445190, -660.097900
1733469728.273676, -22.127212, 8.543260, 3.861398, 3.550191, 0.630716, -4.327046, -54.894119, -48.762314, -660.065979
1733469728.283651, -17.494132, 9.037662, 4.060416, 3.258086, 0.523272, -4.798199, -54.464172, -51.248291, -660.053162
1733469728.293647, -15.293113, 8.931120, 4.239233, 3.157395, 0.435966, -4.889171, -53.968307, -53.599365, -658.662354
1733469728.303649, -13.446734, 8.670601, 4.394108, 3.033295, 0.381873, -4.923116, -53.429749, -55.790207, -659.124023
1733469728.313647, -11.756578, 8.329577, 4.675876, 2.878203, 0.360863, -4.901603, -52.425690, -58.042221, -658.792480
1733469728.323654, -10.102334, 7.958626, 4.954351, 2.705635, 0.364128, -4.805617, -51.632812, -59.898468, -658.381042
1733469728.333665, -8.527398, 7.568371, 5.385457, 2.508472, 0.362831, -4.661570, -50.528152, -61.980362, -657.839233
1733469728.343650, -6.896049, 7.142053, 6.186318, 2.284369, 0.228813, -4.473287, -49.824783, -63.606308, -657.766541
1733469728.353667, -5.316175, 6.599168, 7.246201, 2.009296, -0.052895, -4.251077, -48.683395, -64.978821, -657.366821
1733469728.363657, -4.103662, 5.669918, 7.867197, 1.687729, -0.374843, -4.071977, -48.162277, -66.332108, -657.117432
1733469728.373648, -3.402161, 4.673033, 8.151808, 1.327807, -0.724040, -3.965388, -47.609222, -67.456223, -656.876770
1733469728.383656, -2.937386, 3.892673, 8.187870, 0.961009, -1.085077, -3.939775, -47.181396, -68.206589, -656.559937
1733469728.393661, -2.379388, 3.175011, 7.969699, 0.627582, -1.467517, -3.959578, -46.706894, -69.002747, -655.694580
1733469728.403656, -1.695544, 2.659359, 7.510461, 0.340900, -1.801710, -3.984866, -46.123291, -69.527573, -656.175354
1733469728.413663, -0.953042, 2.548777, 7.046435, 0.072522, -2.115091, -3.974969, -46.054291, -70.098953, -655.560181
1733469728.423648, -0.200365, 2.639009, 6.637625, -0.176360, -2.394415, -3.919641, -45.783417, -70.326233, -656.096252
1733469728.433653, 0.579846, 2.821417, 5.989544, -0.398930, -2.556082, -3.797839, -45.582703, -70.406860, -655.531433
1733469728.443654, 1.334767, 2.942324, 5.215918, -0.606539, -2.602740, -3.626317, -45.636780, -70.442825, -655.454041
1733469728.453655, 2.126949, 2.968212, 4.631583, -0.806786, -2.593140, -3.404073, -45.711563, -70.573715, -655.733948
1733469728.463642, 2.932747, 2.985569, 4.285322, -0.993614, -2.612634, -3.146774, -45.428635, -70.437347, -655.832581
1733469728.473658, 3.543867, 2.880823, 3.922002, -1.143270, -2.672617, -2.865952, -46.010880, -70.210785, -656.225464
1733469728.483654, 4.023456, 2.711733, 3.365350, -1.231863, -2.712534, -2.572064, -46.350327, -69.985016, -656.136475
1733469728.493651, 4.446032, 2.615216, 2.932897, -1.288049, -2.790190, -2.267644, -47.004242, -69.769089, -655.956421
1733469728.503652, 4.804115, 2.391508, 2.742259, -1.325209, -2.918132, -1.958040, -47.429138, -69.181122, -656.764038
1733469728.513659, 5.129427, 2.118569, 2.548927, -1.367698, -3.046880, -1.645953, -48.118179, -68.699844, -656.776245
1733469728.523651, 5.264401, 1.950077, 2.236783, -1.426802, -3.122450, -1.339368, -48.910385, -68.251984, -656.946472
1733469728.533640, 5.481076, 1.835604, 1.926883, -1.515178, -3.172398, -1.020206, -49.983322, -67.849564, -657.085083
1733469728.543642, 5.796811, 1.723676, 1.757643, -1.629872, -3.190862, -0.681928, -50.900391, -67.241776, -657.090698
1733469728.553656, 6.133196, 1.822287, 1.724573, -1.784389, -3.223170, -0.316986, -52.057953, -66.431198, -657.141968
1733469728.563639, 6.322039, 2.278233, 1.817798, -1.973805, -3.292174, 0.082599, -53.708923, -65.503006, -657.257507
1733469728.573638, 6.568343, 2.827702, 1.788469, -2.168136, -3.415024, 0.541211, -54.945862, -64.440598, -657.035950
1733469728.583651, 6.838588, 3.505111, 1.797148, -2.346544, -3.578919, 1.063044, -56.632690, -63.282532, -656.710693
1733469728.593647, 6.875549, 4.463690, 1.742530, -2.555386, -3.784990, 1.665009, -58.316101, -61.812225, -655.706299
1733469728.603646, 6.391321, 5.404910, 1.539322, -2.833755, -3.999437, 2.279032, -60.306961, -59.962280, -656.287964
1733469728.613638, 5.524471, 6.030395, 0.941071, -3.185962, -4.165496, 2.852762, -62.451492, -58.049164, -655.838806
1733469728.623646, 4.223671, 6.764069, -0.020500, -3.546095, -4.299868, 3.358442, -64.612335, -55.603394, -654.911499
1733469728.633637, 2.801366, 7.750480, -1.512986, -3.805044, -4.418886, 3.858092, -66.019257, -52.959488, -654.265198
1733469728.643647, 1.320701, 9.362825, -3.610157, -3.911345, -4.457050, 4.428929, -67.567581, -49.926117, -653.015320
1733469728.653649, -0.675763, 11.744607, -6.242881, -3.921212, -4.295940, 5.092966, -69.306580, -46.469818, -651.774475
1733469728.662768, -3.010409, 13.418154, -9.413702, -3.872319, -3.933082, 5.775371, -69.306580, -46.469818, -651.774475
1733469728.673651, -5.756409, 13.792397, -12.343157, -3.778590, -3.489433, 6.308893, -71.803101, -39.239960, -648.800110
1733469728.683645, -9.158270, 13.790602, -15.045313, -3.645349, -2.937015, 6.582163, -71.803101, -39.239960, -648.800110
1733469728.693645, -12.752416, 13.151948, -17.984794, -3.468880, -2.318196, 6.582437, -72.262756, -35.738724, -647.843445
1733469728.703653, -16.372748, 12.516737, -20.427329, -3.215406, -1.798460, 6.324624, -72.303024, -32.014420, -646.493164
1733469728.713645, -19.298762, 11.790396, -22.876298, -2.819007, -1.353575, 5.870689, -72.282181, -28.732773, -646.095642
1733469728.723652, -20.967071, 10.855759, -25.110387, -2.314800, -0.995163, 5.350962, -71.843903, -25.746613, -644.821045
1733469728.733651, -21.420623, 10.654347, -26.764032, -1.728932, -0.636956, 4.886263, -71.398071, -23.360489, -644.233643
1733469728.743645, -20.174740, 10.358214, -28.105833, -0.979095, -0.362084, 4.645152, -70.286377, -21.169464, -643.490967
1733469728.753655, -18.270153, 10.616489, -28.773366, -0.042333, -0.198484, 4.668512, -69.784775, -19.452026, -644.191101
1733469728.763643, -16.983718, 11.375151, -28.034306, 0.966985, -0.186796, 4.869967, -68.783295, -17.718048, -643.651611
1733469728.773656, -16.374693, 11.431714, -26.190022, 1.957292, -0.230311, 5.173135, -67.701355, -16.500504, -644.097656
1733469728.783638, -17.255909, 11.227010, -24.034792, 2.801723, -0.216771, 5.397783, -66.493423, -15.505859, -644.455139
1733469728.793638, -19.765781, 10.511144, -21.300763, 3.329488, -0.068455, 5.400406, -64.875214, -14.765305, -645.509277
1733469728.803689, -22.477513, 8.406790, -18.529176, 3.532984, 0.162782, 5.144585, -64.103271, -14.085678, -645.526733
1733469728.813634, -24.797644, 6.590938, -15.475671, 3.558854, 0.236782, 4.651306, -62.836334, -13.546570, -647.316101
1733469728.823634, -26.352978, 6.463596, -12.896966, 3.603696, 0.151067, 4.142823, -61.704514, -13.565186, -647.984070
1733469728.833648, -27.435905, 7.031471, -10.798298, 3.695798, -0.202693, 3.625614, -60.609650, -13.739075, -648.552856
1733469728.843696, -28.617144, 7.768287, -9.394698, 3.913544, -0.619939, 3.148848, -59.105850, -14.052460, -649.709961
1733469728.853645, -30.219763, 8.625560, -9.373449, 4.241066, -0.824984, 2.709544, -58.303925, -14.662384, -650.375488
1733469728.863638, -31.955559, 8.275857, -9.378836, 4.532557, -0.698387, 2.214786, -57.902328, -15.359375, -651.237122
1733469728.873645, -33.468545, 7.742699, -9.274239, 4.781647, -0.230059, 1.732267, -57.272339, -16.755997, -652.388672
1733469728.883712, -34.740914, 7.440431, -8.451382, 4.873658, 0.401842, 1.197907, -56.948105, -17.972046, -653.488831
1733469728.893647, -35.219006, 7.055114, -6.790405, 4.796457, 0.992352, 0.641373, -56.430359, -19.588684, -654.529785
1733469728.903641, -34.812590, 7.347655, -5.163844, 4.677181, 1.415381, 0.134434, -55.379211, -21.386749, -655.250610
1733469728.912899, -33.960553, 8.125023, -3.609708, 4.628772, 1.610174, -0.267512, -54.800751, -23.298035, -657.299194
1733469728.923637, -33.168971, 8.822633, -2.088342, 4.673032, 1.570853, -0.646784, -54.263153, -25.200653, -657.783386
1733469728.933643, -32.657360, 8.844630, -0.395642, 4.745021, 1.346380, -1.135679, -53.748825, -27.597275, -659.067505
1733469728.943642, -31.964537, 8.212261, 0.941969, 4.806094, 1.064862, -1.722462, -53.735046, -30.166794, -659.920776
1733469728.953640, -30.743794, 7.618050, 1.904737, 4.837052, 0.831686, -2.353086, -53.646393, -32.723007, -660.173706
1733469728.963637, -28.897715, 7.741202, 2.860921, 4.797973, 0.673371, -2.907976, -53.753311, -35.473618, -660.670837
1733469728.973652, -26.652851, 8.078934, 4.039766, 4.648504, 0.596119, -3.367364, -53.769440, -38.323441, -660.969971
1733469728.983641, -24.340801, 8.327782, 5.527463, 4.362232, 0.501391, -3.725758, -53.874359, -41.057968, -660.791870
1733469728.993641, -22.065860, 8.403349, 6.955006, 3.978880, 0.352217, -4.004998, -53.809967, -43.837555, -661.064819
1733469729.003640, -19.905991, 7.934534, 7.657405, 3.576457, 0.212568, -4.238701, -53.741119, -46.492035, -660.257690
1733469729.013630, -17.918056, 7.320421, 7.747188, 3.207350, 0.117608, -4.445646, -53.897644, -48.750427, -661.224304
1733469729.023626, -16.154576, 6.728754, 7.899369, 2.836979, 0.040192, -4.641761, -53.639938, -50.950607, -660.611328
1733469729.033633, -14.488062, 6.208315, 8.084920, 2.405255, -0.011840, -4.839421, -53.631119, -52.908340, -660.470520
1733469729.043622, -12.792818, 5.924901, 8.112752, 1.958623, -0.101532, -5.018499, -53.171860, -54.819946, -660.040405
1733469729.053637, -10.869227, 5.914426, 7.915081, 1.603481, -0.238750, -5.126712, -52.651230, -56.582703, -660.036499
1733469729.063638, -8.957606, 5.923704, 7.782951, 1.325186, -0.496419, -5.165516, -52.303864, -58.080048, -659.573425
1733469729.073635, -7.204153, 6.038027, 7.834127, 1.078170, -0.850203, -5.129042, -51.865265, -59.379547, -659.442505
1733469729.083634, -5.674707, 6.083367, 7.620594, 0.853520, -1.190572, -5.023907, -51.442596, -60.571381, -659.143982
1733469729.093630, -4.496011, 6.006603, 7.181258, 0.641690, -1.442071, -4.879383, -51.149124, -61.611252, -658.790405
1733469729.103634, -3.600131, 5.741296, 6.684611, 0.376815, -1.530766, -4.737523, -50.663712, -62.546509, -658.445068
1733469729.113630, -2.848202, 5.486762, 6.195595, 0.040975, -1.481159, -4.574934, -50.355148, -63.365463, -658.183899
1733469729.123626, -2.169745, 5.416432, 5.655853, -0.302027, -1.316578, -4.397924, -50.041931, -63.649155, -657.931946
1733469729.133677, -1.594538, 5.283255, 5.259911, -0.612583, -1.164091, -4.212955, -49.701492, -64.187164, -658.264282
1733469729.143620, -1.038186, 5.175067, 5.129727, -0.880216, -1.122890, -4.031211, -49.335342, -64.451675, -658.539001
1733469729.153630, -0.554407, 4.978293, 5.058350, -1.085836, -1.241278, -3.872613, -48.946548, -64.439499, -658.689453
1733469729.163626, -0.244209, 4.660762, 4.757877, -1.214511, -1.445838, -3.739831, -48.951660, -64.526230, -659.011230
1733469729.173677, 0.007931, 4.393210, 4.158878, -1.279308, -1.661100, -3.608605, -48.639328, -64.313873, -658.872864
1733469729.183625, 0.269946, 4.037372, 3.574543, -1.321592, -1.859132, -3.480432, -48.448242, -64.159973, -659.361023
1733469729.193620, 0.618901, 3.555689, 2.936339, -1.354305, -2.030963, -3.346126, -48.646561, -63.895020, -659.403687
1733469729.203619, 0.966958, 3.120692, 2.259827, -1.357169, -2.158996, -3.185903, -48.462326, -63.715546, -659.735413
1733469729.213684, 1.234211, 2.816479, 1.611597, -1.339913, -2.269349, -3.019235, -49.176834, -63.446304, -660.008667
1733469729.223619, 1.629105, 2.544737, 1.195754, -1.324450, -2.411307, -2.854838, -49.102295, -63.256485, -659.941528
1733469729.233621, 2.168698, 2.267309, 0.838719, -1.307967, -2.593096, -2.669472, -49.807983, -63.033844, -659.666748
1733469729.243618, 2.815432, 2.085050, 0.648679, -1.291497, -2.823530, -2.450711, -50.086258, -62.846329, -659.925720
1733469729.253686, 3.625420, 2.168698, 0.605434, -1.319394, -3.043458, -2.180724, -50.877502, -62.453812, -659.778625
1733469729.263622, 4.276044, 2.446126, 0.559495, -1.414857, -3.262677, -1.853735, -51.817368, -62.413666, -659.726379
1733469729.273618, 4.872350, 2.787749, 0.406715, -1.567462, -3.441550, -1.466982, -53.208557, -61.672821, -659.293213
1733469729.283616, 5.365406, 3.219303, 0.124498, -1.758211, -3.615869, -1.032791, -54.325180, -60.907669, -658.972168
1733469729.293676, 5.828385, 3.733159, -0.224307, -1.988176, -3.798588, -0.516802, -55.843109, -60.114899, -658.558594
1733469729.303617, 6.195895, 4.091691, -0.958279, -2.177875, -3.972003, 0.049186, -57.477554, -59.113434, -658.461243
1733469729.313614, 6.165219, 4.269011, -2.221670, -2.272681, -4.044523, 0.615925, -59.019241, -58.016602, -657.957642
1733469729.323667, 5.935824, 4.372411, -3.706075, -2.296313, -4.034754, 1.180210, -60.926788, -56.622437, -657.375244
1733469729.333627, 5.578340, 4.618116, -4.969614, -2.278794, -3.946027, 1.739921, -62.648102, -55.171585, -657.141418
1733469729.343629, 5.005677, 5.074660, -6.175245, -2.246025, -3.731931, 2.274885, -64.297104, -53.731400, -656.385681
1733469729.353629, 4.291457, 5.712416, -7.053168, -2.246738, -3.424475, 2.788475, -66.026398, -51.957947, -655.787231
1733469729.363677, 3.533542, 6.249764, -7.554903, -2.313933, -3.109811, 3.252834, -67.499390, -50.165726, -654.952209
1733469729.373614, 2.969409, 6.240786, -8.004714, -2.389757, -2.867837, 3.666183, -68.699783, -47.938950, -653.816101
1733469729.383617, 2.628684, 6.116287, -8.404995, -2.390930, -2.792877, 4.093105, -69.951187, -45.784424, -653.526978
1733469729.393622, 2.286313, 5.875969, -8.955362, -2.336345, -2.899079, 4.520681, -71.459930, -43.408401, -652.001465
1733469729.403618, 1.089811, 5.812972, -9.574712, -2.196515, -3.077973, 4.864869, -72.270172, -40.943024, -651.385742
1733469729.413617, -0.958878, 6.414366, -10.359711, -1.977704, -3.213552, 5.144240, -73.169174, -38.246292, -649.968079
1733469729.423682, -3.203891, 7.590966, -11.214141, -1.695517, -3.266678, 5.390933, -73.275330, -35.676498, -648.918579
1733469729.433609, -5.390246, 8.766369, -12.340015, -1.345793, -3.183039, 5.643129, -73.639572, -32.971024, -647.143677
1733469729.443630, -7.445818, 9.193285, -13.585299, -0.960273, -2.913660, 5.874915, -73.754944, -30.290375, -646.002563
1733469729.453622, -9.428067, 9.255834, -14.670022, -0.610431, -2.475894, 6.096763, -73.713409, -27.770050, -644.645508
1733469729.463612, -11.477653, 9.037812, -15.332168, -0.351711, -1.929680, 6.258523, -73.380661, -25.277969, -643.791626
1733469729.473155, -13.842077, 8.520515, -15.981296, -0.142713, -1.281861, 6.282629, -72.760712, -22.922928, -643.137451
1733469729.483608, -16.148890, 8.655937, -16.146496, 0.011035, -0.731719, 6.193009, -71.293015, -20.649490, -642.880127
1733469729.493664, -18.244714, 9.670629, -15.816096, 0.132003, -0.402391, 6.060695, -70.298782, -18.722260, -642.127319
1733469729.503607, -20.353108, 11.169998, -15.352669, 0.301550, -0.453555, 5.812929, -69.050827, -16.578781, -642.610718
1733469729.513636, -22.133197, 11.837532, -15.142428, 0.667589, -0.931786, 5.494223, -68.025314, -14.999939, -641.752625
1733469729.523610, -23.679552, 11.790396, -16.060903, 1.294705, -1.537308, 5.125497, -66.919769, -13.604294, -641.775513
1733469729.533613, -25.916485, 11.394455, -17.466000, 2.080503, -2.007601, 4.619700, -66.442078, -12.910690, -641.422241
1733469729.543617, -28.133964, 10.490045, -18.252196, 2.867326, -2.265717, 3.990467, -65.525192, -12.359070, -641.828369
1733469729.553616, -29.578715, 9.917681, -18.180520, 3.524646, -2.362602, 3.307243, -65.399261, -12.237183, -641.972351
1733469729.563611, -30.037355, 10.037391, -17.624167, 4.094015, -2.258894, 2.711119, -64.928970, -12.480698, -642.446045
1733469729.573606, -29.604902, 10.666468, -17.564612, 4.739206, -1.830750, 2.349794, -64.640015, -13.177124, -643.484680
1733469729.583606, -29.041367, 11.150396, -17.224336, 5.476759, -1.097443, 2.225525, -63.909073, -13.914703, -644.576660
1733469729.593610, -29.186366, 11.768549, -15.871013, 6.233122, -0.068018, 2.297194, -63.449051, -15.191879, -645.810669
1733469729.603616, -30.509611, 12.402563, -12.643629, 6.758566, 0.955950, 2.341172, -62.761826, -16.642838, -648.430969
1733469729.613615, -32.937780, 11.872996, -7.674015, 6.770608, 1.693365, 2.060499, -62.060913, -18.511963, -650.492798
1733469729.623615, -34.951005, 10.084527, -2.404377, 6.339981, 1.852090, 1.395743, -61.730225, -20.728745, -653.141724
1733469729.633614, -35.364753, 7.881862, 1.893814, 5.763836, 1.292586, 0.449414, -61.118698, -22.678116, -653.861511
1733469729.643630, -34.075625, 6.276400, 4.351910, 5.336679, 0.204200, -0.506188, -60.749191, -24.909195, -654.763062
1733469729.653618, -32.030079, 6.672790, 4.033931, 5.264848, -0.760685, -1.172115, -61.172897, -27.205643, -655.044434
1733469729.663630, -30.385412, 7.499837, 2.431611, 5.315259, -1.120657, -1.639834, -61.508621, -29.818024, -655.594910
1733469729.673615, -29.488484, 7.726089, 1.686565, 5.245832, -0.985918, -2.018963, -62.037003, -32.378525, -655.740479
1733469729.683614, -29.015180, 7.892186, 1.832462, 5.023463, -0.524117, -2.375158, -62.370605, -35.142502, -655.810181
1733469729.693604, -28.520628, 7.983316, 2.377592, 4.717411, 0.033356, -2.759774, -62.619263, -38.022003, -655.338623
1733469729.703618, -27.510275, 8.133103, 3.431490, 4.413796, 0.455160, -3.149524, -62.801559, -40.508102, -655.947144
1733469729.713605, -26.122835, 8.302194, 4.533870, 4.151477, 0.679792, -3.534741, -62.552277, -43.350830, -655.690918
1733469729.723611, -24.601170, 8.622717, 5.677550, 3.928314, 0.736058, -3.906862, -62.257538, -46.005280, -656.122314
1733469729.733335, -22.951416, 8.905532, 6.757784, 3.696006, 0.662670, -4.242299, -62.129974, -48.818619, -655.733826
1733469729.743669, -21.078851, 8.930671, 7.579594, 3.420110, 0.524375, -4.543621, -61.834869, -51.594421, -655.829712
1733469729.752792, -19.082386, 8.745570, 7.968651, 3.125220, 0.415065, -4.789619, -61.279144, -53.972382, -654.965820
1733469729.763601, -17.057190, 8.710405, 7.971345, 2.826877, 0.388861, -4.950696, -60.688507, -56.420624, -655.240479
1733469729.773611, -14.944008, 8.603414, 8.057386, 2.513655, 0.382115, -5.040222, -60.089920, -58.641190, -654.776245
1733469729.783615, -12.930185, 8.444649, 8.272865, 2.173495, 0.345247, -5.078511, -59.062027, -60.628540, -654.640015
1733469729.793615, -11.158177, 8.252364, 8.386440, 1.816280, 0.271274, -5.090997, -58.311157, -62.627045, -653.533325
1733469729.803607, -9.608081, 7.976732, 8.269124, 1.495794, 0.129398, -5.078833, -57.420944, -64.074478, -653.848083
1733469729.813605, -8.114698, 7.519439, 7.971345, 1.269794, -0.058773, -5.036382, -56.195312, -65.900620, -654.067139
1733469729.823600, -6.800580, 6.970419, 7.777714, 1.096429, -0.289706, -4.981589, -55.164383, -67.140030, -653.551514
1733469729.833610, -5.670068, 6.450877, 7.777115, 0.909699, -0.530840, -4.919609, -54.297104, -68.374390, -653.210205
1733469729.843604, -4.645499, 5.958569, 7.864653, 0.667756, -0.750982, -4.844936, -53.339462, -69.420883, -653.113647
1733469729.852981, -3.777152, 5.534496, 7.989301, 0.359871, -0.956636, -4.755500, -52.782318, -70.181610, -652.628235
1733469729.863607, -3.014150, 5.126884, 7.767838, 0.021320, -1.099871, -4.657176, -51.719757, -70.951416, -652.741333
1733469729.873598, -2.372953, 4.768502, 7.296030, -0.295781, -1.186872, -4.551702, -50.780960, -71.538681, -652.948242
1733469729.883607, -1.775301, 4.590433, 6.630891, -0.554170, -1.214018, -4.417456, -49.886871, -72.000671, -653.038025
1733469729.893611, -0.931943, 4.536414, 6.049549, -0.767839, -1.238918, -4.234913, -49.013794, -72.274963, -652.936401
1733469729.903614, -0.024690, 4.412963, 5.777957, -0.952467, -1.310868, -4.017628, -48.599075, -72.196243, -653.497681
1733469729.913609, 0.730980, 4.157082, 5.583278, -1.113655, -1.434973, -3.788198, -47.787216, -72.188080, -653.802979
1733469729.923595, 1.363348, 3.818602, 5.454141, -1.276815, -1.604696, -3.550417, -47.664047, -72.022598, -653.888184
1733469729.933594, 1.885733, 3.409194, 5.268141, -1.460614, -1.779098, -3.317294, -47.440674, -71.691956, -654.277222
1733469729.943612, 2.286911, 3.024775, 4.790798, -1.648615, -1.904207, -3.085497, -47.294174, -71.316895, -655.025635
1733469729.953608, 2.662652, 2.645443, 4.069095, -1.819248, -1.913431, -2.832396, -46.915222, -70.882553, -655.163818
1733469729.963606, 3.064129, 2.270900, 3.231424, -1.961973, -1.813723, -2.550223, -46.926651, -70.262772, -655.803711
1733469729.973603, 3.473089, 1.898602, 2.509273, -2.070571, -1.634979, -2.245810, -46.674286, -69.560715, -656.694946
1733469729.983591, 3.929184, 1.400758, 1.965490, -2.166984, -1.382219, -1.950677, -46.891281, -68.891144, -657.229187
1733469729.993604, 4.185214, 1.146673, 1.617134, -2.255498, -1.149611, -1.640122, -46.908264, -68.105148, -657.025452
1733469730.003591, 4.564097, 1.257255, 1.414973, -2.317128, -0.973474, -1.299629, -46.914993, -66.954224, -658.465820
1733469730.013591, 5.221155, 1.288829, 1.498172, -2.341455, -0.913821, -0.929657, -47.107285, -66.157120, -658.634888
1733469730.023590, 5.897068, 1.219546, 1.819593, -2.361134, -0.992550, -0.527978, -47.834000, -65.141083, -659.255066
1733469730.033590, 6.436063, 1.381005, 2.293944, -2.409617, -1.201241, -0.102144, -48.490616, -63.863342, -659.900146
1733469730.043601, 6.533776, 1.744924, 2.971504, -2.581522, -1.511908, 0.280250, -49.295868, -62.613663, -660.330383
1733469730.053606, 6.211008, 2.147300, 3.432836, -2.895114, -1.897989, 0.588728, -50.651596, -60.802948, -660.334106
1733469730.063589, 5.602582, 2.983175, 3.201347, -3.238600, -2.357482, 0.843533, -51.937576, -59.130554, -660.808228
1733469730.072707, 5.046528, 4.204517, 2.125303, -3.508603, -2.826230, 1.116307, -51.937576, -59.130554, -660.808228
1733469730.083608, 4.857386, 5.040543, 0.205752, -3.659713, -3.204241, 1.450277, -54.965179, -55.041962, -660.410278
1733469730.093596, 4.701614, 5.665280, -1.826177, -3.691727, -3.448421, 1.852197, -56.449295, -53.265564, -659.712830
1733469730.103596, 4.331111, 6.741174, -3.426252, -3.679845, -3.616292, 2.329704, -58.442047, -50.848068, -660.038513
1733469730.113596, 3.838205, 7.831883, -4.688445, -3.651437, -3.794537, 2.806745, -60.304428, -48.491165, -659.576660
1733469730.123599, 3.050961, 8.571242, -5.995979, -3.526954, -3.993577, 3.256200, -62.208099, -46.241928, -658.750427
1733469730.133589, 2.264466, 9.157821, -7.480384, -3.236737, -4.227161, 3.693438, -63.917892, -44.005096, -657.557983
1733469730.143592, 1.281945, 9.670779, -8.479813, -2.876433, -4.475552, 4.126740, -65.680359, -41.649307, -656.153320
1733469730.153595, -0.171485, 10.448296, -9.063849, -2.590404, -4.652879, 4.549078, -67.242737, -38.969208, -654.652344
1733469730.163602, -2.125602, 10.754006, -9.793183, -2.443592, -4.611178, 4.908167, -68.437088, -36.294067, -653.332886
1733469730.173597, -4.198382, 10.541520, -10.819547, -2.470649, -4.245580, 5.217041, -68.437088, -36.294067, -653.332886
1733469730.183614, -6.388777, 10.635193, -12.252327, -2.724146, -3.478152, 5.441310, -69.450439, -33.468994, -651.917664
1733469730.193592, -8.340201, 10.385448, -14.072220, -3.073347, -2.436523, 5.531193, -69.861374, -30.522095, -650.650330
1733469730.203641, -9.695320, 9.911247, -16.005238, -3.269193, -1.525479, 5.510873, -70.089279, -27.562973, -649.044800
1733469730.213584, -10.507253, 9.835231, -17.319356, -3.091167, -1.141125, 5.430309, -69.707031, -24.888672, -648.948486
1733469730.223584, -10.582072, 9.556905, -18.430115, -2.466906, -1.258012, 5.348300, -69.000443, -22.384918, -647.994934
1733469730.233622, -10.793510, 9.266009, -18.982578, -1.588184, -1.642915, 5.330367, -68.247086, -20.157700, -647.160156
1733469730.243583, -11.919084, 9.443031, -18.469321, -0.912572, -1.911681, 5.357629, -67.452316, -17.767502, -645.776306
1733469730.253592, -14.171579, 10.134356, -17.282245, -0.729819, -1.914300, 5.378602, -66.268417, -15.574219, -644.949280
1733469730.263587, -17.065570, 10.817751, -16.820613, -0.850813, -1.700775, 5.330156, -65.356323, -13.682281, -644.257690
1733469730.273581, -19.893122, 10.898855, -17.921198, -0.848768, -1.501460, 5.171480, -64.192230, -11.851913, -643.463623
1733469730.283585, -22.854600, 11.369166, -20.418350, -0.375230, -1.481730, 4.899744, -63.142578, -10.351837, -642.934570
1733469730.293586, -25.386917, 11.631032, -22.886323, 0.540250, -1.703526, 4.526664, -62.192444, -9.237015, -642.614319
1733469730.303584, -27.425580, 11.321431, -24.305037, 1.684762, -1.981956, 4.032488, -61.563416, -8.549347, -641.800171
1733469730.313598, -28.864645, 11.148600, -24.779389, 2.849980, -2.128444, 3.465098, -60.891296, -8.256866, -642.418457
1733469730.323599, -29.411421, 11.511920, -23.907450, 3.925557, -2.076147, 2.947661, -60.403259, -8.424240, -643.221680
1733469730.333597, -29.317897, 12.393585, -21.676054, 4.920783, -1.837775, 2.612622, -60.033249, -9.178909, -644.494324
1733469730.343595, -29.090149, 13.450026, -19.053506, 5.848742, -1.335312, 2.532155, -59.222336, -10.382492, -645.785339
1733469730.353604, -29.440750, 13.588890, -15.535077, 6.498079, -0.711125, 2.524279, -59.124832, -11.620102, -647.781189
1733469730.363595, -31.341596, 12.796260, -11.123760, 6.673501, -0.019673, 2.276598, -58.579025, -13.288040, -649.797424
1733469730.373594, -33.619080, 11.148450, -7.041796, 6.337152, 0.599066, 1.678793, -58.411530, -15.197632, -651.767273
1733469730.383585, -34.139670, 9.248951, -3.526809, 5.686138, 0.896361, 0.922805, -57.727646, -16.938309, -653.502563
1733469730.393593, -32.872688, 8.324041, -1.341950, 5.120038, 0.832663, 0.235059, -57.246902, -19.015411, -654.786499
1733469730.403590, -30.939819, 8.699332, -0.863259, 4.855808, 0.603632, -0.260249, -56.640213, -20.838089, -654.834595
1733469730.413592, -29.214797, 9.526678, -1.202488, 4.860968, 0.300103, -0.585511, -56.263840, -23.188675, -656.671265
1733469730.423593, -28.246193, 9.867403, -1.521814, 5.023436, 0.137904, -0.841909, -56.467361, -25.325348, -657.152161
1733469730.433586, -28.500577, 9.937583, -1.797746, 5.197308, 0.244896, -1.167050, -56.441788, -27.808731, -657.850525
1733469730.443581, -29.054984, 9.419089, -1.302745, 5.265762, 0.496783, -1.645482, -56.484451, -30.532059, -658.408447
1733469730.453587, -29.049747, 8.956559, -0.056413, 5.181207, 0.797888, -2.229964, -56.499084, -33.439407, -658.954956
1733469730.463590, -28.231528, 9.047987, 1.655441, 4.984325, 1.020136, -2.831857, -56.516357, -36.244156, -659.296204
1733469730.473598, -26.658538, 9.468768, 3.457676, 4.723274, 1.140730, -3.368931, -56.453003, -39.281464, -659.344238
1733469730.483593, -24.659529, 9.990704, 5.085584, 4.422261, 1.106554, -3.809412, -56.055542, -42.085831, -660.001709
1733469730.493594, -22.453122, 10.269928, 6.471826, 4.112087, 0.931208, -4.147390, -55.862900, -44.862762, -659.502930
1733469730.503585, -20.071939, 10.363302, 7.117363, 3.819490, 0.748711, -4.377559, -55.497543, -47.315170, -659.098145
1733469730.513584, -17.583765, 10.036344, 7.457040, 3.537334, 0.590273, -4.491793, -55.192612, -50.015961, -659.623047
1733469730.523582, -15.401151, 9.481039, 7.725939, 3.246265, 0.483224, -4.554733, -54.883926, -52.282303, -659.671936
1733469730.533578, -13.622858, 8.710854, 8.050802, 2.916950, 0.395617, -4.587281, -54.456299, -54.478912, -659.077148
1733469730.543583, -12.130821, 8.028806, 8.367585, 2.544649, 0.319074, -4.620464, -53.632462, -56.480713, -659.457092
1733469730.553585, -10.967389, 7.381174, 8.610896, 2.139898, 0.230599, -4.686553, -53.174164, -58.089417, -658.610840
1733469730.563573, -9.878027, 6.681319, 8.654440, 1.745535, 0.116866, -4.749801, -52.317688, -59.780487, -658.616333
1733469730.573637, -8.721777, 6.175544, 8.652046, 1.388412, -0.057738, -4.783646, -51.594772, -61.134781, -658.484253
1733469730.583586, -7.565079, 5.909339, 8.918401, 1.051931, -0.323660, -4.765567, -50.848953, -62.275208, -658.458984
1733469730.593584, -6.674585, 5.619042, 8.982446, 0.713990, -0.636092, -4.740498, -50.448578, -63.322601, -658.145508
1733469730.603631, -5.837064, 5.310788, 8.789713, 0.382835, -0.988233, -4.729945, -49.774078, -64.123062, -657.836365
1733469730.613572, -4.930110, 4.840776, 8.273164, 0.088508, -1.326834, -4.735522, -49.374390, -64.725204, -657.980469
1733469730.623579, -4.197036, 4.359542, 7.473052, -0.159407, -1.581875, -4.751077, -49.153534, -65.331238, -658.026062
1733469730.633590, -3.417424, 4.030040, 6.460753, -0.377963, -1.701125, -4.748797, -48.845535, -65.613388, -658.044067
1733469730.643586, -2.439093, 3.796156, 5.522525, -0.587221, -1.713467, -4.700542, -47.886200, -65.966278, -657.924194
1733469730.653584, -1.465700, 3.727772, 4.986075, -0.782082, -1.698176, -4.589592, -47.615387, -65.954620, -657.904541
1733469730.662694, -0.554856, 3.809474, 4.608838, -0.959020, -1.649843, -4.417922, -47.198273, -66.045120, -657.766418
1733469730.673593, 0.890793, 3.767576, 4.835240, -1.307774, -1.813564, -3.966635, -47.082352, -66.082031, -657.909119
1733469730.683580, 1.339107, 3.636643, 5.182399, -1.528566, -2.077981, -3.752260, -46.764343, -65.895721, -658.551636
1733469730.693571, 1.564611, 3.449446, 5.092168, -1.764943, -2.378698, -3.569521, -47.003372, -65.424423, -658.945618
1733469730.703579, 1.868824, 3.148076, 4.407127, -1.977414, -2.636544, -3.374339, -47.164169, -65.048599, -659.085693
1733469730.713579, 2.369063, 2.910601, 3.408595, -2.123618, -2.845578, -3.146750, -47.416428, -64.511520, -659.218018
1733469730.723575, 2.934244, 2.628235, 2.328960, -2.179565, -2.992706, -2.874995, -48.018311, -63.935410, -659.454529
1733469730.733578, 3.363404, 2.370409, 1.402553, -2.178622, -3.087692, -2.585201, -48.751266, -63.230377, -660.021912
1733469730.743569, 3.695750, 2.117073, 0.685340, -2.179764, -3.084386, -2.300450, -49.468994, -62.348801, -660.132751
1733469730.753582, 4.076877, 2.150741, 0.391153, -2.218043, -3.080034, -2.006507, -50.206802, -61.569794, -659.925659
1733469730.763571, 4.516362, 2.477699, 0.532710, -2.291691, -3.156109, -1.673650, -51.024200, -60.949066, -659.579712
1733469730.773575, 5.089474, 2.773982, 0.550966, -2.389535, -3.248550, -1.277200, -52.186920, -60.057785, -659.885376
1733469730.783574, 5.671864, 3.045873, 0.358831, -2.528810, -3.329639, -0.806992, -53.552231, -58.995193, -659.660339
1733469730.793572, 6.154595, 3.357569, 0.084994, -2.714541, -3.446579, -0.284891, -54.942062, -57.844467, -659.903870
1733469730.803565, 6.398354, 3.738995, -0.145298, -2.911986, -3.664522, 0.262762, -56.106155, -56.810898, -659.992859
1733469730.813564, 6.342240, 4.267216, -0.646734, -3.073170, -3.947779, 0.806484, -57.985992, -55.488815, -659.685852
1733469730.823562, 5.884798, 4.899584, -1.346290, -3.159137, -4.357113, 1.310021, -59.713638, -53.518967, -658.841553
1733469730.833569, 5.172074, 5.767482, -2.158074, -3.098482, -4.892588, 1.804738, -61.980148, -51.775131, -658.681519
1733469730.843572, 4.264223, 6.876895, -3.412486, -2.805283, -5.499365, 2.297817, -64.178116, -50.048096, -657.705750
1733469730.853565, 3.404405, 7.814225, -5.131373, -2.297014, -6.118572, 2.863898, -66.512360, -48.177139, -655.658020
1733469730.863569, 2.432509, 8.412177, -7.260417, -1.672025, -6.565065, 3.531450, -68.695572, -46.247818, -653.688599
1733469730.873575, 0.849343, 9.403526, -9.486426, -1.061778, -6.646409, 4.253074, -70.738022, -44.301895, -650.879761
1733469730.883573, -1.320552, 10.327838, -11.398046, -0.561412, -6.294141, 4.949037, -72.482025, -42.323975, -648.611328
1733469730.893578, -3.891625, 10.573094, -13.181427, -0.189195, -5.485094, 5.530964, -74.510773, -40.041107, -646.096375
1733469730.903562, -6.989124, 10.109965, -14.364013, 0.034424, -4.365983, 5.874610, -75.845093, -37.738327, -644.611816
1733469730.913561, -9.861866, 8.873660, -14.793473, 0.154549, -3.242467, 5.940237, -76.634216, -35.546158, -643.330688
1733469730.923567, -12.247838, 8.113650, -14.643835, 0.306832, -2.319891, 5.865755, -76.923615, -33.058823, -641.852905
1733469730.933572, -13.821876, 8.076839, -14.467412, 0.497231, -1.515331, 5.793115, -76.607193, -30.801941, -641.187561
1733469730.943561, -14.700997, 8.089110, -14.031668, 0.569830, -0.856452, 5.743732, -76.086594, -28.471786, -640.881714
1733469730.953588, -15.186122, 8.311321, -12.985851, 0.549336, -0.509886, 5.744641, -75.546799, -26.550140, -640.682861
1733469730.963576, -15.990723, 8.425794, -12.297817, 0.551364, -0.504597, 5.690156, -74.864029, -24.448517, -640.468628
1733469730.973562, -17.251420, 8.290223, -11.928810, 0.676132, -0.978619, 5.512686, -74.499207, -22.403641, -640.151672
1733469730.983568, -18.769344, 8.191312, -11.928511, 0.997957, -1.813905, 5.216614, -73.614609, -20.439926, -639.414978
1733469730.993564, -20.801273, 7.925406, -12.982259, 1.475372, -2.681674, 4.813494, -73.337570, -18.903290, -637.699646
1733469731.003558, -23.247249, 7.222109, -14.644883, 2.002930, -3.241629, 4.316505, -72.383850, -17.533524, -637.731262
1733469731.013558, -25.613020, 6.567146, -16.791584, 2.577048, -3.178217, 3.796410, -72.175354, -16.456055, -636.659668
1733469731.022786, -27.303476, 5.980416, -18.915091, 3.204911, -2.498197, 3.306031, -71.663330, -15.803329, -636.570679
1733469731.033571, -28.096705, 5.993884, -19.040637, 3.831453, -1.602854, 2.881888, -71.302933, -15.576248, -636.902100
1733469731.043569, -28.235568, 6.904728, -17.555035, 4.421556, -0.687611, 2.580665, -70.845108, -15.714493, -637.417603
1733469731.053566, -28.302606, 8.134749, -14.507066, 4.831079, -0.130225, 2.311924, -70.699402, -15.845886, -638.172546
1733469731.063566, -28.542325, 9.014169, -10.433632, 5.044770, 0.041684, 2.021942, -70.228348, -16.401230, -639.643982
1733469731.073575, -28.743588, 9.421333, -8.179940, 5.284613, 0.169122, 1.786158, -69.309235, -17.056183, -641.471130
1733469731.083575, -29.569438, 9.571120, -7.215226, 5.619520, 0.430155, 1.553708, -68.792297, -17.983139, -642.754211
1733469731.093564, -31.192108, 9.433005, -6.065560, 5.919191, 0.847273, 1.228510, -68.426041, -19.282196, -643.550781
1733469731.103572, -32.851739, 9.096320, -4.334253, 6.064418, 1.323165, 0.785225, -67.747360, -20.788147, -645.954224
1733469731.113563, -33.656789, 8.679729, -2.359935, 6.053946, 1.807169, 0.294759, -67.362671, -22.359467, -647.482056
1733469731.123565, -33.573740, 8.468890, -0.410755, 5.942746, 2.204911, -0.187964, -66.541840, -24.490280, -649.207397
1733469731.133565, -32.819567, 8.555231, 1.607258, 5.780921, 2.404311, -0.620284, -65.933350, -26.718338, -650.986084
1733469731.143580, -31.681124, 8.906281, 3.833566, 5.587552, 2.293967, -1.019154, -65.150040, -29.092056, -652.841431
1733469731.153559, -30.301016, 9.129689, 5.888689, 5.368216, 1.902880, -1.371192, -64.649094, -31.572754, -653.530273
1733469731.163564, -28.945150, 8.862736, 7.433098, 5.131104, 1.392864, -1.736775, -64.417038, -34.150635, -654.351746
1733469731.173567, -28.003181, 8.166921, 8.326136, 4.863160, 0.900112, -2.157414, -63.954849, -36.665100, -655.245728
1733469731.183558, -27.216237, 7.430255, 8.739435, 4.523246, 0.535459, -2.612913, -63.934860, -39.086105, -655.246704
1733469731.193561, -26.375723, 7.034164, 8.708160, 4.122725, 0.394371, -3.086488, -63.882446, -41.726227, -654.884949
1733469731.203559, -25.450962, 6.882432, 8.276606, 3.737118, 0.467735, -3.535161, -63.839432, -44.309677, -655.585571
1733469731.213556, -24.046613, 6.811204, 8.032696, 3.359830, 0.675717, -3.934397, -63.358948, -46.721039, -655.315796
1733469731.223556, -22.193052, 6.873304, 8.214506, 2.960971, 0.867080, -4.259627, -62.872360, -48.989761, -655.179993
1733469731.233605, -20.043807, 7.224204, 8.479065, 2.582498, 1.007692, -4.484333, -62.146774, -51.366592, -655.412598
1733469731.243561, -17.573739, 7.552359, 8.577377, 2.276455, 1.028270, -4.591206, -61.505646, -53.504990, -655.499268
1733469731.253552, -15.163676, 7.637354, 8.877849, 2.014478, 0.923094, -4.637798, -60.833557, -55.643951, -655.538208
1733469731.263621, -13.182624, 7.472004, 9.263316, 1.729066, 0.744559, -4.649179, -60.058746, -57.513672, -655.489014
1733469731.273553, -11.623101, 7.036559, 9.523685, 1.384529, 0.515248, -4.664684, -59.371552, -59.175293, -655.287231
1733469731.283325, -10.378864, 6.386683, 9.511265, 1.008282, 0.299138, -4.698266, -58.389282, -60.677261, -655.039673
1733469731.293548, -9.237279, 5.748777, 8.762928, 0.673731, 0.223235, -4.742801, -57.783005, -61.993546, -654.509644
1733469731.303557, -8.165724, 5.256170, 7.911490, 0.367365, 0.218901, -4.766516, -56.805405, -62.992615, -654.971924
1733469731.313560, -7.021146, 5.027375, 7.421576, 0.084412, 0.237095, -4.749997, -55.644211, -64.155838, -655.129395
1733469731.323559, -5.770924, 5.021838, 7.050026, -0.140144, 0.179915, -4.677415, -54.385040, -64.834396, -655.328979
1733469731.333554, -4.397550, 4.919336, 6.705411, -0.280210, 0.058758, -4.549854, -53.492432, -65.610382, -655.571655
1733469731.343561, -3.133112, 4.741866, 6.500557, -0.366717, -0.126779, -4.366870, -52.703751, -66.135284, -655.400513
1733469731.353556, -2.108543, 4.458153, 6.447435, -0.476764, -0.348601, -4.170390, -51.840134, -66.555145, -655.925659
1733469731.363559, -1.489493, 4.061913, 6.371719, -0.645326, -0.537827, -3.972939, -50.895996, -66.996765, -655.829834
1733469731.373554, -1.161038, 3.802142, 6.117485, -0.861586, -0.644962, -3.791193, -50.503326, -67.387146, -656.194946
1733469731.382979, -0.979977, 3.343353, 5.787384, -1.098756, -0.707429, -3.647369, -49.556519, -67.243301, -656.694031
1733469731.393573, -0.819864, 2.772934, 5.456685, -1.346309, -0.753778, -3.537197, -49.037186, -67.068909, -656.750488
1733469731.403556, -0.661997, 2.392406, 4.958841, -1.581427, -0.782813, -3.457436, -48.279938, -66.780579, -657.370972
1733469731.413556, -0.456993, 2.144905, 4.356998, -1.769320, -0.824105, -3.382474, -47.820099, -66.531525, -657.960205
1733469731.423546, -0.092775, 2.097919, 3.680935, -1.905954, -0.864574, -3.291567, -47.243439, -65.950607, -658.262390
1733469731.433554, 0.590171, 2.275988, 3.057695, -1.959240, -0.919631, -3.137400, -47.200378, -65.522339, -658.835327
1733469731.443565, 1.634492, 2.601001, 2.768595, -1.930592, -1.092972, -2.890496, -46.961502, -64.948624, -659.304504
1733469731.453544, 2.877531, 2.778321, 2.881721, -1.890191, -1.376967, -2.539711, -46.793457, -64.233490, -659.244507
1733469731.463542, 3.856311, 2.661006, 2.760215, -1.916930, -1.645178, -2.124090, -47.199844, -63.474075, -659.951721
1733469731.473540, 4.362834, 2.417545, 2.292298, -2.023852, -1.802616, -1.686519, -47.771408, -62.760422, -659.960083
1733469731.483541, 4.522797, 2.133084, 1.709610, -2.175878, -1.837333, -1.271028, -48.156845, -61.875839, -660.361877
1733469731.493541, 4.327370, 1.954267, 1.135899, -2.356606, -1.775342, -0.909719, -48.767944, -61.121048, -660.083374
1733469731.503540, 4.086753, 1.858499, 0.680552, -2.562817, -1.693965, -0.602177, -49.388870, -59.622192, -661.062500
1733469731.513553, 3.875464, 1.940650, 0.600346, -2.779106, -1.719735, -0.341186, -50.309174, -58.425415, -661.505737
1733469731.523558, 3.667468, 2.224064, 0.445770, -2.965977, -1.839643, -0.125966, -50.962814, -57.051910, -661.682556
1733469731.533547, 3.629460, 2.602348, -0.001945, -3.079543, -2.020285, 0.090950, -51.983978, -55.530167, -662.047852
1733469731.543547, 4.195389, 2.613570, -0.640599, -3.139873, -2.296360, 0.377466, -53.056427, -54.095779, -662.341614
1733469731.553556, 4.658967, 2.522740, -1.238700, -3.153206, -2.656860, 0.683558, -54.574585, -52.436218, -662.125854
1733469731.563538, 4.674080, 2.998139, -1.977012, -3.090646, -3.052469, 0.988101, -55.896545, -50.898087, -661.566284
1733469731.573539, 4.415806, 3.804536, -2.711882, -2.964972, -3.506638, 1.336315, -57.681168, -49.180176, -661.328979
1733469731.583560, 3.975123, 5.032911, -3.303400, -2.844319, -3.963107, 1.737018, -59.246384, -47.576202, -660.549927
1733469731.593543, 3.213019, 6.367828, -3.892074, -2.739418, -4.409750, 2.162414, -61.305313, -45.805725, -658.733459
1733469731.603548, 2.206855, 7.507618, -4.914847, -2.615588, -4.764273, 2.617362, -63.449875, -43.777878, -658.396606
1733469731.613546, 1.524807, 7.710227, -6.528988, -2.429335, -4.987772, 3.103934, -65.501907, -41.986267, -656.896851
1733469731.623552, 0.709731, 7.228843, -8.167669, -2.210869, -5.056062, 3.568616, -67.222229, -39.839203, -655.605286
1733469731.633544, -0.832434, 7.159112, -9.616760, -2.033587, -4.833035, 3.985726, -68.675262, -37.806854, -653.874756
1733469731.643551, -2.692130, 7.567473, -10.896161, -1.998163, -4.294531, 4.331226, -69.824112, -35.296051, -652.412170
1733469731.653541, -4.429273, 7.956830, -11.906066, -2.100970, -3.550331, 4.598552, -70.512436, -33.191315, -650.753845
1733469731.663547, -6.051943, 8.150461, -13.046903, -2.212041, -2.727445, 4.754457, -70.512436, -33.191315, -650.753845
1733469731.673555, -7.358878, 8.297405, -14.067880, -2.176354, -2.104835, 4.867844, -70.580124, -30.566177, -650.271545
1733469731.683557, -8.213309, 8.912266, -15.017780, -1.938354, -1.759471, 5.060556, -70.403702, -28.181229, -648.809021
1733469731.693535, -9.391855, 9.856330, -16.354043, -1.553708, -1.556121, 5.303658, -70.173203, -25.671753, -647.976685
1733469731.703537, -11.193791, 10.233267, -17.984046, -1.088117, -1.278558, 5.517220, -69.501389, -23.450424, -647.097229
1733469731.713532, -13.554922, 10.134057, -19.471593, -0.660611, -0.859632, 5.598670, -68.775223, -21.098755, -646.576538
1733469731.723541, -16.201413, 9.956437, -19.831621, -0.354083, -0.522736, 5.477086, -68.031174, -19.441483, -646.915710
1733469731.733542, -18.553716, 9.715820, -19.355774, -0.078215, -0.457218, 5.162658, -67.127106, -17.394318, -646.353760
1733469731.743544, -20.113389, 9.415647, -19.364752, 0.350618, -0.676333, 4.804353, -66.020050, -16.004089, -646.315430
1733469731.753536, -21.099800, 9.370307, -20.001011, 1.004419, -0.977990, 4.499707, -64.860352, -14.726135, -646.262451
1733469731.763540, -22.238243, 9.456648, -20.518608, 1.764181, -1.171498, 4.229706, -63.810486, -13.738831, -646.185913
1733469731.773546, -23.345411, 9.157821, -20.608540, 2.476178, -1.153135, 3.957020, -63.172821, -13.287888, -646.058350
1733469731.783542, -24.420408, 8.491934, -19.914670, 3.026956, -0.973004, 3.612663, -62.745804, -13.093781, -646.406982
1733469731.793559, -25.190742, 8.053795, -18.288409, 3.407981, -0.811188, 3.208118, -61.785538, -13.175842, -647.123474
1733469731.803541, -25.502138, 8.331223, -16.468965, 3.764770, -0.702451, 2.906373, -61.023163, -13.632660, -647.566162
1733469731.813644, -25.864561, 8.844031, -15.256751, 4.208521, -0.488492, 2.736264, -60.152390, -13.934128, -649.035645
1733469731.823531, -27.113286, 8.953117, -14.035409, 4.676859, -0.097592, 2.631843, -59.298920, -14.898834, -650.450806
1733469731.833796, -28.955625, 8.472331, -12.316222, 5.030579, 0.446151, 2.447154, -58.738892, -15.927261, -651.659180
1733469731.843585, -31.069106, 7.097012, -9.969605, 5.099351, 1.036334, 2.006192, -58.028229, -17.078430, -652.825745
1733469731.853677, -32.484977, 5.745336, -7.210138, 4.846788, 1.484858, 1.342098, -57.464371, -18.732758, -654.527222
1733469731.863582, -32.375891, 5.249886, -4.394557, 4.464612, 1.493933, 0.623747, -56.715576, -20.248856, -655.586304
1733469731.873565, -31.070004, 5.689222, -2.389264, 4.246291, 1.056543, -0.000802, -56.346390, -22.245529, -657.192383
1733469731.883568, -29.728652, 6.684611, -1.918354, 4.334857, 0.481219, -0.470644, -55.440460, -24.059570, -657.444458
1733469731.893639, -28.804790, 7.362918, -2.161366, 4.565780, 0.000882, -0.843841, -55.617203, -25.926025, -657.815125
1733469731.903532, -28.671313, 7.148787, -2.370260, 4.713815, -0.136122, -1.266979, -55.676651, -28.111176, -657.759949
1733469731.913550, -28.888886, 6.479159, -2.387169, 4.683544, 0.089141, -1.761755, -55.878677, -30.516205, -659.216248
1733469731.923527, -28.650663, 6.286425, -1.749114, 4.501267, 0.470830, -2.279854, -55.971115, -32.916992, -659.518311
1733469731.933529, -27.661559, 6.406285, -0.636259, 4.249946, 0.779756, -2.798244, -55.878220, -35.763870, -659.706665
1733469731.943540, -25.957186, 6.742222, 0.532710, 4.051445, 0.910932, -3.262582, -55.860153, -38.207825, -660.146851
1733469731.953529, -23.800160, 7.208941, 1.496077, 3.931846, 0.887275, -3.651138, -55.783920, -40.966278, -660.347473
1733469731.963543, -21.543924, 7.414992, 2.429516, 3.822937, 0.738698, -3.965903, -55.553284, -43.402863, -660.489624
1733469731.973540, -19.423111, 7.303512, 3.333327, 3.694098, 0.542638, -4.197075, -55.315781, -45.958939, -660.062622
1733469731.983524, -17.553538, 7.163302, 3.837157, 3.537590, 0.438346, -4.365955, -55.152557, -48.661392, -660.230164
1733469731.993573, -15.891962, 6.977302, 4.296395, 3.331284, 0.411196, -4.486332, -54.720093, -50.958344, -660.011719
1733469732.002944, -14.242058, 6.685359, 4.854244, 3.065941, 0.438519, -4.571014, -54.151031, -53.427521, -658.942139
1733469732.013526, -12.564022, 6.353313, 5.412093, 2.760807, 0.451451, -4.602116, -53.873428, -55.326340, -659.483643
1733469732.023520, -10.994174, 6.084714, 5.902455, 2.444732, 0.464972, -4.608963, -52.941605, -57.058456, -659.072449
1733469732.033574, -9.594913, 5.705532, 6.350620, 2.123787, 0.411133, -4.590294, -52.242813, -59.000076, -658.713562
1733469732.043521, -8.193856, 5.374085, 6.820482, 1.807941, 0.279539, -4.537374, -51.589371, -60.549866, -658.974609
1733469732.053517, -7.024887, 4.894796, 7.132925, 1.498366, 0.084922, -4.483878, -50.805161, -61.918716, -658.373779
1733469732.063580, -6.032640, 4.242076, 7.128735, 1.217516, -0.111032, -4.430166, -50.071396, -63.264389, -658.319092
1733469732.073524, -5.092617, 3.595792, 6.920290, 0.986562, -0.312001, -4.377886, -49.181519, -64.004959, -658.090942
1733469732.083532, -4.191798, 3.046173, 6.844125, 0.817987, -0.500334, -4.316569, -48.586014, -64.991776, -657.833313
1733469732.093533, -3.209427, 2.787898, 6.809110, 0.658168, -0.620960, -4.199404, -47.584152, -65.767303, -657.573364
1733469732.103529, -2.129493, 2.826505, 7.035212, 0.415086, -0.693401, -4.021251, -47.066483, -66.444031, -657.130249
1733469732.113534, -1.175852, 2.776975, 7.404966, 0.071307, -0.770959, -3.813425, -46.232605, -66.851227, -657.457458
1733469732.123584, -0.394145, 2.655469, 7.446865, -0.299966, -0.838790, -3.576546, -45.826111, -67.157135, -657.642944
1733469732.133513, 0.296881, 2.528876, 6.957400, -0.631134, -0.870991, -3.322827, -45.226440, -67.135361, -657.646423
1733469732.143531, 0.763750, 2.376694, 6.353164, -0.894309, -0.963355, -3.057409, -44.854752, -67.029129, -657.929443
1733469732.153527, 1.120636, 2.162114, 5.787384, -1.079496, -1.139559, -2.809004, -44.759811, -66.991547, -658.747803
1733469732.163525, 1.260996, 1.742530, 5.147234, -1.190195, -1.353932, -2.608721, -44.634186, -66.705917, -658.754517
1733469732.173516, 1.271620, 1.298256, 4.432864, -1.234047, -1.575068, -2.443380, -44.778534, -66.332321, -658.872681
1733469732.183526, 1.268029, 0.925658, 3.904793, -1.252174, -1.772577, -2.296998, -44.919189, -65.793793, -659.067261
1733469732.193522, 1.366341, 0.585682, 3.419219, -1.282428, -1.897681, -2.145320, -45.276901, -65.531128, -659.231873
1733469732.203519, 1.485153, 0.426018, 3.213916, -1.348997, -1.958768, -1.980936, -45.337708, -65.043564, -659.450073
1733469732.213572, 1.600225, 0.338929, 3.325546, -1.479241, -2.000459, -1.806806, -45.760590, -64.733978, -659.418518
1733469732.223516, 1.787421, 0.432153, 3.494038, -1.691035, -2.025128, -1.618227, -46.230209, -63.939377, -659.841064
1733469732.233515, 1.991826, 0.854281, 3.593547, -1.979496, -2.039774, -1.397665, -46.615845, -63.061661, -660.343140
1733469732.243525, 2.330905, 1.409137, 3.587262, -2.316705, -2.064340, -1.137694, -47.387436, -62.059479, -660.467773
1733469732.253580, 2.826804, 1.726519, 3.377171, -2.658984, -2.168281, -0.841137, -48.280991, -60.958374, -660.481140
1733469732.263512, 3.147777, 1.964143, 2.926014, -2.943275, -2.337570, -0.545316, -49.241730, -59.833405, -660.769043
1733469732.273523, 3.187730, 2.300828, 2.099416, -3.147633, -2.581511, -0.292528, -50.415222, -58.387909, -661.473083
1733469732.283576, 3.091962, 2.731036, 1.175852, -3.236585, -2.960422, -0.062394, -51.372940, -56.946320, -661.841797
1733469732.293523, 3.126378, 3.148824, 0.043545, -3.176762, -3.415305, 0.183929, -53.047882, -55.272537, -661.429871
1733469732.303519, 3.030610, 3.982156, -1.234959, -3.027227, -3.786963, 0.487929, -54.651031, -53.677353, -661.189026
1733469732.313583, 2.990657, 5.056255, -2.517503, -2.919680, -4.013838, 0.901128, -56.315216, -52.164795, -660.713013
1733469732.323512, 3.139995, 5.984457, -3.638139, -2.916188, -4.094987, 1.408553, -58.309677, -50.426788, -659.585083
1733469732.333514, 3.261501, 6.556671, -4.647744, -2.995393, -4.073208, 1.972750, -59.971161, -48.705750, -659.205994
1733469732.343526, 3.299509, 7.129184, -5.765687, -3.090976, -3.995140, 2.553317, -62.149994, -46.592422, -659.088318
1733469732.353520, 3.030012, 7.739257, -6.895151, -3.100498, -3.936123, 3.122448, -63.858536, -44.440720, -657.598267
1733469732.363524, 2.546084, 7.987506, -7.956531, -2.975798, -3.983915, 3.625159, -65.549316, -42.381744, -656.664734
1733469732.373588, 1.488595, 8.255058, -8.676736, -2.684919, -4.204306, 4.049783, -67.141937, -39.945740, -655.172363
1733469732.383521, -0.018705, 8.730606, -9.386468, -2.304168, -4.443005, 4.424622, -68.301224, -37.735809, -653.765991
1733469732.393530, -1.751359, 9.206902, -10.169521, -1.998233, -4.528319, 4.799577, -69.370132, -35.252853, -651.975769
1733469732.403519, -3.851672, 9.630676, -11.096825, -1.836186, -4.281395, 5.156018, -70.090286, -32.617828, -650.458008
1733469732.413563, -6.383989, 9.944466, -12.524518, -1.858709, -3.573587, 5.441040, -70.711319, -29.966003, -648.665649
1733469732.423512, -8.804527, 9.568577, -14.183700, -2.037241, -2.580177, 5.575356, -70.901215, -27.399200, -647.696899
1733469732.433511, -11.042208, 8.983942, -15.608100, -2.206008, -1.622679, 5.532208, -70.427185, -24.737457, -647.163757
1733469732.443520, -12.689119, 8.723423, -16.714820, -2.169449, -1.016260, 5.400833, -69.558594, -22.160767, -646.485840
1733469732.453582, -13.673435, 8.904635, -17.693001, -1.849496, -0.787842, 5.305022, -68.451645, -20.066711, -646.121948
1733469732.463519, -14.589816, 9.759664, -18.827703, -1.346936, -0.704659, 5.282485, -67.385422, -17.665222, -644.993469
1733469732.473508, -15.689652, 10.167875, -19.922152, -0.812455, -0.595489, 5.277829, -66.576187, -15.751633, -644.445862
1733469732.483521, -17.511490, 10.123882, -20.414011, -0.349934, -0.490287, 5.140683, -65.707550, -14.013885, -644.543701
1733469732.493519, -19.752014, 10.192715, -20.188657, 0.040130, -0.582726, 4.826793, -64.574692, -12.977905, -643.649536
1733469732.503575, -21.182849, 9.934740, -20.328119, 0.530426, -0.856547, 4.451717, -63.587143, -11.762939, -644.215149
1733469732.513515, -22.040721, 9.684995, -21.284153, 1.221110, -1.116330, 4.074337, -62.505310, -11.061127, -643.907043
1733469732.523528, -22.576274, 9.923667, -22.188713, 2.048296, -1.203665, 3.815553, -61.353027, -10.500900, -644.532349
1733469732.533521, -23.137714, 10.377218, -22.265776, 2.905854, -1.077051, 3.684099, -60.295380, -10.469376, -645.235535
1733469732.543283, -24.200740, 10.477026, -21.201105, 3.656374, -0.697195, 3.604746, -59.358124, -10.695511, -646.322571
1733469732.553516, -25.771037, 10.478523, -19.251177, 4.176463, -0.138378, 3.503425, -58.518478, -11.184235, -647.485413
1733469732.563380, -27.641657, 10.196306, -16.617705, 4.383657, 0.471723, 3.264630, -57.320328, -11.920486, -648.514404
1733469732.573517, -29.088353, 9.616610, -13.706206, 4.355874, 0.874743, 2.918266, -56.468765, -12.683426, -650.520996
1733469732.583523, -29.944280, 8.949376, -11.171495, 4.253878, 1.031637, 2.491855, -55.162964, -13.613159, -652.096252
1733469732.593514, -30.547020, 8.443302, -9.213187, 4.156643, 0.976610, 2.013251, -54.285233, -14.982025, -652.456604
1733469732.603520, -30.890289, 8.523508, -8.429685, 4.162161, 0.946036, 1.574304, -53.780487, -16.237289, -654.609985
1733469732.613510, -31.195699, 8.358607, -8.318055, 4.272098, 0.920139, 1.067973, -53.259995, -17.830460, -655.446777
1733469732.623518, -31.304636, 7.732673, -8.047810, 4.477180, 0.839713, 0.512812, -52.823822, -19.574356, -656.746460
1733469732.633512, -30.801255, 7.482778, -7.487417, 4.720160, 0.676408, -0.091607, -52.666153, -21.670120, -657.956177
1733469732.643520, -29.854198, 7.916727, -6.186168, 4.948304, 0.395523, -0.666987, -52.753372, -24.258652, -658.844849
1733469732.653516, -28.698248, 8.822334, -5.052514, 5.157773, 0.200977, -1.135435, -52.945114, -26.602722, -658.892029
1733469732.662611, -27.820773, 9.380183, -3.874716, 5.244940, 0.122402, -1.583051, -53.240906, -29.425995, -659.629211
1733469732.673517, -26.944046, 9.155427, -2.548777, 5.154938, 0.146457, -2.058231, -53.055954, -32.021881, -659.979919
1733469732.683525, -25.814731, 8.987085, -1.673846, 4.979962, 0.343020, -2.472755, -53.687714, -34.888687, -660.874512
1733469732.693508, -24.397513, 9.221717, -0.831087, 4.757724, 0.596237, -2.828171, -53.281876, -37.693100, -660.088013
1733469732.703513, -22.855498, 9.245958, 0.422277, 4.506184, 0.773160, -3.130928, -53.299271, -40.214218, -661.109070
1733469732.713500, -21.195867, 9.276783, 1.522263, 4.268460, 0.878726, -3.378516, -53.198624, -42.783920, -661.316406
1733469732.722684, -19.596541, 9.189694, 2.485930, 4.063762, 0.877026, -3.591615, -52.910110, -45.448715, -661.570984
1733469732.733499, -17.954268, 8.739435, 3.325247, 3.912122, 0.800268, -3.778811, -52.236633, -47.945236, -661.681274
1733469732.743509, -16.410157, 8.281843, 4.100968, 3.780235, 0.712629, -3.937660, -52.168488, -50.313324, -661.248535
1733469732.753496, -14.935629, 7.670872, 4.750395, 3.596184, 0.700253, -4.060763, -51.392334, -52.688141, -660.786987
1733469732.763497, -13.521254, 7.044340, 5.540482, 3.316451, 0.703482, -4.178798, -50.866089, -54.774872, -660.463623
1733469732.773515, -12.218958, 6.578817, 6.423793, 2.968136, 0.673522, -4.266913, -49.969040, -56.547501, -660.568970
1733469732.783513, -10.754455, 6.161628, 7.122600, 2.601136, 0.586114, -4.309039, -49.252899, -58.378403, -660.251526
1733469732.793508, -9.054721, 5.801300, 7.640646, 2.224224, 0.486393, -4.273155, -48.506592, -59.797241, -659.391235
1733469732.803518, -7.418434, 5.338022, 8.071901, 1.820910, 0.361422, -4.180950, -47.874405, -61.009552, -659.596680
1733469732.813495, -6.077382, 4.623652, 8.501361, 1.416326, 0.191534, -4.058422, -47.009659, -62.010727, -659.199890
1733469732.823496, -5.089773, 3.908385, 8.601918, 1.032197, -0.005935, -3.932466, -46.531296, -62.691132, -659.337219
1733469732.833502, -4.448277, 3.299659, 8.501361, 0.690262, -0.213484, -3.838619, -45.977127, -63.340393, -659.445435
1733469732.843505, -3.948936, 2.659210, 8.170961, 0.370043, -0.374001, -3.772141, -45.433365, -63.788498, -659.234680
1733469732.853505, -3.593697, 2.061707, 7.830685, 0.057262, -0.547912, -3.752852, -44.892242, -64.114578, -659.314819
1733469732.863505, -3.301454, 1.750311, 7.444620, -0.229431, -0.714917, -3.762601, -44.509460, -64.193176, -659.317505
1733469732.873507, -2.796577, 1.628057, 6.746112, -0.465365, -0.841473, -3.766569, -43.813370, -64.194534, -659.790344
1733469732.883552, -2.165406, 1.695244, 6.107010, -0.670489, -0.968467, -3.738164, -43.507477, -64.088562, -659.802124
1733469732.893507, -1.608006, 1.798494, 5.595848, -0.848713, -1.107695, -3.690452, -43.098450, -63.951218, -659.484131
1733469732.903503, -1.054047, 1.958607, 5.069572, -0.997293, -1.247409, -3.615191, -42.959274, -63.602310, -659.919617
1733469732.913501, -0.222511, 2.338237, 4.377947, -1.096138, -1.389201, -3.466666, -42.990295, -63.382202, -660.655945
1733469732.923511, 0.889895, 2.583643, 3.792864, -1.133442, -1.599272, -3.235959, -42.921448, -63.058563, -660.570557
1733469732.933508, 1.802235, 2.520795, 3.172766, -1.133641, -1.759950, -2.961916, -43.252884, -62.565079, -660.591003
1733469732.943504, 2.595015, 2.358738, 2.370409, -1.125019, -1.827338, -2.637516, -43.841858, -62.240891, -661.018921
1733469732.953524, 3.224541, 2.257283, 1.806724, -1.114865, -1.860719, -2.255454, -44.189102, -61.815033, -661.230774
1733469732.963501, 3.630208, 1.980603, 1.473481, -1.079756, -1.895940, -1.861091, -44.617096, -61.264832, -661.276611
1733469732.973500, 3.776105, 1.549946, 1.244536, -1.018918, -1.936159, -1.488827, -45.265930, -61.155655, -661.641907
1733469732.983503, 3.798850, 1.134403, 1.292420, -0.970545, -2.011192, -1.147424, -46.275940, -60.647079, -661.573669
1733469732.993517, 3.697396, 0.767940, 1.669507, -0.959375, -2.173888, -0.850568, -46.958649, -60.533783, -660.884338
1733469733.003486, 3.478176, 0.459088, 1.996764, -0.990270, -2.381060, -0.590418, -48.067856, -59.738724, -661.213379
1733469733.013489, 3.177106, 0.366313, 2.092832, -1.064280, -2.594264, -0.364606, -49.114288, -59.176483, -661.579956
1733469733.023486, 2.847155, 0.503531, 2.025794, -1.206746, -2.726113, -0.159996, -50.255157, -58.728622, -661.529175
1733469733.033503, 2.674473, 0.758962, 1.680131, -1.453899, -2.768024, 0.038142, -51.445099, -57.837158, -661.174988
1733469733.043501, 2.679261, 1.065719, 1.255011, -1.788930, -2.767562, 0.225397, -52.894684, -56.742737, -661.135986
1733469733.053510, 2.839523, 1.337311, 0.801010, -2.156200, -2.763346, 0.373371, -53.989380, -55.548904, -661.265686
1733469733.063502, 3.027019, 1.924938, 0.078111, -2.463106, -2.824682, 0.541383, -55.456802, -54.111710, -660.906128
1733469733.073491, 3.329437, 2.681655, -0.944363, -2.623118, -3.360383, 1.212583, -56.943451, -52.864670, -660.810303
1733469733.083550, 3.577087, 3.544616, -2.020108, -2.623118, -3.360383, 1.212583, -58.258926, -51.302475, -659.836487
1733469733.093492, 2.975843, 4.845116, -4.348469, -2.245114, -4.047367, 2.209145, -60.044037, -49.956558, -658.775879
1733469733.103491, 2.975843, 4.845116, -4.348469, -2.152122, -4.228321, 2.702137, -61.814865, -47.960983, -658.154663
1733469733.113492, 0.667234, 6.047005, -5.635203, -2.227856, -4.269468, 3.172094, -63.833572, -46.163849, -656.929443
1733469733.123499, -0.672172, 6.505345, -6.532579, -2.422553, -4.191004, 3.583653, -63.833572, -46.163849, -656.929443
1733469733.133491, -0.672172, 6.505345, -6.532579, -2.577981, -4.033136, 3.876620, -65.412094, -44.247391, -656.029785
1733469733.143488, -4.130447, 6.853702, -9.201665, -2.563662, -3.987475, 4.048118, -68.834793, -39.648209, -653.555237
1733469733.153503, -5.562329, 6.695535, -10.547655, -2.351843, -4.088698, 4.176323, -69.650742, -37.342087, -651.872070
1733469733.163486, -6.887370, 6.953360, -11.948114, -2.059127, -4.130593, 4.342751, -69.650742, -37.342087, -651.872070
1733469733.173502, -8.386290, 7.638102, -13.566295, -1.829696, -3.842896, 4.555231, -70.645065, -35.119797, -650.543701
1733469733.183498, -9.743653, 7.829638, -15.458313, -1.703623, -3.144837, 4.777865, -71.219406, -32.777252, -648.471252
1733469733.193506, -10.894815, 7.543980, -17.434277, -1.630793, -2.149668, 4.982491, -71.880203, -30.535583, -647.713135
1733469733.203487, -12.252177, 7.510162, -19.067123, -1.488223, -1.176339, 5.095102, -72.044800, -28.104767, -646.045349
1733469733.213491, -13.596971, 7.354688, -20.185365, -1.122792, -0.543219, 5.102758, -71.632675, -25.586166, -645.656494
1733469733.223485, -14.941464, 7.702296, -20.603901, -0.571507, -0.308239, 5.068915, -70.761490, -23.533005, -645.675293
1733469733.233485, -16.297480, 8.063372, -20.617518, 0.043144, -0.262382, 5.005075, -70.183975, -21.843414, -645.728943
1733469733.243485, -17.600824, 7.619397, -20.566043, 0.596225, -0.171782, 4.920574, -69.047333, -20.103668, -645.053040
1733469733.253494, -19.335872, 7.458387, -20.165612, 0.991948, 0.046639, 4.764100, -68.223114, -18.371216, -645.263306
1733469733.263489, -21.096358, 7.382670, -19.196709, 1.219049, 0.261856, 4.499833, -66.903458, -17.227600, -645.320496
1733469733.273489, -22.268320, 7.234529, -18.322526, 1.438239, 0.298397, 4.151793, -65.893402, -16.115433, -645.539673
1733469733.283478, -22.899043, 7.278672, -17.927632, 1.809621, 0.065293, 3.787747, -65.113083, -15.408508, -645.999146
1733469733.293493, -23.142353, 7.690774, -17.875110, 2.401086, -0.287430, 3.495722, -63.802063, -14.991653, -646.500977
1733469733.303484, -23.531710, 8.311022, -17.736545, 3.158620, -0.575382, 3.304473, -63.020782, -14.916840, -646.658020
1733469733.313492, -24.637682, 8.806772, -17.150265, 3.949120, -0.552123, 3.174981, -62.000839, -14.830246, -647.607910
1733469733.323489, -26.453085, 8.609699, -16.057162, 4.521759, -0.148927, 2.988428, -61.359512, -15.258423, -648.624878
1733469733.333487, -28.615349, 7.782502, -13.728951, 4.697862, 0.377231, 2.600449, -60.863846, -15.943909, -649.886108
1733469733.343478, -30.116513, 6.562806, -10.814908, 4.569722, 0.770024, 2.005836, -60.120926, -16.859848, -650.628296
1733469733.353492, -30.299819, 5.969343, -8.517522, 4.378129, 0.873742, 1.361628, -59.629028, -18.172455, -652.505859
1733469733.363480, -29.347525, 6.442797, -6.908170, 4.306355, 0.696806, 0.861059, -58.703552, -19.465256, -653.563354
1733469733.373479, -28.151472, 7.570166, -6.426486, 4.436993, 0.521940, 0.591814, -58.184799, -21.253937, -655.140320
1733469733.383490, -27.438898, 8.171410, -6.281936, 4.637994, 0.460705, 0.391705, -57.892334, -22.570221, -655.618286
1733469733.393479, -27.420343, 8.056638, -5.680243, 4.777844, 0.490515, 0.126940, -57.486282, -24.191132, -656.136963
1733469733.403486, -27.684902, 7.757662, -4.670339, 4.790903, 0.538924, -0.238997, -57.178802, -26.313553, -656.794739
1733469733.413487, -27.769597, 7.366809, -3.591153, 4.710814, 0.592993, -0.665310, -56.864166, -28.441452, -657.751892
1733469733.423480, -27.527184, 7.321020, -2.490868, 4.603146, 0.585922, -1.127039, -56.682449, -30.644455, -658.744873
1733469733.433485, -26.958262, 7.474099, -1.601571, 4.527903, 0.551491, -1.563996, -56.577560, -32.791275, -659.223206
1733469733.443488, -26.108021, 7.602338, -1.070807, 4.507113, 0.544206, -1.960491, -56.332642, -35.249374, -659.390320
1733469733.453474, -25.235334, 7.563732, -0.318279, 4.479718, 0.562415, -2.347248, -56.364517, -37.650040, -659.839294
1733469733.463492, -24.076690, 7.220164, 0.714669, 4.382802, 0.581487, -2.725561, -56.289001, -40.297516, -659.784912
1733469733.473485, -22.807614, 6.861782, 1.912668, 4.210993, 0.584003, -3.110852, -56.517654, -42.785309, -659.555481
1733469733.483481, -21.234324, 6.557419, 3.038392, 3.969470, 0.566203, -3.466839, -56.228180, -45.435745, -659.900330
1733469733.493481, -19.418621, 6.419453, 3.933524, 3.686700, 0.548330, -3.749403, -55.883575, -48.102615, -659.857544
1733469733.503483, -17.576732, 6.417658, 4.692935, 3.395711, 0.545152, -3.938815, -55.603317, -50.439835, -658.895386
1733469733.513474, -15.836746, 6.267272, 5.334281, 3.089847, 0.528443, -4.071934, -55.132095, -52.514206, -659.358276
1733469733.523477, -14.192977, 6.069451, 5.964256, 2.764339, 0.491177, -4.157021, -54.633362, -54.698273, -658.921753
1733469733.533477, -12.622680, 5.750872, 6.304980, 2.427508, 0.427406, -4.208212, -54.207504, -56.760666, -658.601501
1733469733.543482, -11.174487, 5.326500, 6.528090, 2.099701, 0.367483, -4.240144, -53.399780, -58.418655, -657.994141
1733469733.553490, -9.781062, 4.894197, 6.479009, 1.783899, 0.309890, -4.240648, -52.626694, -60.071167, -658.078674
1733469733.563555, -8.528595, 4.491971, 6.497265, 1.488791, 0.216164, -4.206032, -51.819397, -61.433884, -657.807922
1733469733.573482, -7.457938, 3.970335, 6.433070, 1.225553, 0.125833, -4.164007, -51.079727, -62.624268, -657.965881
1733469733.583478, -6.610840, 3.433285, 6.402095, 0.983867, 0.028198, -4.117464, -50.085770, -63.709167, -657.690369
1733469733.593478, -5.836465, 3.146280, 6.549039, 0.753994, -0.106741, -4.054643, -49.248016, -64.623199, -657.436462
1733469733.603510, -5.063437, 2.974197, 6.549788, 0.510690, -0.233662, -3.974558, -48.694397, -65.598099, -656.773743
1733469733.613473, -4.436456, 2.876633, 6.467337, 0.237528, -0.323472, -3.891993, -47.828064, -66.217667, -657.259216
1733469733.623471, -3.832818, 2.844910, 6.179584, -0.053334, -0.387542, -3.785449, -47.139038, -66.322495, -657.073669
1733469733.633487, -3.187431, 2.942623, 5.814169, -0.318775, -0.460097, -3.645009, -46.289032, -66.769287, -657.429932
1733469733.643467, -2.440140, 2.953547, 5.373037, -0.530249, -0.583291, -3.473286, -45.643204, -67.059174, -657.623169
1733469733.653467, -1.788768, 2.741660, 4.753987, -0.668762, -0.720116, -3.274835, -45.062057, -67.302765, -657.737915
1733469733.663467, -1.457919, 2.512116, 4.073435, -0.749966, -0.848668, -3.094542, -44.588608, -67.180862, -658.173950
1733469733.673462, -1.241693, 2.260725, 3.597438, -0.807693, -0.944360, -2.939101, -44.218643, -66.999969, -658.110291
1733469733.683529, -0.894085, 1.938705, 3.154361, -0.858774, -1.009438, -2.779207, -44.019562, -66.821136, -658.338196
1733469733.693466, -0.467019, 1.761235, 2.793884, -0.905203, -1.069162, -2.610363, -43.583160, -66.889633, -658.725830
1733469733.703466, -0.015263, 1.632995, 2.704101, -0.939013, -1.159388, -2.441544, -43.599854, -66.614243, -658.172119
1733469733.713464, 0.505925, 1.436222, 2.817377, -0.971527, -1.321969, -2.258727, -43.489624, -66.377762, -658.781494
1733469733.723476, 1.101632, 1.175403, 3.061735, -1.028421, -1.558015, -2.068892, -43.713104, -66.010864, -659.191101
1733469733.733477, 1.624316, 0.845901, 3.195661, -1.115383, -1.807348, -1.878946, -44.194336, -65.622360, -659.414368
1733469733.743468, 1.939902, 0.681150, 3.080290, -1.240191, -1.991316, -1.680000, -44.295761, -65.111099, -659.730713
1733469733.753465, 2.188300, 0.518943, 2.764854, -1.407642, -2.071158, -1.467916, -44.859863, -64.668564, -659.859253
1733469733.763509, 2.438195, 0.378284, 2.295291, -1.634586, -2.016958, -1.253172, -45.389282, -64.230682, -659.840332
1733469733.773481, 2.673725, 0.473603, 1.950526, -1.899947, -1.912676, -1.038448, -45.949203, -63.515610, -660.269043
1733469733.783468, 2.897134, 0.791583, 1.773804, -2.158939, -1.851713, -0.827530, -46.645935, -62.496704, -660.568481
1733469733.793473, 3.311331, 1.006612, 1.536479, -2.369088, -1.860366, -0.583525, -47.335403, -61.430817, -661.196167
1733469733.803511, 3.791518, 1.078737, 1.093851, -2.516392, -1.926633, -0.306901, -48.209656, -60.300354, -661.237976
1733469733.813463, 4.171447, 1.240346, 0.676961, -2.615647, -2.055561, 0.002499, -49.002396, -59.147415, -661.813599
1733469733.823460, 4.510526, 1.254412, 0.303914, -2.689125, -2.255724, 0.346328, -49.912704, -58.071243, -661.898438
1733469733.833472, 4.569334, 1.248127, -0.115670, -2.750562, -2.475371, 0.684476, -51.272278, -56.557526, -662.088562
1733469733.843471, 4.163367, 1.627159, -0.466869, -2.826400, -2.704823, 0.988544, -52.430527, -55.163910, -662.348633
1733469733.853461, 3.684527, 2.180519, -0.718410, -2.960330, -2.909591, 1.239909, -53.779968, -53.767593, -662.260803
1733469733.863468, 3.129371, 2.937237, -1.001076, -3.114054, -3.180294, 1.487995, -55.136063, -51.813553, -661.653198
1733469733.873473, 2.523339, 4.029890, -1.584064, -3.195341, -3.465023, 1.781192, -56.691757, -50.059906, -661.259399
1733469733.883525, 2.075623, 4.997746, -2.777573, -3.211139, -3.686918, 2.150449, -58.513123, -48.123611, -660.881836
1733469733.893476, 1.668310, 5.493047, -4.061613, -3.209122, -3.877085, 2.539674, -60.319611, -45.930573, -660.108521
1733469733.903472, 0.827346, 5.969493, -5.224148, -3.153280, -4.054019, 2.886542, -62.284180, -43.888733, -659.237427
1733469733.913459, -0.316184, 6.522254, -6.398354, -3.014169, -4.220280, 3.191286, -63.676529, -41.876511, -658.168274
1733469733.923466, -1.408838, 7.086089, -7.410353, -2.807575, -4.417109, 3.475221, -65.166275, -39.863266, -656.564697
1733469733.933475, -2.710087, 7.694216, -8.064419, -2.560734, -4.649854, 3.749303, -66.848114, -37.761505, -655.177979
1733469733.943460, -4.505888, 8.498668, -8.861090, -2.331599, -4.741041, 4.001248, -67.919952, -35.367065, -653.691650
1733469733.953414, -6.130802, 8.987085, -10.114903, -2.160238, -4.606787, 4.281281, -69.333084, -33.106277, -651.749146
1733469733.963458, -7.650671, 8.743475, -11.792191, -2.040453, -4.158573, 4.540215, -70.429504, -30.897049, -650.073547
1733469733.973467, -9.526229, 8.377162, -13.607295, -1.966477, -3.398218, 4.676361, -71.107437, -28.508240, -648.459717
1733469733.983463, -10.858902, 8.086266, -15.245378, -1.849125, -2.525260, 4.749848, -70.993469, -26.169724, -647.446716
1733469733.993457, -11.536910, 8.174104, -16.370653, -1.607324, -1.782166, 4.805588, -70.903397, -24.060867, -646.141602
1733469734.003457, -12.151471, 9.093627, -16.632369, -1.264742, -1.315985, 4.895100, -70.235229, -21.942490, -645.505676
1733469734.013517, -12.543222, 10.195408, -16.533160, -0.907760, -1.060955, 5.069534, -69.492844, -19.842834, -645.170654
1733469734.023456, -13.394361, 10.442460, -16.705692, -0.604816, -0.806599, 5.267212, -68.491959, -17.575027, -644.296265
1733469734.033454, -15.487193, 10.448745, -17.052701, -0.378729, -0.520717, 5.327743, -67.484055, -15.886429, -644.296448
1733469734.043472, -18.049437, 10.125827, -17.334020, -0.165459, -0.277826, 5.185337, -66.431595, -14.062256, -643.905701
1733469734.053465, -20.181624, 9.366267, -17.968483, 0.116682, -0.162290, 4.864166, -65.218796, -12.655731, -644.229614
1733469734.063462, -22.015432, 9.252692, -18.290952, 0.523339, -0.321102, 4.396915, -64.266968, -11.469788, -644.418091
1733469734.073479, -22.955306, 9.558850, -18.459444, 1.089635, -0.676398, 3.946368, -62.953918, -10.730255, -644.491150
1733469734.083463, -23.192482, 10.003274, -18.863765, 1.802415, -0.971348, 3.629023, -62.147858, -10.109467, -644.670044
1733469734.093470, -23.622091, 10.270377, -19.171570, 2.556617, -0.999950, 3.420070, -60.981979, -9.827682, -643.767334
1733469734.103466, -24.481311, 10.239252, -18.541446, 3.159779, -0.780908, 3.243244, -60.034485, -9.980362, -645.617554
1733469734.113458, -25.785253, 10.087969, -17.234212, 3.574866, -0.338247, 3.035006, -59.338379, -10.264801, -646.541260
1733469734.123463, -27.432763, 9.687987, -16.004490, 3.799553, 0.259790, 2.730796, -58.365356, -10.832291, -647.791138
1733469734.133473, -28.406006, 9.213487, -14.390499, 3.900298, 0.769264, 2.404669, -57.604156, -11.352905, -649.134644
1733469734.143465, -28.970439, 9.329306, -12.631958, 4.029906, 1.041298, 2.053788, -56.553040, -12.465576, -650.873413
1733469734.153457, -29.593679, 9.841964, -10.946290, 4.230999, 0.994805, 1.649977, -56.015228, -13.555252, -651.806152
1733469734.163458, -30.009373, 10.051457, -9.449016, 4.488544, 0.689828, 1.175884, -55.601883, -14.980530, -653.294678
1733469734.173459, -30.155419, 9.475053, -8.384345, 4.723408, 0.342682, 0.589882, -55.130920, -16.757111, -654.640442
1733469734.183460, -29.869012, 8.817695, -7.453299, 4.887140, 0.046067, -0.045521, -55.073410, -18.695999, -655.833313
1733469734.193454, -29.153296, 9.268553, -6.579117, 4.994225, -0.095259, -0.577559, -54.733566, -20.946869, -655.999573
1733469734.203456, -28.173319, 10.476578, -5.960066, 5.087262, -0.052760, -0.915834, -54.942215, -23.288254, -657.474426
1733469734.213490, -27.536312, 11.269956, -5.304653, 5.171516, 0.204733, -1.122879, -54.709702, -25.536469, -658.089783
1733469734.223468, -27.609934, 11.456704, -4.632780, 5.168136, 0.663515, -1.352337, -54.309982, -28.040344, -658.870422
1733469734.233453, -28.116906, 11.260379, -3.244443, 5.020294, 1.102306, -1.712739, -54.483688, -30.585999, -659.624146
1733469734.243471, -28.150724, 10.718392, -1.912369, 4.826025, 1.489421, -2.181006, -54.153946, -33.433395, -660.483887
1733469734.253455, -27.197383, 10.245986, -0.859818, 4.641245, 1.740860, -2.677844, -53.617340, -36.107422, -660.932678
1733469734.263470, -25.597757, 10.178649, 0.552163, 4.503165, 1.697015, -3.168945, -53.536224, -38.934006, -661.334534
1733469734.273522, -23.500735, 10.346542, 1.675193, 4.423558, 1.465269, -3.591836, -52.803436, -41.681244, -661.308899
1733469734.283494, -21.030218, 10.438420, 2.259827, 4.395572, 1.189923, -3.912316, -52.749252, -44.527771, -661.835388
1733469734.293449, -18.621053, 10.364499, 2.700360, 4.347704, 0.978336, -4.120181, -52.134323, -47.250549, -660.856323
1733469734.303449, -16.480038, 10.172963, 3.254768, 4.234033, 0.857262, -4.237613, -51.611816, -49.822327, -661.560730
1733469734.313496, -14.544476, 9.755923, 3.924396, 4.025470, 0.819282, -4.307545, -51.081009, -52.485092, -660.881958
1733469734.323446, -12.902802, 9.268852, 4.769549, 3.723317, 0.791406, -4.331295, -50.294937, -54.604721, -660.855713
1733469734.333452, -11.363330, 8.736143, 5.320365, 3.350310, 0.830096, -4.322550, -49.431412, -56.839340, -660.321167
1733469734.343446, -9.948207, 8.229320, 5.788132, 2.947197, 0.818213, -4.297163, -48.512741, -58.725357, -659.814758
1733469734.353499, -8.646659, 7.587375, 6.175544, 2.573045, 0.742216, -4.254145, -47.772400, -60.193237, -659.557434
1733469734.363444, -7.488614, 6.702268, 6.350171, 2.249679, 0.602936, -4.214314, -46.800430, -61.792725, -659.272461
1733469734.373446, -6.436811, 5.815217, 6.431574, 1.973408, 0.398585, -4.170372, -45.693405, -63.038879, -659.105408
1733469734.383456, -5.394286, 5.137657, 6.722769, 1.739164, 0.079697, -4.105610, -44.943390, -64.178421, -659.055908
1733469734.393449, -4.614076, 4.422689, 6.916250, 1.514469, -0.273870, -4.054734, -44.417160, -65.198257, -657.569336
1733469734.403443, -4.094085, 3.685425, 6.865373, 1.291320, -0.602813, -4.027828, -43.776642, -65.914352, -658.649841
1733469734.413453, -3.675399, 3.136255, 6.787113, 1.059611, -0.877990, -4.000283, -43.080109, -66.577255, -657.908203
1733469734.423441, -3.280356, 2.821417, 6.614880, 0.784405, -1.017715, -3.969304, -42.479630, -67.137314, -658.047852
1733469734.433456, -2.876933, 2.762161, 6.286425, 0.438663, -1.033280, -3.909010, -41.854004, -67.485352, -657.797913
1733469734.443447, -2.264615, 2.808548, 5.972785, 0.076403, -0.989731, -3.795055, -41.487350, -67.690277, -657.802429
1733469734.453457, -1.405097, 2.728642, 5.496040, -0.232353, -0.930132, -3.622898, -40.801224, -67.613342, -658.115601
1733469734.463441, -0.671723, 2.564789, 5.109825, -0.477987, -0.910808, -3.424617, -40.133667, -67.616180, -658.313049
1733469734.473441, -0.155473, 2.325219, 4.844817, -0.672144, -0.959748, -3.231932, -40.055222, -67.473206, -658.490295
1733469734.483440, 0.270395, 1.836353, 4.672135, -0.820306, -1.088631, -3.064836, -39.759186, -67.089386, -658.429871
1733469734.493440, 0.569072, 1.266084, 4.528184, -0.948679, -1.261208, -2.936794, -39.445175, -66.813599, -658.271301
1733469734.503450, 0.796371, 0.792780, 4.342483, -1.070794, -1.463594, -2.826410, -39.572983, -66.397781, -659.119385
1733469734.513437, 1.071405, 0.420781, 4.173692, -1.185925, -1.657090, -2.719044, -39.589706, -65.728165, -659.638550
1733469734.523438, 1.377115, 0.090231, 3.897910, -1.298700, -1.814669, -2.600022, -39.669785, -65.283325, -659.964966
1733469734.533444, 1.881843, -0.078111, 3.540276, -1.410226, -1.901475, -2.423820, -39.947723, -64.547241, -660.276611
1733469734.543451, 2.609231, -0.081403, 3.127576, -1.549044, -1.897784, -2.161408, -40.296600, -64.057526, -660.328247
1733469734.553441, 3.186233, 0.144849, 2.941875, -1.729696, -1.846847, -1.840140, -40.449341, -63.137833, -660.921570
1733469734.562447, 3.696348, 0.248847, 2.760515, -1.945768, -1.752119, -1.492919, -40.449341, -63.137833, -660.921570
1733469734.573441, 4.061464, 0.225354, 2.510171, -2.173249, -1.673938, -1.158739, -41.661728, -61.238235, -662.122925
1733469734.583457, 4.282030, 0.255731, 2.308759, -2.365953, -1.653571, -0.860271, -42.234573, -60.407379, -661.953247
1733469734.593439, 4.361487, 0.345364, 2.082357, -2.523239, -1.693293, -0.596021, -43.376434, -59.004166, -662.533752
1733469734.603446, 4.403086, 0.596156, 1.968333, -2.654463, -1.848109, -0.363668, -44.031036, -57.788040, -662.372009
1733469734.612502, 4.352210, 0.943166, 1.883937, -2.749251, -2.089131, -0.151355, -44.031036, -57.788040, -662.372009
1733469734.623351, 4.369717, 1.380108, 1.549348, -2.848637, -2.364311, 0.069650, -46.156586, -55.008865, -663.693420
1733469734.633457, 4.497957, 1.887379, 1.105223, -2.963022, -2.692029, 0.299999, -47.423737, -53.527863, -663.092468
1733469734.643443, 4.590283, 2.429217, 0.423624, -3.026430, -3.064105, 0.559759, -49.206726, -51.908279, -663.487549
1733469734.653443, 4.771195, 3.073257, -0.435445, -3.026901, -3.477125, 0.855572, -51.116089, -50.353668, -662.983276
1733469734.662518, 4.829254, 3.783437, -1.262044, -2.967339, -3.935982, 1.196931, -51.116089, -50.353668, -662.983276
1733469734.673454, 4.625298, 4.859631, -1.865532, -2.876255, -4.447606, 1.600631, -55.238815, -46.893127, -662.271973
1733469734.683438, 4.181473, 6.170007, -2.351705, -2.774098, -4.993184, 2.079563, -55.238815, -46.893127, -662.271973
1733469734.693450, 3.476979, 7.175871, -3.182792, -2.689150, -5.423709, 2.642914, -57.395645, -45.279099, -660.095947
1733469734.703450, 2.362927, 8.142081, -4.518756, -2.685684, -5.623770, 3.240921, -59.580750, -43.031342, -659.693726
1733469734.712547, 0.674417, 9.356390, -6.179285, -2.713482, -5.600448, 3.795382, -62.154251, -41.071381, -657.494507
1733469734.723446, -0.996886, 9.840767, -8.314165, -2.613757, -5.393645, 4.291771, -64.141357, -38.698227, -656.563354
1733469734.733342, -2.611775, 9.703699, -10.832266, -2.325276, -5.007710, 4.682255, -66.100113, -36.389664, -655.515747
1733469734.743441, -4.247014, 9.483732, -12.941857, -1.889181, -4.529807, 4.948339, -67.482101, -34.262695, -653.630798
1733469734.753435, -5.627571, 9.022699, -13.586646, -1.428574, -4.155836, 5.136969, -68.500397, -32.138290, -652.346375
1733469734.762528, -7.118261, 9.149891, -13.143569, -1.086766, -3.784325, 5.317918, -68.769440, -29.871628, -650.293030
1733469734.773444, -8.680926, 9.823858, -13.120524, -1.004983, -3.155366, 5.575935, -68.852890, -27.486603, -649.249939
1733469734.783489, -10.275614, 10.455778, -13.705009, -1.203033, -2.271711, 5.831892, -68.930984, -25.142120, -648.393860
1733469734.793429, -12.256666, 10.406996, -14.601039, -1.402384, -1.371926, 5.938684, -68.720474, -22.752151, -647.381104
