SamplingTime, AccelerationX, AccelerationY, AccelerationZ, GyroX, GyroY, GyroZ, MagneticFieldX, MagneticFieldY, MagneticFieldZ
1733469658.721498, -7.929746, -5.330840, -8.917503, 0.089197, -0.205127, 0.563514, -73.398590, -31.250381, -640.318176
1733469658.731492, -8.983344, -5.652261, -9.050082, 0.099220, 0.034318, 0.663296, -73.545364, -30.883728, -640.532471
1733469658.741494, -10.066571, -5.811176, -9.392004, 0.062253, 0.405376, 0.674120, -73.257141, -30.618439, -640.779724
1733469658.751498, -10.814759, -6.052691, -9.815479, -0.057324, 0.863811, 0.608145, -73.161652, -30.430481, -641.112427
1733469658.761509, -11.163414, -5.895871, -10.025869, -0.064354, 1.131747, 0.459904, -72.790405, -30.248703, -641.463623
1733469658.771522, -11.374852, -5.572953, -10.201843, 0.090574, 1.183170, 0.273751, -72.753281, -30.309586, -642.304993
1733469658.781513, -11.502194, -5.805640, -9.938630, 0.314384, 1.047003, 0.022738, -72.568497, -30.379120, -641.892090
1733469658.791541, -11.139173, -5.373786, -9.190592, 0.616043, 0.691802, -0.235827, -72.574432, -30.842896, -643.045654
1733469658.801530, -10.628909, -5.043236, -8.530391, 0.930016, 0.162002, -0.473526, -72.355103, -31.518631, -642.542908
1733469658.811522, -10.162787, -4.930709, -7.788188, 1.221806, -0.420098, -0.693375, -72.752090, -32.123459, -642.759338
1733469658.821511, -9.703101, -4.678719, -7.078457, 1.428852, -0.919953, -0.876555, -73.004944, -33.000702, -642.592773
1733469658.831503, -9.248651, -4.481946, -6.553379, 1.537803, -1.269362, -1.010343, -73.615402, -34.056183, -641.793213
1733469658.841511, -8.769063, -4.337096, -6.201880, 1.565706, -1.427338, -1.095501, -73.973831, -34.717834, -642.330261
1733469658.851507, -8.270470, -4.023306, -5.842151, 1.502518, -1.362007, -1.099290, -74.115479, -35.784134, -641.013306
1733469658.861526, -8.036138, -3.781791, -5.407753, 1.345630, -1.124098, -1.055099, -74.677826, -36.560837, -640.672363
1733469658.871503, -7.893533, -3.674202, -4.871751, 1.116743, -0.826763, -1.000302, -74.896881, -37.068970, -640.622864
1733469658.881502, -7.718457, -3.580379, -4.465635, 0.878343, -0.519833, -0.924117, -75.160110, -37.907318, -640.353760
1733469658.891524, -7.720851, -3.636643, -4.254047, 0.675742, -0.265949, -0.870938, -75.332825, -38.675247, -640.478760
1733469658.901492, -7.821408, -3.828628, -4.179079, 0.555735, -0.107137, -0.860942, -75.436905, -39.021332, -640.087769
1733469658.911509, -7.785495, -3.966145, -4.183718, 0.545428, -0.065576, -0.876799, -75.432220, -39.681656, -639.880005
1733469658.921502, -7.646332, -4.037671, -4.055478, 0.618286, -0.139047, -0.920234, -75.737549, -40.347153, -640.820557
1733469658.931503, -7.594707, -4.109049, -3.826682, 0.728511, -0.319766, -0.991528, -76.013657, -41.057114, -640.212646
1733469658.941444, -7.821707, -4.377050, -3.560328, 0.855563, -0.529884, -1.124497, -76.402344, -41.666946, -640.334290
1733469658.951504, -8.220491, -4.508431, -3.410091, 0.995765, -0.619079, -1.338086, -76.370895, -42.810669, -639.869019
1733469658.961029, -7.972841, -4.623353, -2.758719, 1.058551, -0.831894, -1.510349, -76.542465, -43.783401, -638.872253
1733469658.971507, -7.343316, -5.091719, -2.218228, 1.076080, -1.136760, -1.639323, -76.724182, -44.938416, -639.288269
1733469658.981512, -7.048380, -4.796933, -2.253243, 1.117468, -1.309131, -1.749407, -76.901886, -46.254486, -638.009705
1733469658.991508, -6.747160, -4.401440, -2.084751, 1.172885, -1.431673, -1.852834, -77.507736, -47.088486, -637.696350
1733469659.001500, -6.321590, -4.286519, -1.677438, 1.229229, -1.572568, -1.933798, -77.657623, -48.437515, -636.530884
1733469659.011508, -5.677550, -4.267066, -1.200393, 1.270325, -1.719921, -1.976874, -77.788254, -49.662491, -635.082336
1733469659.021494, -5.071218, -4.071190, -0.587178, 1.291876, -1.925439, -1.980883, -78.268326, -50.933823, -634.549500
1733469659.031138, -4.637419, -4.001160, 0.064344, 1.299079, -2.165682, -1.975043, -78.390472, -52.062134, -633.168945
1733469659.041511, -4.138826, -4.017770, 0.716016, 1.242905, -2.359526, -1.934261, -78.631439, -52.956177, -632.486206
1733469659.051496, -3.577835, -3.794959, 1.381903, 1.083871, -2.521062, -1.840495, -78.603607, -54.081253, -631.261719
1733469659.061506, -3.136255, -3.523517, 1.866280, 0.838582, -2.621336, -1.708307, -79.155533, -55.086304, -629.111816
1733469659.071500, -2.832939, -3.505411, 2.038962, 0.557345, -2.646566, -1.562983, -79.368011, -55.600021, -628.596008
1733469659.081550, -2.645892, -3.540126, 2.016367, 0.282881, -2.613931, -1.423965, -79.327545, -56.645187, -627.075439
1733469659.091504, -2.535011, -3.551050, 1.821239, 0.060513, -2.542537, -1.304941, -79.623566, -57.021332, -626.934021
1733469659.101502, -2.324022, -3.779996, 1.584513, -0.101972, -2.463850, -1.202580, -79.708908, -57.787964, -625.513977
1733469659.111511, -2.044648, -4.087202, 1.483956, -0.221193, -2.424195, -1.115032, -79.693604, -58.444351, -623.932617
1733469659.121496, -1.738190, -4.216788, 1.639130, -0.311559, -2.426250, -1.033174, -79.781281, -58.832184, -623.695679
1733469659.131497, -1.358410, -4.150947, 2.067243, -0.410332, -2.459095, -0.944791, -79.992737, -59.339813, -621.828247
1733469659.141514, -1.061828, -3.941305, 2.514361, -0.533694, -2.519183, -0.858495, -79.992767, -59.622604, -621.276428
1733469659.151495, -0.868646, -3.690961, 2.818125, -0.688131, -2.595637, -0.782032, -79.966171, -59.837006, -620.315735
1733469659.161490, -0.633865, -3.417873, 3.049614, -0.869672, -2.658055, -0.708486, -79.964691, -60.285934, -618.918091
1733469659.171489, -0.306009, -3.079991, 3.142839, -1.081680, -2.709388, -0.625140, -80.086197, -60.424774, -618.339905
1733469659.181490, 0.044742, -2.782212, 3.061136, -1.314234, -2.753095, -0.527966, -80.310455, -60.618439, -617.061096
1733469659.191490, 0.541688, -2.641253, 2.828600, -1.546066, -2.791651, -0.395445, -80.126678, -60.709717, -616.514648
1733469659.201481, 0.868347, -2.441936, 2.494758, -1.765620, -2.853021, -0.248442, -80.138794, -60.895889, -615.260254
1733469659.211482, 1.038335, -2.022203, 2.133832, -1.930603, -2.944943, -0.104395, -80.160004, -61.034668, -613.837219
1733469659.221480, 1.359907, -1.608455, 1.736544, -2.036628, -3.059468, 0.053778, -80.173447, -60.683762, -613.618774
1733469659.231488, 1.747468, -0.918625, 1.417667, -2.103126, -3.202614, 0.270335, -80.293854, -60.470734, -612.053589
1733469659.241282, 2.110189, 0.128988, 0.967108, -2.152063, -3.294829, 0.580902, -80.449844, -60.070770, -611.824097
1733469659.251513, 2.379388, 1.052850, 0.368258, -2.201363, -3.283257, 0.959990, -80.256531, -59.709442, -610.374878
1733469659.261487, 2.685097, 1.668310, -0.295085, -2.250035, -3.181452, 1.409893, -80.336639, -59.050980, -609.128723
1733469659.271007, 2.904765, 2.212542, -0.751181, -2.306428, -3.045303, 1.899704, -80.336639, -59.050980, -609.128723
1733469659.281485, 2.859275, 2.978985, -1.236605, -2.362216, -2.885492, 2.409096, -80.617310, -56.502335, -606.832397
1733469659.291477, 2.706795, 4.134038, -1.781885, -2.396700, -2.685082, 2.965809, -80.973740, -55.140060, -607.075989
1733469659.301483, 2.303222, 5.269039, -2.141913, -2.445070, -2.443824, 3.565650, -81.037308, -53.116898, -605.970703
1733469659.311469, 1.461062, 6.426785, -2.571821, -2.533873, -2.174934, 4.184294, -81.152985, -51.281021, -604.995972
1733469659.321493, 0.264110, 7.858967, -3.250428, -2.659660, -1.813238, 4.807726, -81.152985, -51.281021, -604.995972
1733469659.331492, -1.161038, 8.846425, -4.211850, -2.861256, -1.325236, 5.379110, -81.428940, -48.649567, -605.116821
1733469659.341488, -3.125331, 9.313594, -5.198410, -3.122393, -0.876968, 5.795159, -81.566772, -46.045685, -604.737122
1733469659.351526, -5.284452, 9.773430, -6.628048, -3.261034, -0.662628, 6.000327, -81.758148, -43.253937, -605.237122
1733469659.361476, -7.562086, 10.349386, -8.307431, -3.095638, -0.801250, 6.020170, -81.616455, -40.515167, -604.721802
1733469659.370825, -9.546131, 11.554866, -9.758916, -2.658347, -1.202154, 5.977848, -81.019714, -37.888763, -604.405579
1733469659.381476, -11.091139, 12.991686, -11.045649, -2.095937, -1.707241, 5.959167, -80.359116, -35.098541, -603.011108
1733469659.391476, -12.382362, 13.893103, -12.577639, -1.507148, -2.064654, 5.990703, -78.824554, -31.960114, -601.594604
1733469659.401485, -13.582755, 14.804396, -14.553604, -1.010276, -2.059125, 6.141907, -77.550476, -29.071014, -600.755310
1733469659.411543, -15.053244, 16.005537, -16.482732, -0.647139, -1.720628, 6.326645, -76.291550, -26.177780, -599.864929
1733469659.421472, -16.900520, 16.710181, -18.152987, -0.272499, -1.281803, 6.435647, -75.006058, -23.256104, -598.593262
1733469659.431472, -19.007417, 17.068862, -19.425056, 0.187912, -1.006905, 6.428310, -73.660553, -20.214890, -598.457520
1733469659.441476, -21.082292, 17.415872, -20.458004, 0.789183, -0.953910, 6.240802, -72.057983, -17.381210, -597.918701
1733469659.451478, -22.562059, 17.027562, -21.321264, 1.539062, -1.059716, 5.943609, -70.438141, -14.780640, -598.458069
1733469659.461487, -23.976433, 16.048633, -21.774067, 2.348832, -1.164452, 5.549168, -68.831131, -12.318985, -597.697998
1733469659.471486, -25.302073, 15.173103, -21.803097, 3.138999, -1.155466, 5.075679, -67.092560, -9.894012, -598.821045
1733469659.481480, -25.958832, 14.538790, -21.054160, 3.918486, -1.189600, 4.605646, -65.391998, -7.826035, -599.527588
1733469659.491477, -26.243892, 14.298023, -19.862297, 4.751932, -1.270121, 4.219916, -63.697510, -5.788208, -600.581299
1733469659.501468, -26.598832, 14.381221, -18.705748, 5.655430, -1.214833, 3.998040, -61.828186, -3.643005, -601.682068
1733469659.511487, -27.914296, 14.953735, -16.857574, 6.475566, -0.920481, 3.882680, -60.245712, -1.863251, -603.117126
1733469659.521468, -30.279169, 15.710302, -13.945925, 7.014394, -0.389360, 3.712549, -58.364166, -0.145584, -606.304565
1733469659.531477, -32.727390, 16.090083, -11.101015, 7.227275, 0.373068, 3.482007, -57.099136, 1.513336, -608.959961
1733469659.541467, -35.645623, 15.919645, -7.970746, 7.068707, 1.219937, 3.073528, -56.148743, 2.373581, -612.038696
1733469659.551473, -38.011243, 14.748881, -4.203171, 6.571715, 1.744082, 2.406441, -55.322906, 3.041016, -615.238770
1733469659.561484, -38.757486, 13.532626, -1.376666, 6.092997, 1.652024, 1.598293, -54.667297, 3.305435, -618.007141
1733469659.571484, -38.462251, 13.021614, -0.285209, 5.932001, 1.014548, 0.753976, -54.380905, 3.282761, -620.816833
1733469659.581476, -37.543776, 12.724583, 0.041450, 6.023328, 0.115507, -0.104079, -54.125839, 2.757568, -623.731934
1733469659.591469, -36.443939, 12.509554, -0.155025, 6.231990, -0.598029, -0.898987, -54.719803, 2.024612, -626.155396
1733469659.601474, -35.252674, 12.430545, 0.081702, 6.356524, -0.924772, -1.650271, -55.865387, 0.931778, -628.009155
1733469659.611484, -33.518225, 12.556989, 1.404648, 6.307738, -1.066206, -2.360496, -57.127029, -0.718460, -630.338684
1733469659.621478, -31.128961, 13.058275, 3.096900, 6.125065, -1.188890, -2.965959, -58.367599, -2.422089, -632.132507
1733469659.631467, -28.500277, 13.894450, 4.203320, 5.950040, -1.271325, -3.386363, -60.028976, -4.607590, -633.748962
1733469659.641477, -26.377668, 14.417134, 5.024232, 5.794814, -1.287267, -3.668210, -61.930344, -7.030258, -636.026611
1733469659.651472, -25.009082, 13.893103, 6.059425, 5.588441, -1.260531, -3.960169, -63.882706, -9.386002, -636.955261
1733469659.661470, -23.913735, 12.879458, 7.225102, 5.289353, -1.295918, -4.334152, -66.021378, -12.074753, -638.260071
1733469659.671469, -22.362143, 11.716624, 8.084770, 4.913870, -1.372441, -4.770591, -67.965302, -15.093658, -639.150574
1733469659.681472, -20.091542, 10.925790, 8.654440, 4.470310, -1.432604, -5.189027, -69.939743, -18.184631, -639.717896
1733469659.691458, -17.412729, 10.645967, 9.325116, 3.940722, -1.523954, -5.506997, -71.648636, -21.507568, -639.729492
1733469659.701486, -14.604630, 10.397270, 9.856779, 3.361881, -1.703790, -5.686808, -73.210861, -24.559464, -639.692749
1733469659.711529, -12.158504, 9.957784, 9.803657, 2.776956, -1.912238, -5.767513, -75.011948, -27.553879, -638.902649
1733469659.721466, -10.125827, 9.477896, 9.512014, 2.225211, -2.157853, -5.792423, -76.442307, -30.630005, -638.917847
1733469659.731473, -8.375666, 8.801534, 9.010129, 1.719660, -2.450003, -5.779474, -77.717392, -33.673416, -637.635193
1733469659.741461, -7.048829, 7.939472, 8.312668, 1.285864, -2.769612, -5.740541, -78.760040, -36.797958, -636.240967
1733469659.751527, -6.138583, 7.343615, 7.345710, 0.923046, -3.015729, -5.697813, -79.686707, -39.454758, -634.819336
1733469659.761461, -5.208436, 7.036708, 6.302437, 0.593119, -3.081853, -5.647701, -80.156723, -42.283035, -633.275635
1733469659.770984, -4.181772, 6.861333, 5.623531, 0.267178, -3.011079, -5.550626, -80.916443, -44.939865, -631.926575
1733469659.781529, -3.309236, 6.884078, 5.149628, -0.036973, -2.894251, -5.386415, -81.210968, -47.499176, -630.186646
1733469659.791460, -2.593519, 6.848165, 4.647744, -0.312275, -2.719061, -5.213012, -81.210724, -50.000336, -628.468994
1733469659.801459, -2.004845, 6.699724, 4.340538, -0.587210, -2.505690, -5.044450, -81.313141, -52.318924, -628.039124
1733469659.811462, -1.471985, 6.518364, 4.155436, -0.867460, -2.302823, -4.886897, -80.951523, -54.543976, -627.696045
1733469659.821469, -0.956035, 6.264429, 4.083161, -1.115495, -2.210637, -4.738872, -80.318802, -56.860657, -627.097412
1733469659.831470, -0.461183, 6.044761, 4.087950, -1.322664, -2.261100, -4.599750, -80.337112, -58.749771, -625.814392
1733469659.841472, -0.023044, 5.681291, 3.749469, -1.507505, -2.349359, -4.476734, -79.448578, -60.814392, -625.176575
1733469659.851467, 0.219668, 5.268740, 3.237260, -1.663137, -2.444371, -4.363539, -78.886398, -62.558487, -624.406738
1733469659.860759, 0.609773, 5.196465, 2.771588, -1.753570, -2.598059, -4.203731, -78.416031, -64.253464, -623.574341
1733469659.871471, 1.412729, 5.214272, 2.300229, -1.766379, -2.813621, -3.996363, -77.541641, -65.924896, -622.807800
1733469659.881470, 2.289455, 4.884770, 1.901894, -1.717221, -3.074550, -3.759479, -76.909393, -67.393555, -621.850281
1733469659.891475, 2.977788, 4.597615, 1.724873, -1.625015, -3.424727, -3.472145, -76.234314, -68.950760, -620.332275
1733469659.901475, 3.481020, 4.231751, 1.469591, -1.517117, -3.800188, -3.158076, -75.514740, -69.936951, -620.029724
1733469659.911458, 3.876362, 3.675548, 1.028459, -1.408896, -4.101358, -2.821089, -75.192764, -70.953247, -618.291260
1733469659.921472, 4.104709, 3.224541, 0.493804, -1.311075, -4.250510, -2.460578, -74.250198, -71.790604, -616.668152
1733469659.931457, 4.411765, 2.700659, -0.073921, -1.254357, -4.188731, -2.080763, -73.712555, -72.560043, -615.829346
1733469659.941460, 4.828805, 2.177975, -0.308702, -1.249822, -3.996707, -1.668806, -73.248047, -73.255936, -614.654175
1733469659.951536, 5.311985, 1.747618, -0.276530, -1.286068, -3.768164, -1.213893, -73.111557, -73.528809, -613.699463
1733469659.961465, 5.743989, 1.650952, -0.128838, -1.377835, -3.511383, -0.733476, -72.801315, -73.952850, -613.312927
1733469659.971451, 5.935974, 1.804031, 0.206500, -1.543788, -3.262933, -0.245078, -72.656342, -73.947845, -612.476929
1733469659.981471, 6.068403, 2.184559, 0.582689, -1.783175, -3.038477, 0.252988, -72.617966, -73.953125, -612.486389
1733469659.991481, 6.173150, 2.497152, 0.600795, -2.055852, -2.806188, 0.763994, -73.012314, -73.673203, -611.663513
1733469660.001248, 6.233753, 2.672378, 0.398635, -2.306719, -2.570156, 1.286058, -73.491745, -73.080475, -612.220459
1733469660.011456, 6.102970, 2.812439, 0.189740, -2.542049, -2.355072, 1.810198, -74.120148, -72.185104, -612.417786
1733469660.020974, 5.962011, 2.808399, -0.192284, -2.794477, -2.126955, 2.337493, -74.692001, -71.319870, -612.798462
1733469660.031452, 5.678448, 2.974496, -0.806397, -3.052727, -1.862823, 2.859220, -75.597687, -69.989426, -612.867859
1733469660.041454, 4.245069, 4.959289, -2.189946, -3.514794, -1.383618, 3.762397, -76.738159, -68.387268, -613.403809
1733469660.051462, 3.808127, 6.068403, -2.936788, -3.592332, -1.349565, 4.202631, -77.716202, -66.798401, -613.086304
1733469660.061448, 3.411288, 7.388057, -3.617040, -3.534139, -1.447795, 4.690946, -78.646179, -64.718796, -613.929138
1733469660.071455, 2.981230, 8.758588, -4.254496, -3.415045, -1.587510, 5.267599, -79.321060, -62.456848, -614.402222
1733469660.081451, 2.611924, 9.896283, -4.789600, -3.365609, -1.684119, 5.941670, -80.567001, -59.769699, -614.131348
1733469660.091450, 1.540070, 10.811766, -5.123741, -3.438699, -1.853207, 6.583050, -81.642883, -56.652359, -614.027954
1733469660.101451, -0.258723, 12.210129, -5.895722, -3.506114, -2.066108, 7.120697, -82.581802, -53.279297, -613.819092
1733469660.111447, -2.578555, 13.700520, -7.134272, -3.411134, -2.432996, 7.496759, -83.318085, -49.438156, -612.749390
1733469660.121453, -5.283853, 14.862456, -8.357559, -3.037716, -3.119429, 7.713620, -83.465454, -45.777405, -612.050537
1733469660.131465, -8.228721, 15.802629, -10.232369, -2.356889, -3.862340, 7.783537, -83.110245, -41.773132, -610.072327
1733469660.141452, -11.072584, 16.708984, -12.553398, -1.537778, -4.298400, 7.804663, -82.508591, -37.578720, -607.603455
1733469660.151449, -13.410971, 16.267254, -14.581736, -0.856236, -4.267235, 7.785400, -81.351685, -33.742828, -605.390686
1733469660.161464, -15.894806, 15.047557, -16.306010, -0.438816, -3.740868, 7.675291, -80.152451, -29.550339, -603.356262
1733469660.171447, -18.618509, 14.266150, -18.458846, -0.257732, -2.639319, 7.366688, -78.606354, -26.031586, -601.623047
1733469660.181454, -20.827310, 14.909442, -20.336199, -0.120395, -1.322118, 6.984887, -76.907303, -22.755463, -601.550659
1733469660.191457, -21.710621, 16.504280, -21.641638, 0.131881, -0.166967, 6.649024, -75.386871, -19.749023, -600.907654
1733469660.201456, -21.618743, 18.116026, -21.960815, 0.550934, 0.471663, 6.428274, -73.647766, -16.856705, -600.905457
1733469660.211456, -21.428853, 19.341708, -21.125238, 1.080482, 0.546695, 6.330329, -71.895981, -14.101639, -601.295349
1733469660.221449, -21.574301, 19.632454, -20.319889, 1.594717, 0.353997, 6.302269, -70.068436, -11.444992, -602.407776
1733469660.231454, -22.462849, 19.168727, -19.884443, 2.015090, 0.116998, 6.263484, -68.104691, -8.777054, -602.459595
1733469660.241452, -24.284088, 18.175133, -19.680188, 2.389170, -0.118413, 6.098383, -66.292236, -6.313339, -603.028076
1733469660.251447, -26.544663, 17.236606, -19.992033, 2.870494, -0.323316, 5.713514, -63.759155, -4.152542, -603.013855
1733469660.261465, -28.183494, 16.808193, -20.591631, 3.614302, -0.474792, 5.297053, -61.441193, -2.208801, -604.830750
1733469660.271445, -29.389424, 17.394623, -20.863971, 4.602125, -0.411419, 5.034797, -59.174286, -0.103394, -605.916199
1733469660.281445, -31.261989, 18.518701, -19.960908, 5.609805, -0.010012, 4.960221, -56.778061, 1.794006, -608.020691
1733469660.291444, -34.547282, 18.507328, -17.435474, 6.343502, 0.570414, 4.789527, -54.962296, 3.342346, -610.724548
1733469660.301446, -38.370074, 16.962769, -14.023288, 6.600234, 1.119234, 4.232783, -53.558197, 4.596603, -613.744019
1733469660.311442, -40.580820, 14.953585, -10.408792, 6.478221, 1.395681, 3.304143, -52.322311, 5.094894, -616.782471
1733469660.321331, -40.196850, 13.670143, -7.573309, 6.304248, 1.230570, 2.287296, -50.916656, 5.273270, -619.938171
1733469660.331450, -38.550537, 14.760852, -5.506963, 6.317138, 0.677048, 1.459353, -50.117477, 5.409256, -622.843567
1733469660.341445, -36.715980, 15.556774, -3.604321, 6.448720, -0.131608, 0.799023, -49.345734, 4.597733, -626.275879
1733469660.351459, -35.563471, 15.534777, -2.308908, 6.566616, -0.889249, 0.225689, -49.357483, 4.074875, -627.574097
1733469660.361456, -35.322705, 14.580688, -2.031031, 6.584374, -1.267841, -0.454738, -49.918015, 3.195496, -631.196533
1733469660.371461, -34.863018, 12.992285, -1.354220, 6.450048, -1.344360, -1.260138, -50.811447, 1.605209, -633.915588
1733469660.381455, -33.371430, 12.500127, -0.138564, 6.226552, -1.317048, -2.075492, -52.141693, -0.039658, -635.860107
1733469660.391448, -30.788984, 12.935572, 1.347337, 5.986317, -1.383865, -2.770832, -53.658142, -1.967529, -637.353027
1733469660.401447, -27.792491, 13.656526, 2.576610, 5.806306, -1.540646, -3.262171, -55.369629, -4.000732, -639.118591
1733469660.411488, -25.363574, 14.097957, 3.441066, 5.667920, -1.678469, -3.598937, -57.240738, -6.684616, -640.841187
1733469660.421454, -23.681049, 13.577069, 4.533720, 5.488106, -1.799168, -3.914014, -59.390198, -9.342270, -642.183777
1733469660.431449, -22.297200, 12.157457, 5.584924, 5.203544, -1.807687, -4.264470, -61.805817, -11.900238, -643.036865
1733469660.441437, -20.833595, 10.833763, 6.494272, 4.774096, -1.705795, -4.624953, -63.799057, -14.655212, -643.770142
1733469660.451456, -19.002180, 9.948506, 7.519290, 4.225013, -1.602622, -4.953922, -65.879425, -17.761383, -643.917236
1733469660.461440, -16.867450, 9.469965, 8.529343, 3.576274, -1.556302, -5.233992, -67.953018, -20.682114, -644.873047
1733469660.471440, -14.685135, 9.087641, 9.339781, 2.861204, -1.615072, -5.438247, -69.655533, -23.556656, -644.540161
1733469660.481433, -12.714707, 8.614487, 9.485677, 2.130593, -1.705508, -5.586854, -71.199570, -26.142441, -644.452698
1733469660.491434, -11.067796, 8.248773, 9.235334, 1.440095, -1.825024, -5.702465, -72.860840, -28.916077, -643.905579
1733469660.501434, -9.688586, 8.006809, 8.834903, 0.814331, -1.962423, -5.808777, -74.280853, -31.610870, -642.962769
1733469660.511482, -8.400954, 7.887398, 8.307132, 0.278285, -2.145153, -5.869111, -75.558136, -34.238403, -641.980591
1733469660.521452, -6.894553, 8.034941, 7.424719, -0.152294, -2.268274, -5.833053, -76.583817, -36.790253, -641.030701
1733469660.531435, -5.414337, 8.100931, 6.673687, -0.495048, -2.352060, -5.735556, -77.520554, -39.202469, -639.904053
1733469660.541435, -4.327220, 7.775469, 6.129156, -0.792755, -2.396776, -5.613959, -78.241196, -41.514786, -639.021545
1733469660.551497, -3.478027, 7.629124, 5.367351, -1.057041, -2.327701, -5.468736, -78.622543, -43.886734, -637.667603
1733469660.561442, -2.854487, 7.553108, 4.805612, -1.289241, -2.196251, -5.331839, -79.138657, -45.936203, -636.999512
1733469660.571453, -2.388815, 7.339276, 4.632481, -1.498418, -2.127484, -5.239187, -79.339661, -48.203934, -636.352783
1733469660.581435, -1.960402, 7.099556, 4.402338, -1.661879, -2.154132, -5.181311, -79.434296, -50.145859, -635.643433
1733469660.591505, -1.496376, 6.976554, 3.976470, -1.764772, -2.234155, -5.145872, -79.545822, -52.165955, -634.862610
1733469660.601433, -0.687884, 7.088932, 3.406350, -1.811145, -2.302538, -5.076182, -79.282700, -54.379700, -633.743896
1733469660.611432, 0.391153, 7.182755, 2.993051, -1.829138, -2.388179, -4.933197, -79.091354, -56.384811, -633.263672
1733469660.621435, 1.415272, 7.093271, 2.795380, -1.823166, -2.487097, -4.740582, -78.821167, -58.173141, -632.556824
1733469660.631481, 2.441786, 7.062895, 2.586187, -1.798302, -2.596452, -4.477297, -78.512756, -59.836716, -631.694763
1733469660.641430, 3.467702, 7.094618, 2.266112, -1.768370, -2.684680, -4.116588, -78.183990, -61.108078, -630.933411
1733469660.651429, 4.389170, 6.946626, 1.770362, -1.737975, -2.698257, -3.702319, -77.732819, -62.544907, -630.186768
1733469660.661434, 5.049072, 6.593482, 1.211616, -1.685876, -2.632980, -3.265409, -77.385178, -63.619659, -629.415344
1733469660.671456, 5.508759, 6.282535, 0.672172, -1.608402, -2.497883, -2.803852, -77.309052, -64.558014, -629.081543
1733469660.681429, 5.978920, 6.077232, 0.405967, -1.526934, -2.323375, -2.320179, -77.131073, -65.431107, -628.460205
1733469660.691499, 6.697181, 5.822100, 0.685640, -1.462968, -2.232659, -1.796503, -77.007462, -65.993759, -627.909424
1733469660.701438, 7.290194, 5.558588, 1.234510, -1.458812, -2.251007, -1.247017, -77.086197, -66.158615, -627.444580
1733469660.711431, 7.652018, 5.271284, 1.811214, -1.539125, -2.333562, -0.698604, -77.117416, -66.486816, -626.870972
1733469660.721430, 7.800309, 5.030966, 2.190246, -1.704406, -2.429600, -0.165050, -77.707886, -66.034042, -626.059387
1733469660.731424, 7.848492, 5.047127, 2.517503, -1.922830, -2.581308, 0.343162, -77.817520, -65.733688, -625.645142
1733469660.741431, 7.866299, 4.922479, 2.390461, -2.173046, -2.753910, 0.869526, -78.297272, -65.005234, -625.150391
1733469660.751428, 7.791331, 4.627094, 1.754800, -2.453383, -2.825862, 1.404951, -78.924973, -63.945450, -625.060303
1733469660.761427, 7.397933, 4.782867, 0.998831, -2.784766, -2.815565, 1.928523, -79.717087, -62.702942, -624.287354
1733469660.771007, 6.903531, 5.267992, -0.224756, -3.120649, -2.713707, 2.445287, -79.717087, -62.702942, -624.287354
1733469660.781443, 6.460753, 6.193949, -1.864036, -3.418591, -2.523980, 2.997507, -80.867142, -59.290604, -623.396851
1733469660.791434, 5.814768, 7.284059, -3.298761, -3.623009, -2.444775, 3.563220, -81.440887, -56.942444, -622.930969
1733469660.801426, 4.827010, 8.459912, -4.953454, -3.644446, -2.490634, 4.132202, -82.095505, -54.626205, -622.258057
1733469660.811426, 3.524564, 9.792883, -6.624756, -3.512449, -2.572429, 4.731983, -82.565689, -51.710541, -621.512329
1733469660.821434, 1.674894, 10.900651, -7.578097, -3.434267, -2.670633, 5.293620, -82.565689, -51.710541, -621.512329
1733469660.831440, -0.764947, 11.640160, -8.347683, -3.508924, -2.751822, 5.740047, -83.075485, -48.659637, -620.405945
1733469660.841428, -2.961478, 11.780669, -9.750386, -3.673221, -2.772383, 6.052691, -83.800491, -45.340103, -619.251587
1733469660.851475, -4.923227, 12.080693, -11.881675, -3.692020, -2.855680, 6.233937, -83.637085, -42.099640, -617.983337
1733469660.861423, -6.512977, 12.459126, -14.553155, -3.397049, -3.023066, 6.351068, -83.480331, -38.655136, -616.492981
1733469660.871421, -8.285434, 12.955324, -16.868049, -2.820058, -3.314159, 6.420509, -83.054001, -35.444504, -615.432251
1733469660.881483, -10.104578, 13.599963, -18.566136, -2.017898, -3.609684, 6.490252, -82.049667, -32.009354, -613.285645
1733469660.891425, -12.281057, 14.555100, -19.736152, -1.322426, -3.531426, 6.615339, -81.015579, -28.725159, -611.622070
1733469660.901422, -14.926800, 14.672117, -20.761469, -0.959418, -2.826625, 6.658686, -79.525391, -25.270096, -609.122498
1733469660.911423, -17.137845, 13.947571, -22.000020, -0.769966, -1.701961, 6.633155, -77.860046, -22.017944, -608.015564
1733469660.921433, -18.494759, 13.395409, -22.687156, -0.659603, -0.508138, 6.555871, -76.591705, -19.012268, -607.441772
1733469660.931435, -19.805435, 13.662212, -21.681890, -0.539245, 0.134245, 6.362491, -74.949631, -16.261398, -606.820984
1733469660.941422, -21.172673, 14.074614, -20.238785, -0.195319, -0.107213, 6.035894, -73.712082, -13.728073, -606.983093
1733469660.951430, -21.783644, 13.438953, -19.775058, 0.424801, -0.918548, 5.647552, -71.874481, -11.461395, -606.420593
1733469660.961425, -22.398355, 12.860305, -19.524415, 1.180769, -1.815407, 5.254104, -70.132568, -9.090546, -606.688171
1733469660.971424, -23.565977, 12.399421, -19.669115, 1.943486, -2.403051, 4.850532, -68.309677, -6.966049, -605.994080
1733469660.981443, -25.037065, 11.843667, -19.775806, 2.688141, -2.618766, 4.455081, -65.726532, -5.386429, -605.894043
1733469660.991424, -26.757897, 11.934197, -19.649363, 3.464701, -2.508040, 4.087620, -64.069672, -3.671570, -605.775757
1733469661.001430, -28.339567, 12.387899, -19.012355, 4.268931, -2.119520, 3.804645, -62.113831, -2.066650, -606.486694
1733469661.011420, -30.144046, 13.136236, -17.506702, 5.005384, -1.517884, 3.600283, -60.020157, -0.623489, -607.590149
1733469661.020945, -32.599899, 13.711743, -15.073145, 5.541987, -0.778737, 3.388412, -58.450165, 0.592911, -609.152710
1733469661.031441, -35.640684, 12.644976, -11.037419, 5.756399, -0.366060, 2.866845, -57.731583, 1.683945, -611.581909
1733469661.041422, -38.268470, 10.619033, -6.833800, 5.688538, -0.549634, 1.877344, -57.492615, 2.325912, -613.888550
1733469661.051427, -38.456864, 8.665663, -4.404882, 5.522063, -1.115659, 0.641993, -57.339325, 2.503571, -615.529175
1733469661.061420, -36.225319, 8.354118, -3.807678, 5.418409, -1.730099, -0.475714, -57.013611, 2.411865, -617.389954
1733469661.071434, -32.929700, 11.174038, -5.421071, 5.561584, -1.806942, -1.034878, -56.959854, 2.253387, -618.747986
1733469661.081209, -30.597448, 14.300267, -6.268319, 5.876285, -1.352144, -1.124396, -57.032394, 1.636642, -620.844299
1733469661.091425, -30.057406, 15.257050, -4.894347, 6.123782, -0.665811, -1.079264, -57.765350, 1.035721, -622.835754
1733469661.100480, -31.115943, 14.601937, -2.368614, 6.192174, -0.012508, -1.230397, -58.391724, -0.063248, -625.678467
1733469661.111431, -32.317084, 13.063064, 0.849792, 6.074379, 0.307878, -1.742975, -59.834839, -1.225952, -628.097290
1733469661.121430, -32.164902, 11.487828, 3.722684, 5.874774, 0.206433, -2.510209, -60.757599, -2.790039, -630.301941
1733469661.131426, -30.471154, 10.959907, 5.783194, 5.687202, -0.255421, -3.337687, -62.041245, -4.837006, -632.316467
1733469661.141439, -27.666197, 11.153987, 7.217770, 5.500457, -0.844164, -4.047700, -63.598267, -7.058411, -634.094421
1733469661.151439, -24.449438, 11.481394, 8.118738, 5.269099, -1.348058, -4.556811, -65.610046, -9.874283, -634.628967
1733469661.161423, -21.432594, 11.752687, 8.780585, 4.935614, -1.664984, -4.861544, -67.497635, -12.508011, -636.048279
1733469661.171418, -18.964920, 11.880777, 9.193285, 4.525640, -1.784877, -5.025762, -69.472015, -15.283279, -636.863159
1733469661.181507, -16.924163, 11.338640, 9.633519, 4.035713, -1.756331, -5.119828, -71.338760, -18.387238, -636.888916
1733469661.191410, -15.120132, 10.497228, 10.314969, 3.440562, -1.668466, -5.195874, -73.340530, -21.299530, -637.158447
1733469661.201413, -13.637073, 9.721656, 10.766126, 2.767873, -1.590226, -5.287686, -74.784119, -24.228455, -636.824463
1733469661.211407, -12.152968, 9.147945, 10.715698, 2.078880, -1.505220, -5.381862, -76.226349, -27.004517, -636.738708
1733469661.221476, -10.620080, 8.611644, 10.453384, 1.454348, -1.480549, -5.468421, -77.379654, -29.760269, -636.187561
1733469661.231422, -9.134029, 8.075642, 10.216208, 0.914629, -1.570723, -5.540632, -78.652206, -32.541519, -635.490723
1733469661.241410, -7.652766, 7.703643, 9.808595, 0.450422, -1.719121, -5.588837, -79.707993, -35.302628, -634.538086
1733469661.251475, -6.226271, 7.552958, 9.167697, 0.065968, -1.877227, -5.585716, -80.372040, -37.950195, -633.324341
1733469661.261404, -4.853346, 7.663540, 8.298902, -0.250079, -1.961634, -5.500353, -81.032806, -40.450867, -633.130615
1733469661.271417, -3.396325, 7.851335, 7.470807, -0.538168, -1.904123, -5.339972, -81.509262, -42.923431, -632.148071
1733469661.281410, -2.077568, 7.835175, 7.022343, -0.839261, -1.791824, -5.122138, -81.606369, -45.152893, -631.448853
1733469661.291465, -1.026664, 7.647828, 6.571186, -1.136535, -1.641483, -4.869660, -81.690536, -47.513245, -630.979614
1733469661.301403, -0.132280, 7.393744, 6.158784, -1.400896, -1.511095, -4.613523, -81.682526, -49.628632, -630.406189
1733469661.311404, 0.620697, 7.110929, 5.992537, -1.639715, -1.478130, -4.363514, -81.692322, -51.371307, -629.649719
1733469661.321386, 1.263540, 6.864625, 5.789030, -1.845261, -1.541100, -4.120700, -81.662460, -53.132996, -629.235474
1733469661.331496, 1.753753, 6.566547, 5.415684, -2.012846, -1.687212, -3.885235, -81.469391, -54.860275, -628.525696
1733469661.341412, 2.123058, 6.130503, 5.025878, -2.155137, -1.872376, -3.666519, -81.223770, -56.248306, -628.531067
1733469661.351410, 2.269404, 5.726481, 4.575918, -2.281994, -2.065095, -3.475774, -80.652832, -57.975418, -627.470276
1733469661.361407, 2.374001, 5.438728, 4.069095, -2.383625, -2.239274, -3.297940, -80.455719, -58.982498, -627.354980
1733469661.371459, 2.686145, 5.328296, 3.311181, -2.468046, -2.323393, -3.109110, -80.122940, -60.217499, -626.612671
1733469661.381412, 3.233369, 5.165340, 2.361132, -2.518888, -2.283395, -2.879097, -79.721756, -61.318466, -626.288818
1733469661.391401, 3.880402, 4.935497, 1.772308, -2.520539, -2.225299, -2.620917, -79.446228, -62.401306, -625.929443
1733469661.401476, 4.428076, 4.603302, 1.426944, -2.470310, -2.225451, -2.357265, -79.272125, -63.206863, -625.509827
1733469661.411407, 4.992509, 4.276194, 1.075745, -2.346785, -2.305051, -2.075971, -79.140518, -63.975433, -625.354858
1733469661.421422, 5.432593, 4.114585, 0.817470, -2.164253, -2.458442, -1.776858, -78.944885, -64.455429, -624.556030
1733469661.431470, 5.958420, 4.082263, 0.667084, -1.961476, -2.630306, -1.448711, -78.601181, -64.945816, -623.842712
1733469661.441413, 6.750601, 4.113089, 0.687884, -1.756451, -2.840982, -1.052768, -78.615021, -65.328323, -623.325928
1733469661.451407, 7.731176, 4.296844, 1.059584, -1.591026, -3.086279, -0.559031, -78.821838, -65.497925, -621.854858
1733469661.461479, 8.396016, 4.777480, 1.523760, -1.523798, -3.359115, -0.000586, -79.134857, -65.200073, -621.510681
1733469661.471405, 8.914062, 5.360468, 1.991078, -1.552233, -3.689763, 0.652925, -79.216187, -64.862305, -620.063354
1733469661.481400, 9.161263, 5.923255, 2.170793, -1.649218, -4.001634, 1.384498, -79.750626, -64.022873, -618.895874
1733469661.491449, 8.911967, 6.781127, 1.828721, -1.845307, -4.147219, 2.162295, -80.264389, -62.876251, -617.490967
1733469661.501401, 8.164826, 7.687333, 0.851887, -2.130555, -4.042824, 2.938493, -80.735291, -61.401581, -615.826904
1733469661.510743, 7.065439, 8.360403, -0.557400, -2.499266, -3.723158, 3.649297, -81.581558, -59.591583, -614.880127
1733469661.521421, 6.122572, 8.709058, -2.373402, -2.878242, -3.305080, 4.294299, -82.105255, -57.310028, -614.344055
1733469661.531419, 5.255273, 9.598654, -4.749049, -3.152510, -2.883554, 4.914261, -82.628998, -54.945282, -613.405396
1733469661.541401, 4.273949, 11.183166, -7.301567, -3.267883, -2.500638, 5.542147, -83.089798, -51.897781, -612.664124
1733469661.551404, 3.266439, 12.962806, -9.528025, -3.205163, -2.278443, 6.256281, -83.542572, -48.706070, -610.755798
1733469661.561416, 1.558326, 15.091102, -11.173141, -3.067723, -2.221007, 7.043964, -83.419327, -44.958267, -610.723633
1733469661.571411, -1.075894, 16.255731, -12.751368, -2.938825, -2.225244, 7.767401, -83.176987, -40.953934, -609.634033
1733469661.580662, -4.446032, 16.738163, -14.575002, -2.782366, -2.275333, 8.336378, -82.820831, -36.910355, -608.420593
1733469661.591398, -8.926931, 17.025617, -17.245584, -2.459471, -2.335906, 8.595389, -82.036453, -32.516327, -607.475891
1733469661.601401, -13.498509, 16.123901, -20.643405, -1.883797, -2.250366, 8.528213, -80.766296, -28.434601, -605.869751
1733469661.611400, -17.318458, 14.643686, -23.236176, -1.120697, -2.123522, 8.212744, -79.279129, -24.549149, -605.241699
1733469661.621408, -20.742765, 13.398551, -24.859445, -0.333312, -1.784150, 7.685218, -77.542694, -20.966171, -604.534912
1733469661.631408, -22.876148, 12.014104, -25.361479, 0.350420, -1.220422, 7.075632, -75.248947, -17.781799, -603.781250
1733469661.641421, -23.334338, 11.782016, -25.183859, 0.902288, -0.499325, 6.611195, -73.665237, -14.783127, -603.806763
1733469661.651410, -23.464673, 12.606669, -24.075493, 1.305857, 0.240724, 6.266692, -72.048691, -11.956192, -603.478027
1733469661.661405, -23.036709, 13.320739, -21.180904, 1.545442, 0.511819, 6.065837, -70.068359, -9.501358, -604.725403
1733469661.671413, -23.050925, 14.270340, -17.957111, 1.727191, 0.137073, 5.889091, -68.413376, -7.406662, -605.243164
1733469661.681462, -23.914932, 14.690821, -15.268123, 1.972548, -0.829397, 5.600120, -66.425400, -5.414032, -605.616028
1733469661.691419, -25.253889, 14.501829, -13.333159, 2.418664, -2.181207, 5.180540, -64.234695, -3.645782, -605.409668
1733469661.700830, -26.976817, 13.614179, -12.807782, 3.092714, -3.451943, 4.630330, -62.298355, -1.745239, -605.283447
1733469661.711392, -28.961610, 12.759150, -12.810176, 3.876420, -4.243442, 3.955621, -60.345200, -0.346756, -605.695312
1733469661.721412, -30.792576, 11.840674, -12.086529, 4.551936, -4.465438, 3.157254, -58.668213, 0.855469, -606.178955
1733469661.731405, -31.692047, 11.240328, -10.671256, 5.033443, -4.202086, 2.355950, -57.501251, 1.864395, -606.805115
1733469661.741403, -31.894657, 11.502343, -9.576807, 5.428688, -3.438245, 1.723612, -56.417374, 2.615540, -608.463501
1733469661.751399, -31.874007, 11.895741, -7.897873, 5.761137, -2.358156, 1.224643, -56.164108, 3.207092, -609.474915
1733469661.761399, -31.853506, 11.829152, -4.526089, 5.905924, -1.372331, 0.791996, -55.956955, 3.354050, -612.843750
1733469661.771403, -31.906777, 11.707945, -0.618602, 5.857803, -0.702206, 0.331725, -55.949844, 3.266708, -615.032104
1733469661.781393, -31.882985, 11.558158, 3.476830, 5.649560, -0.616276, -0.205584, -56.376846, 3.207962, -617.684814
1733469661.791401, -31.711949, 11.593922, 6.220435, 5.428610, -0.945761, -0.786460, -56.471466, 2.708282, -619.378052
1733469661.801399, -31.050701, 11.645247, 7.368605, 5.258324, -1.421000, -1.344154, -57.257660, 2.279694, -621.302795
1733469661.811398, -30.396934, 11.632229, 7.438485, 5.112026, -1.723648, -1.881297, -58.248734, 1.325943, -622.893188
1733469661.821395, -29.810504, 11.364677, 7.322367, 4.925381, -1.840225, -2.401428, -59.271835, 0.100494, -624.299438
1733469661.831404, -29.080722, 11.139472, 7.358130, 4.682189, -1.812131, -2.911930, -60.969528, -1.035782, -625.660767
1733469661.841392, -27.988517, 11.092785, 7.178265, 4.418589, -1.669723, -3.397013, -62.191879, -2.430634, -626.865479
1733469661.851400, -26.426001, 11.105355, 7.033267, 4.175272, -1.456186, -3.801250, -63.915955, -4.269485, -627.203552
1733469661.861398, -24.900894, 11.388020, 7.027281, 3.985502, -1.223821, -4.121678, -65.818558, -6.004089, -628.847473
1733469661.871394, -23.323115, 11.347768, 7.518392, 3.786446, -1.051700, -4.404152, -67.862488, -8.275406, -629.384888
1733469661.881411, -21.709723, 11.055675, 8.456620, 3.530709, -1.030676, -4.669855, -69.375839, -10.534317, -629.881958
1733469661.891445, -20.072837, 10.680983, 9.166351, 3.226502, -1.102780, -4.903230, -71.299728, -12.936890, -630.178955
1733469661.901419, -18.373253, 10.442011, 9.516503, 2.887820, -1.184750, -5.079011, -73.311203, -15.303406, -630.425110
1733469661.911403, -16.769437, 10.177003, 9.786898, 2.509951, -1.263469, -5.211604, -74.885422, -18.159515, -630.653015
1733469661.921405, -15.166070, 9.606884, 10.085425, 2.082037, -1.383578, -5.307830, -76.510391, -20.660660, -629.974609
1733469661.930688, -13.715633, 9.150339, 10.156353, 1.610690, -1.468267, -5.394068, -77.899445, -23.058380, -629.811340
1733469661.941406, -12.408549, 9.113828, 10.020033, 1.074643, -1.455144, -5.474580, -79.164291, -25.891525, -629.281982
1733469661.951469, -10.694151, 9.200618, 9.657761, 0.517882, -1.373459, -5.468564, -80.206467, -28.433060, -628.008118
1733469661.961391, -9.038710, 9.063999, 9.091981, 0.004312, -1.210130, -5.374915, -81.019424, -31.014297, -628.007202
1733469661.971384, -7.755118, 8.788665, 8.495226, -0.460646, -0.989076, -5.254815, -81.739105, -33.429382, -627.242920
1733469661.981384, -6.574029, 8.490288, 8.041375, -0.856792, -0.788899, -5.121895, -82.523468, -35.724091, -627.170959
1733469661.991389, -5.405658, 8.129063, 7.661445, -1.181789, -0.667323, -4.975837, -82.641861, -38.133896, -626.734497
1733469662.001386, -4.396951, 7.725789, 7.291242, -1.419008, -0.622103, -4.829827, -83.188583, -40.290588, -626.100769
1733469662.011383, -3.585916, 7.176769, 7.048979, -1.599359, -0.643964, -4.715971, -83.226990, -42.630371, -626.131897
1733469662.021389, -2.881871, 6.825270, 6.888118, -1.718920, -0.764142, -4.600993, -83.415710, -44.612473, -625.662720
1733469662.031447, -2.070835, 6.804321, 6.741623, -1.794644, -0.931257, -4.465096, -83.407562, -46.785629, -625.790344
1733469662.041392, -1.011700, 6.887969, 6.686257, -1.881493, -1.145637, -4.289320, -83.096283, -48.518799, -624.935852
1733469662.051384, -0.078859, 6.787562, 6.542455, -1.997440, -1.356208, -4.065818, -83.141541, -50.337646, -623.491577
1733469662.061399, 0.500388, 6.520608, 5.946299, -2.135975, -1.454304, -3.844138, -82.954483, -51.845947, -623.593872
1733469662.071387, 0.956633, 6.211906, 5.422717, -2.275068, -1.500772, -3.634260, -82.760788, -53.506882, -623.497253
1733469662.081398, 1.392378, 5.805939, 4.725556, -2.414129, -1.474333, -3.422015, -82.396591, -54.910370, -623.079712
1733469662.091383, 1.879149, 5.449652, 3.891924, -2.515646, -1.405151, -3.209512, -81.900986, -56.271133, -623.144836
1733469662.101383, 2.410811, 5.044134, 3.164386, -2.539274, -1.335823, -2.986687, -81.546707, -57.466156, -622.350098
1733469662.111381, 2.833987, 4.621857, 2.637812, -2.491109, -1.335045, -2.768747, -81.334885, -58.856293, -622.410156
1733469662.121131, 3.320010, 4.360440, 2.343624, -2.382331, -1.417132, -2.540343, -81.228622, -59.795471, -622.314392
1733469662.131382, 3.908385, 4.181174, 2.412607, -2.226492, -1.641956, -2.287441, -81.120926, -60.625626, -621.887939
1733469662.141381, 4.629339, 4.024653, 2.742109, -2.068678, -1.981199, -1.977325, -80.775253, -61.297180, -621.097595
1733469662.151383, 5.261857, 3.813814, 3.248782, -1.971161, -2.382639, -1.609671, -80.405426, -61.809387, -620.229004
1733469662.161398, 5.518336, 3.563021, 3.427449, -1.992781, -2.692055, -1.195879, -80.535797, -62.142242, -619.674438
1733469662.171432, 5.445312, 3.300856, 3.072359, -2.105578, -2.782426, -0.776219, -80.341888, -62.263885, -618.967407
1733469662.181382, 5.212327, 2.948459, 2.611475, -2.275817, -2.691961, -0.389007, -80.537369, -62.086685, -618.584839
1733469662.191379, 5.093215, 2.587982, 2.173935, -2.467391, -2.485581, -0.020239, -80.683731, -61.806213, -618.160400
1733469662.201387, 5.048174, 2.434903, 1.874810, -2.658290, -2.244740, 0.333224, -80.930237, -61.552155, -617.813232
1733469662.211378, 4.898237, 2.385373, 1.633294, -2.822566, -2.033738, 0.657882, -81.194855, -61.126801, -617.754150
1733469662.221379, 4.684405, 2.395698, 1.412729, -2.972388, -1.850207, 0.929560, -81.531128, -60.469788, -617.392639
1733469662.231377, 4.597765, 2.371157, 1.250970, -3.113966, -1.763214, 1.183116, -81.877518, -59.798752, -617.200378
1733469662.241378, 4.707150, 2.301875, 0.904410, -3.200183, -1.771687, 1.447907, -82.311157, -59.052780, -617.265747
1733469662.251377, 4.710292, 2.549974, 0.357933, -3.213956, -1.834514, 1.709569, -82.341141, -58.136490, -617.195557
1733469662.261384, 4.866365, 3.282002, -0.260968, -3.174712, -1.924363, 2.014781, -82.931381, -56.838623, -616.760132
1733469662.271377, 5.041441, 4.455909, -0.753425, -3.134325, -2.050451, 2.382210, -83.206711, -55.326706, -616.507812
1733469662.281379, 4.796484, 6.087108, -1.142034, -3.109156, -2.222487, 2.768039, -83.198517, -53.499695, -615.253967
1733469662.291377, 4.702661, 7.939771, -1.840243, -3.106067, -2.373847, 3.230173, -83.562668, -51.401596, -614.856628
1733469662.301374, 5.068824, 9.522937, -2.761263, -3.183394, -2.571865, 3.881607, -83.623260, -49.023102, -613.392090
1733469662.311379, 5.034707, 11.248558, -4.187608, -3.325207, -2.709994, 4.689669, -83.718491, -46.269684, -612.390991
1733469662.321402, 3.889231, 12.825140, -6.270863, -3.493158, -2.684883, 5.531282, -83.595825, -42.837555, -611.394287
1733469662.331386, 1.503259, 14.550910, -8.984092, -3.647622, -2.451700, 6.311028, -83.725922, -39.361160, -610.216553
1733469662.341381, -1.527351, 16.223410, -12.327595, -3.698449, -2.136101, 6.903770, -83.725922, -39.361160, -610.216553
1733469662.351384, -4.541651, 16.650475, -16.228348, -3.442137, -1.910347, 7.275099, -82.907104, -35.885101, -609.072083
1733469662.361377, -7.595455, 16.595409, -19.925893, -2.739437, -1.838619, 7.475817, -82.225388, -32.034668, -608.439087
1733469662.371380, -10.606762, 16.870592, -22.672940, -1.835034, -1.725340, 7.587554, -80.870667, -28.253830, -607.249695
1733469662.381380, -13.542652, 16.945561, -24.022073, -1.160507, -1.382815, 7.613197, -79.225143, -24.447113, -606.487793
1733469662.391390, -16.531364, 16.675166, -25.002199, -0.766688, -0.672661, 7.522787, -77.642212, -20.980270, -605.907715
1733469662.401380, -19.115156, 16.290597, -25.615713, -0.516751, 0.184703, 7.302979, -75.860687, -17.670395, -605.853882
1733469662.411385, -20.481198, 16.110583, -25.159767, -0.288841, 0.797258, 7.031158, -74.478104, -14.848969, -606.044739
1733469662.421373, -20.830602, 15.946879, -23.977930, 0.008212, 0.903917, 6.754035, -72.724823, -11.975204, -606.673584
1733469662.431409, -20.985626, 15.883134, -22.703915, 0.504084, 0.439022, 6.523043, -70.264557, -9.438217, -607.080017
1733469662.441400, -21.705234, 15.489138, -21.930438, 1.244527, -0.319980, 6.334815, -68.334030, -6.846207, -607.268799
1733469662.451431, -23.558645, 14.591013, -20.877887, 2.037910, -1.068631, 6.044569, -65.671051, -4.783051, -606.960693
1733469662.461448, -25.930700, 13.243826, -19.593697, 2.674413, -1.514969, 5.638239, -63.647552, -2.527130, -607.875122
1733469662.470619, -28.531701, 11.669937, -18.234539, 3.060004, -1.591179, 5.051337, -61.651703, -0.721024, -608.181763
1733469662.481410, -30.487764, 10.340407, -16.870143, 3.227911, -1.365399, 4.343637, -59.786224, 0.620758, -609.009338
1733469662.491478, -30.865449, 10.776900, -14.459631, 3.421234, -0.421276, 3.264224, -58.362930, 1.787003, -610.183350
1733469662.501474, -30.865449, 10.776900, -14.459631, 3.421234, -0.421276, 3.264224, -56.405487, 2.755569, -611.197327
1733469662.511377, -32.166548, 12.515091, -11.699416, 3.600879, -0.001626, 2.992010, -55.314056, 3.620026, -612.440918
1733469662.521409, -33.822887, 11.771691, -10.395923, 3.835184, 0.369937, 2.682163, -54.212845, 4.222321, -614.217102
1733469662.531422, -33.822887, 11.771691, -10.395923, 4.076477, 0.500450, 2.188014, -53.581436, 4.553802, -616.511475
1733469662.541369, -34.350060, 10.352827, -7.772626, 4.586666, 0.008211, 0.669111, -53.111649, 4.754852, -618.781921
1733469662.551401, -32.484229, 11.050737, -6.282385, 4.828077, -0.559344, -0.073135, -52.692764, 4.591324, -619.943848
1733469662.561374, -30.275279, 13.010541, -5.127482, 5.126709, -1.101983, -0.535602, -52.609253, 4.444016, -622.226318
1733469662.571375, -29.034035, 14.797513, -4.392761, 5.456243, -1.397671, -0.772124, -52.817078, 4.186325, -624.176147
1733469662.581394, -28.777107, 14.817714, -3.472490, 5.666007, -1.328352, -0.989784, -53.097763, 3.376038, -626.207703
1733469662.591370, -29.170953, 14.257022, -2.400935, 5.714697, -0.976792, -1.293021, -53.564682, 2.553925, -628.166992
1733469662.601374, -29.367128, 13.247716, -0.885406, 5.586977, -0.524947, -1.769882, -54.838440, 1.067459, -630.413696
1733469662.611372, -28.696751, 12.232425, 1.252766, 5.308440, -0.248864, -2.377171, -56.121674, -0.154587, -632.444763
1733469662.621372, -26.976817, 11.957541, 3.120992, 4.985001, -0.296609, -2.993596, -57.486038, -1.923355, -634.308594
1733469662.631368, -24.343794, 11.849203, 4.198981, 4.702511, -0.598187, -3.521431, -58.986313, -3.712112, -635.806824
1733469662.641370, -21.530457, 11.782914, 4.519355, 4.483501, -0.989666, -3.893969, -60.617020, -5.896454, -636.982300
1733469662.651371, -19.177106, 11.710340, 4.375104, 4.307714, -1.284085, -4.137195, -62.453140, -8.225052, -637.669800
1733469662.661362, -17.301998, 11.341932, 4.355053, 4.094423, -1.405690, -4.274189, -64.246994, -10.571091, -639.059937
1733469662.671378, -15.887922, 10.643573, 4.727052, 3.794963, -1.378202, -4.356690, -65.898392, -12.905502, -639.757080
1733469662.681366, -14.700847, 9.805154, 5.191228, 3.396374, -1.222102, -4.409782, -67.639648, -15.427322, -640.140320
1733469662.691378, -13.479355, 8.926332, 5.599140, 2.929152, -1.031012, -4.453700, -69.625748, -17.803833, -640.408569
1733469662.701372, -12.442666, 8.110657, 6.049998, 2.430985, -0.872441, -4.518385, -71.030136, -20.425842, -641.086792
1733469662.711366, -11.606940, 7.622240, 6.425439, 1.932302, -0.822225, -4.610035, -72.262863, -22.797745, -640.789673
1733469662.721367, -10.703727, 7.370849, 6.627599, 1.467672, -0.880587, -4.705027, -73.538803, -25.103149, -640.745605
1733469662.731361, -9.785401, 7.206697, 6.610391, 1.050478, -1.028980, -4.798331, -74.823303, -27.594543, -640.759033
1733469662.741363, -8.874108, 7.209989, 6.552481, 0.645850, -1.259924, -4.876508, -75.697784, -29.791885, -640.053894
1733469662.751374, -8.016236, 7.155521, 6.179734, 0.279888, -1.510758, -4.935436, -76.686005, -32.119827, -638.797974
1733469662.761371, -7.247548, 6.987478, 5.405658, -0.003903, -1.703030, -4.971892, -77.621292, -34.333832, -639.105347
1733469662.770891, -6.476016, 6.743419, 4.455310, -0.196858, -1.794371, -4.976816, -78.229279, -36.539368, -638.337036
1733469662.781360, -5.661239, 6.432023, 3.742736, -0.345911, -1.778045, -4.965135, -79.051819, -38.725586, -637.500610
1733469662.791358, -4.787655, 6.341342, 3.331831, -0.452467, -1.728398, -4.932961, -79.385544, -41.148254, -636.614624
1733469662.801358, -3.641880, 6.429928, 3.068618, -0.528186, -1.660789, -4.830304, -79.744644, -43.460770, -636.488770
1733469662.811360, -2.503287, 6.455366, 3.184887, -0.601755, -1.647982, -4.679419, -80.221344, -45.536591, -635.477234
1733469662.821363, -1.254562, 6.512827, 3.564068, -0.689493, -1.738169, -4.468893, -80.195312, -47.567688, -634.772400
1733469662.831365, 0.050578, 6.345832, 3.840299, -0.787053, -1.907426, -4.195047, -80.151810, -49.530533, -633.970093
1733469662.841365, 1.213860, 5.989095, 3.940557, -0.915152, -2.074405, -3.875087, -80.231522, -51.255142, -633.209412
1733469662.851153, 2.048838, 5.526715, 3.761889, -1.079701, -2.199995, -3.534221, -80.416916, -52.893051, -631.721313
1733469662.861372, 2.649932, 4.887763, 3.197307, -1.252984, -2.178115, -3.193771, -80.448318, -54.041672, -631.165955
1733469662.871369, 3.141641, 4.120421, 2.541146, -1.433271, -2.017592, -2.863771, -80.312805, -55.518524, -630.619629
1733469662.881364, 3.459771, 3.324798, 2.207903, -1.611362, -1.812776, -2.579250, -80.424774, -56.442230, -630.349304
1733469662.891355, 3.840000, 2.756774, 1.952920, -1.747750, -1.631746, -2.303717, -80.476440, -57.425644, -629.853577
1733469662.901356, 4.343381, 2.303671, 1.710507, -1.817477, -1.519311, -2.028259, -80.326218, -58.216934, -629.593140
1733469662.911364, 4.763414, 1.919252, 1.634791, -1.834644, -1.500859, -1.750175, -80.325577, -58.855759, -629.317444
1733469662.921356, 5.111621, 1.638981, 1.629105, -1.835794, -1.541359, -1.464286, -80.426773, -59.140320, -628.985474
1733469662.931361, 5.354782, 1.398064, 1.706916, -1.858442, -1.615111, -1.181792, -80.394348, -59.636978, -628.742798
1733469662.941366, 5.436035, 1.174805, 1.714398, -1.921452, -1.687080, -0.896402, -80.225540, -59.838623, -628.505066
1733469662.951350, 5.443367, 1.005864, 1.453131, -2.028054, -1.688357, -0.613902, -80.191208, -60.058075, -627.442627
1733469662.961379, 5.559636, 0.762553, 1.135749, -2.183527, -1.641645, -0.321372, -80.363480, -59.911224, -627.711670
1733469662.971357, 5.649717, 0.527024, 0.800711, -2.378777, -1.551796, -0.024369, -80.575897, -59.729645, -627.890930
1733469662.981424, 5.597344, 0.573561, 0.474800, -2.598564, -1.417551, 0.260806, -80.633957, -59.434418, -627.642395
1733469662.991349, 5.534796, 0.884807, 0.153678, -2.825936, -1.301257, 0.534993, -80.705093, -58.923355, -627.596252
1733469663.001349, 5.306149, 1.516577, -0.157119, -3.014352, -1.292326, 0.784490, -81.103333, -58.122070, -627.918213
1733469663.011360, 5.033510, 2.207304, -0.697162, -3.102059, -1.403686, 1.017629, -81.398621, -57.324554, -627.706238
1733469663.021357, 5.069423, 2.765303, -1.580173, -3.078937, -1.593143, 1.296893, -81.656464, -56.280289, -627.607117
1733469663.031361, 5.355231, 2.723704, -2.565387, -2.983437, -1.822320, 1.628597, -82.052399, -55.235275, -627.357849
1733469663.041346, 5.455637, 2.674772, -3.426103, -2.802513, -2.149919, 2.005748, -82.291580, -53.939697, -626.696472
1733469663.051348, 5.184494, 3.248782, -3.980660, -2.560022, -2.503640, 2.401094, -83.074539, -52.543213, -624.945374
1733469663.061408, 4.574721, 4.048445, -4.168006, -2.395696, -2.785156, 2.802594, -83.084137, -50.811050, -625.015747
1733469663.071366, 3.696797, 4.971560, -3.931878, -2.394393, -2.984706, 3.200582, -83.548767, -48.967545, -623.559021
1733469663.081352, 2.823362, 6.035932, -3.583521, -2.543405, -3.115101, 3.608226, -83.846817, -47.002090, -622.179626
1733469663.091346, 1.804330, 7.148637, -3.634099, -2.801151, -3.166108, 4.036679, -84.033218, -44.664398, -620.889648
1733469663.101419, 0.699556, 8.051251, -4.088399, -3.057528, -3.188576, 4.468878, -84.145004, -42.150360, -619.357483
1733469663.111350, -0.683844, 8.595932, -4.928614, -3.245946, -3.260804, 4.870480, -84.099289, -39.376480, -617.839111
1733469663.120899, -2.349310, 9.079262, -6.339996, -3.363889, -3.375206, 5.210919, -83.982620, -36.755737, -616.265869
1733469663.131361, -4.288763, 9.591621, -8.257901, -3.378461, -3.449608, 5.474522, -83.651703, -33.892502, -614.184814
1733469663.141360, -6.470929, 10.216208, -10.366295, -3.277075, -3.459114, 5.616085, -82.735458, -31.020126, -612.406250
1733469663.151358, -8.713098, 10.727520, -12.411242, -3.037281, -3.443487, 5.634472, -81.778152, -28.217194, -609.365051
1733469663.161180, -10.956465, 11.504738, -14.328399, -2.644074, -3.393196, 5.609884, -80.286469, -25.225250, -608.203003
1733469663.171344, -12.894272, 12.350489, -16.293290, -2.170535, -3.163896, 5.645895, -78.477081, -22.630981, -606.312256
1733469663.181401, -14.486716, 12.425308, -18.375198, -1.673448, -2.662823, 5.748320, -76.943253, -19.986038, -604.470154
1733469663.191344, -15.972168, 12.911630, -20.742166, -1.228981, -1.706677, 5.948490, -74.988571, -17.420654, -603.381836
1733469663.201345, -17.804630, 13.577967, -22.613235, -0.891243, -0.419376, 6.108943, -73.267960, -15.007080, -602.896912
1733469663.211356, -19.618388, 13.987225, -23.265505, -0.587072, 0.723299, 6.124278, -71.961502, -12.416397, -602.817627
1733469663.221352, -21.155764, 14.972290, -22.040422, -0.199429, 1.032349, 5.986032, -70.606186, -10.400726, -603.475220
1733469663.231347, -22.367230, 15.338752, -20.395605, 0.427196, 0.348729, 5.674100, -68.559082, -8.348984, -603.975342
1733469663.241353, -23.344963, 14.761301, -19.629311, 1.398126, -0.932419, 5.280278, -66.762192, -6.265060, -603.779907
1733469663.251351, -24.893263, 14.198663, -19.370588, 2.600257, -2.232641, 4.857419, -64.697433, -4.218719, -603.281067
1733469663.261350, -27.448475, 13.545645, -18.544888, 3.668851, -3.073874, 4.289812, -62.475296, -2.435410, -604.124146
1733469663.270873, -29.692739, 12.594997, -17.003171, 4.413384, -3.383615, 3.653586, -60.079681, -1.007339, -604.411682
1733469663.281353, -31.260493, 12.013356, -16.063297, 5.001163, -3.075657, 3.108184, -58.587585, 0.486618, -605.804260
1733469663.291351, -32.822260, 11.575217, -14.623185, 5.437284, -2.287145, 2.587189, -57.415695, 1.571671, -606.913574
1733469663.300773, -33.876008, 10.865037, -11.817480, 5.570724, -1.343215, 2.042667, -56.789520, 2.590637, -608.791565
1733469663.311352, -34.685248, 10.313921, -8.436119, 5.386913, -0.465308, 1.423581, -56.121933, 2.891632, -611.196167
1733469663.321353, -34.810944, 10.058041, -5.423166, 4.978616, 0.190776, 0.761531, -55.868073, 3.126724, -613.089050
1733469663.331361, -33.993474, 10.245986, -3.417424, 4.607813, 0.556113, 0.226469, -55.613022, 3.370636, -614.659729
1733469663.341358, -33.457322, 11.097125, -2.978387, 4.504313, 0.764275, -0.174371, -55.830978, 3.258316, -617.161133
1733469663.351353, -33.317261, 11.101614, -2.406921, 4.522467, 0.828459, -0.632243, -56.201859, 2.884308, -618.818054
1733469663.360968, -32.913389, 10.534188, -1.860444, 4.585690, 0.813383, -1.163996, -56.858215, 2.280212, -621.479370
1733469663.371348, -32.107292, 10.575638, -1.043423, 4.639010, 0.738249, -1.776563, -57.648438, 1.409012, -623.425598
1733469663.381347, -30.447212, 11.556811, 0.157568, 4.658755, 0.553618, -2.321535, -58.464493, 0.334564, -625.335876
1733469663.391343, -28.393436, 12.938116, 1.137246, 4.696281, 0.374754, -2.710964, -59.823654, -0.851608, -627.230713
1733469663.401344, -26.479421, 13.569587, 2.229451, 4.717813, 0.200809, -3.001242, -60.817871, -2.227264, -629.078552
1733469663.411354, -24.931271, 13.591135, 3.295469, 4.698193, 0.066789, -3.214441, -62.330902, -4.021332, -630.910889
1733469663.421343, -24.055741, 13.283330, 3.880253, 4.680717, 0.113450, -3.431619, -63.706161, -5.993607, -632.174683
1733469663.431351, -23.268198, 12.297518, 4.883573, 4.590351, 0.226014, -3.716673, -65.361206, -7.980164, -633.923584
1733469663.441347, -22.089353, 11.200075, 6.370671, 4.401534, 0.249372, -4.061601, -67.068237, -10.380615, -635.198120
1733469663.451338, -20.369868, 10.328586, 7.633613, 4.151401, 0.205372, -4.434772, -68.731491, -12.783783, -636.010986
1733469663.461345, -18.090438, 9.619603, 8.782381, 3.854827, 0.068277, -4.746189, -70.320511, -15.464325, -637.683777
1733469663.471340, -15.580267, 9.066692, 9.904513, 3.488144, -0.140087, -4.976388, -71.606720, -18.257141, -638.104858
1733469663.481343, -13.116933, 8.813206, 10.782886, 3.024469, -0.328057, -5.109280, -72.961761, -21.225174, -638.800781
1733469663.491341, -10.831967, 8.676437, 11.508478, 2.472686, -0.550386, -5.119838, -74.372299, -23.667984, -638.888794
1733469663.501333, -8.561815, 8.441955, 12.012907, 1.851801, -0.764200, -5.031716, -75.564407, -26.226105, -638.413940
1733469663.511350, -6.546196, 8.157045, 12.079645, 1.170189, -0.961139, -4.858713, -76.685745, -28.654358, -638.105591
1733469663.520921, -5.024531, 7.519589, 11.501894, 0.492729, -1.087594, -4.643653, -77.859985, -30.782913, -637.771179
1733469663.531343, -3.996820, 6.775890, 10.446500, -0.090637, -1.146184, -4.440241, -78.585022, -32.812378, -637.244873
1733469663.541342, -3.444059, 5.977573, 9.187749, -0.531247, -1.189833, -4.301097, -79.274002, -34.447174, -637.167786
1733469663.551332, -3.009511, 5.171924, 7.920169, -0.833821, -1.211421, -4.218121, -79.878342, -36.270004, -635.819580
1733469663.561332, -2.526332, 4.644003, 6.994062, -1.028933, -1.245938, -4.168301, -80.526184, -38.126022, -635.738708
1733469663.571349, -2.110788, 4.380042, 6.468385, -1.161243, -1.318224, -4.141292, -80.779968, -39.840897, -635.213440
1733469663.581341, -1.743727, 4.300285, 5.985205, -1.293781, -1.339245, -4.112546, -81.455887, -41.543747, -634.298401
1733469663.591345, -1.154005, 4.265270, 5.550059, -1.462113, -1.280983, -4.066689, -81.565063, -43.103302, -633.978760
1733469663.601334, -0.313790, 4.488829, 5.461024, -1.670012, -1.218453, -3.968720, -81.429077, -44.669724, -633.202209
1733469663.611334, 0.617255, 4.904522, 5.386954, -1.877968, -1.228210, -3.788907, -81.495926, -46.391525, -632.954651
1733469663.621332, 1.555483, 5.005527, 5.098602, -2.048412, -1.288672, -3.558342, -81.679138, -47.539062, -632.747498
1733469663.631335, 2.270302, 4.879533, 4.895843, -2.191845, -1.441860, -3.305211, -81.750793, -48.588287, -631.875183
1733469663.641330, 2.834585, 4.768352, 4.581754, -2.308152, -1.668805, -3.040057, -81.921951, -49.691162, -631.348511
1733469663.651333, 3.305644, 4.540005, 3.876512, -2.382098, -1.896447, -2.761918, -81.960373, -50.675735, -630.139099
1733469663.661330, 3.728221, 4.169502, 3.107973, -2.414666, -2.113192, -2.468865, -82.119293, -51.382675, -630.223267
1733469663.671329, 4.139724, 3.792116, 2.191443, -2.404409, -2.245011, -2.142199, -82.113312, -52.080582, -629.596680
1733469663.681328, 4.591331, 3.718943, 1.169268, -2.384335, -2.206063, -1.764942, -82.369186, -52.260208, -629.066406
1733469663.691329, 5.087379, 3.763835, 0.427365, -2.364060, -2.037428, -1.339266, -82.357422, -52.802139, -628.241760
1733469663.701359, 5.499631, 3.766528, 0.229843, -2.336776, -1.890322, -0.878675, -82.413254, -52.798431, -628.132629
1733469663.711336, 5.831826, 3.627964, 0.314089, -2.314734, -1.837170, -0.413261, -82.921280, -52.441956, -627.202881
1733469663.721332, 6.027253, 3.364901, 0.454749, -2.315682, -1.847526, 0.045880, -83.129700, -52.037582, -626.827148
1733469663.731335, 6.036082, 3.208978, 0.715717, -2.382525, -1.912038, 0.485618, -83.137268, -51.365448, -626.414551
1733469663.741327, 5.834669, 3.339462, 0.963068, -2.508587, -2.072536, 0.898584, -83.881393, -50.621643, -625.561096
1733469663.751332, 5.725135, 3.481020, 0.689829, -2.667969, -2.201685, 1.303275, -83.881393, -50.621643, -625.561096
1733469663.761328, 5.406556, 3.786879, 0.338780, -2.870922, -2.305489, 1.683299, -84.386261, -48.413177, -624.083923
1733469663.771337, 4.979790, 4.390966, 0.023493, -3.097364, -2.461622, 2.036956, -84.694244, -46.982605, -622.827942
1733469663.781344, 4.646248, 5.272032, -0.628927, -3.293566, -2.671672, 2.401772, -84.703888, -45.415710, -621.732666
1733469663.791331, 4.134038, 6.333112, -1.494730, -3.406726, -2.957124, 2.792538, -84.632477, -43.420624, -620.413696
1733469663.801324, 3.566313, 7.436390, -2.711284, -3.440120, -3.216729, 3.238766, -84.575607, -41.528244, -618.663818
1733469663.811340, 2.837728, 8.611195, -4.027496, -3.485325, -3.434202, 3.760471, -84.355286, -39.212646, -617.206177
1733469663.821327, 1.347786, 9.832388, -5.574450, -3.577350, -3.544086, 4.261141, -84.206848, -36.780441, -615.138916
1733469663.831328, -0.575207, 10.788123, -7.720253, -3.615365, -3.508924, 4.650236, -84.206848, -36.780441, -615.138916
1733469663.841335, -2.579902, 11.500248, -10.003872, -3.513986, -3.466248, 4.917215, -83.756454, -34.168243, -613.267212
1733469663.851345, -4.647145, 12.234071, -12.002432, -3.229017, -3.546502, 5.092380, -83.122177, -31.693954, -611.050171
1733469663.861400, -6.832902, 13.109601, -13.934104, -2.762307, -3.647482, 5.222564, -81.917892, -29.251709, -609.301270
1733469663.871316, -8.941296, 13.879786, -16.292842, -2.199190, -3.513306, 5.375205, -80.403580, -26.537659, -606.871948
1733469663.881322, -10.826131, 14.018949, -18.659959, -1.636171, -3.000601, 5.530454, -79.401031, -23.837570, -604.869812
1733469663.891330, -12.308890, 13.887417, -20.540604, -1.156165, -2.160509, 5.657344, -77.693222, -21.207611, -603.876465
1733469663.901332, -13.997700, 13.951462, -21.656003, -0.727916, -1.148927, 5.690006, -76.233566, -18.874939, -603.286987
1733469663.911326, -15.218444, 14.218715, -21.538837, -0.337098, -0.311182, 5.637401, -74.620590, -16.443298, -602.597229
1733469663.921325, -15.899744, 14.662241, -20.209456, 0.075240, -0.020028, 5.545298, -73.428268, -14.145554, -602.397034
1733469663.931329, -16.687735, 15.105766, -18.891747, 0.599413, -0.261162, 5.382763, -71.999969, -11.739365, -602.813171
1733469663.941339, -17.210719, 14.952986, -17.782185, 1.195678, -0.856365, 5.174707, -70.155472, -9.708344, -602.305725
1733469663.951333, -17.992425, 14.700398, -17.000627, 1.777316, -1.459645, 4.979258, -68.178940, -7.613220, -602.227295
1733469663.961322, -19.480422, 14.195371, -16.653468, 2.235612, -1.795078, 4.739614, -66.283218, -5.750214, -602.403931
1733469663.971327, -21.370345, 13.458256, -15.998953, 2.534917, -1.932602, 4.361094, -64.617325, -3.899460, -602.840942
1733469663.981323, -22.810008, 13.024906, -15.317354, 2.819463, -2.085332, 3.865424, -62.943909, -2.202545, -602.533630
1733469663.991323, -23.252935, 13.184719, -15.148563, 3.286833, -2.290579, 3.434129, -60.925797, -1.017990, -602.953857
1733469664.001335, -23.556700, 13.976152, -15.294160, 3.985084, -2.321678, 3.210170, -58.966354, 0.453751, -604.186890
1733469664.011337, -24.825327, 14.938621, -14.973636, 4.780855, -1.938721, 3.174563, -56.935211, 1.591446, -605.438293
1733469664.021317, -27.189452, 14.896423, -13.303232, 5.388979, -1.238585, 3.097245, -55.611816, 2.867126, -606.875793
1733469664.031311, -30.057855, 14.011018, -10.508600, 5.633181, -0.425547, 2.819654, -54.084473, 3.962967, -609.258911
1733469664.041318, -32.817621, 13.081768, -7.443872, 5.503053, 0.324719, 2.236132, -53.557846, 4.684341, -611.463074
1733469664.051333, -33.757046, 11.956942, -4.288763, 5.106005, 0.699514, 1.469363, -53.458252, 5.167480, -613.429138
1733469664.061325, -32.841563, 11.459846, -1.955015, 4.713546, 0.541874, 0.692611, -52.715332, 5.213104, -616.450989
1733469664.071335, -31.430032, 12.478878, -1.395670, 4.644452, 0.017396, 0.077264, -52.705582, 5.298355, -618.000366
1733469664.081325, -30.150182, 13.731794, -1.490241, 4.864264, -0.657146, -0.423181, -52.412720, 5.286514, -620.210083
1733469664.091327, -29.389274, 14.250737, -1.571494, 5.185963, -1.203372, -0.826764, -52.571823, 4.878525, -622.215454
1733469664.101327, -29.358000, 14.200609, -1.993472, 5.480790, -1.253615, -1.227319, -52.879654, 4.110718, -624.395508
1733469664.111329, -29.548638, 13.526342, -1.242291, 5.594840, -1.016600, -1.721603, -53.931686, 3.276443, -626.052979
1733469664.121331, -29.056780, 13.042114, 0.345364, 5.533317, -0.678481, -2.266308, -55.295044, 2.103043, -628.564880
1733469664.131316, -27.703756, 12.948890, 2.335544, 5.336483, -0.459483, -2.803793, -56.451996, 0.462296, -630.438660
1733469664.141313, -25.575610, 13.091944, 4.101267, 5.112864, -0.391863, -3.218315, -57.853409, -1.244263, -632.034912
1733469664.151314, -23.389704, 13.072491, 5.404611, 4.881300, -0.439895, -3.524066, -59.330719, -3.409805, -633.244812
1733469664.161311, -21.490055, 12.534544, 6.623559, 4.597749, -0.538909, -3.762250, -61.271255, -5.199783, -635.597961
1733469664.171310, -19.950733, 11.714380, 7.432799, 4.264554, -0.640261, -3.961226, -63.155945, -7.326691, -636.325928
1733469664.181318, -18.626290, 10.703129, 7.920917, 3.888199, -0.680819, -4.163369, -64.816467, -9.542953, -637.706970
1733469664.191326, -17.281048, 9.777770, 8.198195, 3.467232, -0.671110, -4.362025, -66.447952, -11.914108, -638.337585
1733469664.201306, -15.851710, 9.016414, 8.455123, 3.014947, -0.643547, -4.554561, -68.382278, -14.242767, -639.227295
1733469664.211016, -14.479383, 8.479364, 8.597279, 2.547034, -0.609924, -4.745496, -69.781631, -16.778503, -639.189575
1733469664.221367, -12.966697, 8.117092, 8.594735, 2.091119, -0.580782, -4.909497, -71.290237, -18.907318, -639.684448
1733469664.231311, -11.311406, 7.898771, 8.612991, 1.663945, -0.598967, -5.018865, -72.895859, -21.393433, -639.347534
1733469664.241313, -9.727791, 7.766042, 8.524555, 1.274007, -0.654969, -5.073377, -74.307022, -23.902649, -639.440430
1733469664.251372, -8.196849, 7.658303, 8.341249, 0.933167, -0.732549, -5.073135, -75.156021, -26.406738, -638.732544
1733469664.261310, -6.655282, 7.525125, 8.083723, 0.630405, -0.815006, -5.012175, -76.354294, -28.796432, -639.271240
1733469664.270837, -5.211130, 7.265654, 7.888595, 0.362400, -0.892325, -4.904346, -77.233093, -31.091125, -638.834534
1733469664.281320, -3.976320, 6.899191, 7.722348, 0.106626, -0.953578, -4.761098, -78.133591, -33.248383, -638.447876
1733469664.291307, -3.033005, 6.544251, 7.742399, -0.160480, -1.014546, -4.611152, -78.602341, -35.334824, -638.019653
1733469664.301302, -2.317288, 6.292112, 7.689428, -0.436265, -1.042732, -4.453963, -79.078003, -37.370911, -637.501587
1733469664.311381, -1.734599, 5.932682, 7.383868, -0.747909, -0.972979, -4.307889, -79.680206, -39.046356, -637.520203
1733469664.321321, -1.240795, 5.666028, 7.158364, -1.071076, -0.902687, -4.170171, -79.922409, -40.712158, -637.000488
1733469664.331315, -0.874482, 5.414188, 6.881983, -1.375132, -0.838894, -4.060134, -80.102264, -42.422867, -636.593872
1733469664.341307, -0.389806, 5.145439, 6.494422, -1.660317, -0.789118, -3.956564, -80.342285, -43.882858, -636.243469
1733469664.351306, 0.257227, 4.993407, 6.065860, -1.901393, -0.793374, -3.829112, -80.201370, -45.432480, -635.615112
1733469664.361299, 1.084873, 4.791995, 5.602582, -2.076150, -0.871139, -3.673082, -80.574203, -46.823135, -635.298279
1733469664.371369, 1.995866, 4.620061, 5.416283, -2.169131, -1.108635, -3.470861, -80.331055, -47.909195, -635.616638
1733469664.381305, 2.790442, 4.436605, 5.201553, -2.197977, -1.439109, -3.217189, -80.792740, -48.975739, -634.543213
1733469664.391312, 3.319860, 4.050091, 4.684256, -2.216796, -1.739337, -2.943976, -80.780014, -49.923050, -633.763855
1733469664.401306, 3.733907, 3.623774, 4.219032, -2.230625, -1.986533, -2.651733, -80.839722, -50.871353, -633.528076
1733469664.411302, 4.042161, 3.241899, 3.889530, -2.257504, -2.183131, -2.345914, -81.425949, -51.395401, -632.842834
1733469664.421304, 4.446631, 2.891298, 3.462165, -2.323122, -2.245766, -2.001409, -81.258926, -51.774643, -632.026184
1733469664.431369, 4.824167, 2.810344, 3.127426, -2.457462, -2.174093, -1.611874, -81.288193, -52.220779, -631.862488
1733469664.441311, 5.137657, 2.781165, 2.914791, -2.637126, -2.034233, -1.179342, -81.625702, -52.332779, -631.009766
1733469664.450339, 5.293730, 2.684499, 2.737770, -2.828005, -1.880469, -0.751571, -81.921753, -52.222092, -630.012085
1733469664.461314, 5.280112, 2.615815, 2.689736, -3.011355, -1.785817, -0.355957, -81.988785, -51.802536, -630.395447
1733469664.471315, 5.247342, 2.674174, 2.814534, -3.184372, -1.817096, 0.016108, -82.285065, -51.424057, -629.647705
1733469664.481309, 5.209484, 2.800019, 2.978387, -3.372097, -1.994064, 0.362150, -82.770660, -50.752060, -629.405273
1733469664.491300, 4.993407, 2.994398, 2.950854, -3.563657, -2.292198, 0.671903, -83.026840, -49.790359, -628.535400
1733469664.501304, 4.682310, 3.314772, 2.459294, -3.747581, -2.657618, 0.945888, -83.504990, -48.882553, -627.772034
1733469664.511312, 4.576367, 3.929932, 1.643171, -3.883032, -3.094607, 1.224328, -83.995209, -47.618484, -626.239502
1733469664.521309, 4.256591, 4.832098, 0.535553, -3.927633, -3.552873, 1.491132, -84.335861, -46.637558, -625.028503
1733469664.531302, 3.982605, 6.076633, -0.623989, -3.890653, -4.063130, 1.778083, -84.468964, -45.294357, -622.961609
1733469664.541302, 4.072537, 7.625233, -1.483358, -3.722663, -4.742870, 2.161437, -84.576202, -43.756393, -620.550415
1733469664.551297, 4.080468, 9.412654, -2.521992, -3.395916, -5.518855, 2.714252, -84.331955, -41.989426, -616.783020
1733469664.561299, 3.965546, 11.197232, -3.942352, -3.070688, -6.141142, 3.470280, -83.835052, -39.423630, -613.759399
1733469664.571315, 3.112462, 13.374908, -5.554548, -2.851485, -6.472797, 4.442849, -82.870560, -36.741196, -610.858948
1733469664.581298, 0.606332, 15.781530, -7.932140, -2.777759, -6.225178, 5.401421, -82.074875, -33.883362, -607.396606
1733469664.591314, -2.913893, 17.205182, -10.708067, -2.770812, -5.479214, 6.210675, -81.087296, -30.676758, -604.886353
1733469664.601367, -6.861932, 17.392379, -13.252355, -2.730960, -4.545086, 6.732321, -79.751373, -27.857910, -602.654419
1733469664.610382, -11.095628, 16.760609, -15.872061, -2.511958, -3.637301, 6.903711, -77.935852, -24.867020, -601.023987
1733469664.621316, -14.877419, 15.612140, -19.173515, -1.969452, -2.586333, 6.849119, -76.425934, -21.754272, -599.757263
1733469664.631324, -17.987637, 14.692018, -22.211907, -1.321152, -1.193430, 6.647755, -75.006531, -18.989182, -599.886292
1733469664.641304, -19.869779, 14.277223, -23.288250, -0.877207, 0.320425, 6.352925, -73.765106, -16.392578, -599.963013
1733469664.651309, -20.378846, 14.148535, -22.627450, -0.564261, 1.497422, 6.010272, -72.655182, -14.335907, -600.289673
1733469664.661308, -19.736152, 15.237448, -20.382737, -0.196308, 1.831074, 5.741964, -71.408432, -11.977921, -601.526245
1733469664.671302, -18.984672, 16.658257, -17.193061, 0.228434, 1.159942, 5.479047, -70.021255, -9.964920, -601.867798
1733469664.681305, -18.623896, 17.012449, -14.711172, 0.737220, -0.262438, 5.218355, -68.169296, -8.040405, -601.888306
1733469664.691371, -19.073557, 16.029928, -14.328249, 1.363551, -1.752176, 4.940549, -65.958527, -6.068207, -601.367920
1733469664.701304, -20.838533, 14.501979, -15.092000, 2.012249, -2.810425, 4.556048, -63.640045, -4.177963, -600.723633
1733469664.711317, -22.933310, 12.908338, -15.782577, 2.624196, -3.297484, 4.120074, -61.362564, -2.617706, -600.958862
1733469664.721294, -24.722377, 11.794436, -16.466122, 3.279866, -3.174337, 3.663486, -59.757950, -1.253067, -601.650696
1733469664.731305, -25.883714, 11.620108, -15.819987, 3.892424, -2.693270, 3.223098, -58.040726, 0.112122, -602.585510
1733469664.741295, -25.949854, 12.376526, -14.101997, 4.433582, -2.023475, 2.944958, -56.296158, 1.517715, -603.598267
1733469664.751296, -26.000431, 13.249362, -11.766154, 4.798614, -1.258380, 2.770667, -55.225693, 2.591278, -604.724915
1733469664.761301, -26.401460, 13.984682, -9.020454, 4.944846, -0.405879, 2.733684, -53.997528, 3.551483, -607.247925
1733469664.771307, -27.445631, 14.065037, -6.388777, 4.881828, 0.443015, 2.709865, -53.250320, 4.542236, -609.374268
1733469664.781300, -29.516616, 12.904747, -3.153612, 4.534866, 0.963627, 2.435167, -52.621964, 5.142044, -611.785400
1733469664.791293, -31.346983, 11.487529, -1.108366, 4.073785, 1.147418, 1.875950, -52.009552, 5.521881, -613.523743
1733469664.801297, -31.920843, 10.264242, -0.210241, 3.742700, 0.834001, 1.128331, -51.868423, 5.666061, -615.808777
1733469664.810662, -31.396663, 9.630227, 0.147692, 3.663624, 0.047935, 0.271158, -51.822891, 5.763229, -616.584473
1733469664.821310, -30.070125, 10.125677, -0.635361, 3.898290, -0.815004, -0.458384, -51.734756, 5.482986, -618.372620
1733469664.831304, -28.900109, 11.075876, -1.487248, 4.233264, -1.406891, -1.021756, -52.315414, 5.324600, -619.977051
1733469664.841297, -28.483967, 11.659164, -2.140865, 4.501297, -1.480140, -1.486076, -53.120972, 4.572723, -621.508118
1733469664.851309, -28.219856, 12.059294, -2.727295, 4.652514, -1.019706, -1.879588, -54.251007, 3.665741, -622.573608
1733469664.861294, -27.632529, 12.380866, -1.932420, 4.683709, -0.458571, -2.267809, -55.624725, 2.860092, -625.114502
1733469664.871289, -26.386197, 12.568511, -0.553509, 4.677603, -0.034315, -2.647587, -56.941757, 1.357605, -626.924072
1733469664.881367, -24.644565, 12.540828, 0.906056, 4.689247, 0.151128, -2.993948, -58.536179, -0.088943, -628.979675
1733469664.891355, -22.948872, 12.574646, 2.514211, 4.690736, 0.109075, -3.298239, -60.034698, -1.778564, -631.124756
1733469664.901451, -21.278467, 12.095357, 3.920954, 4.615124, -0.063191, -3.558824, -61.840988, -3.470215, -632.547485
1733469664.911330, -20.013880, 11.582250, 4.689942, 4.242432, -0.219090, -3.974759, -63.397461, -5.774033, -633.994507
1733469664.921291, -18.629433, 11.230003, 5.388899, 3.965437, -0.281552, -4.096022, -64.975922, -8.116409, -635.426514
1733469664.931298, -15.492131, 9.942521, 6.772897, 3.603008, -0.254459, -4.215779, -66.936188, -10.112930, -636.435486
1733469664.941283, -15.492131, 9.942521, 6.772897, 3.162226, -0.145891, -4.329205, -68.372757, -12.279556, -637.148865
1733469664.951286, -12.975974, 8.267178, 7.421576, 2.677858, -0.042290, -4.465604, -69.978043, -14.761368, -637.387817
1733469664.961119, -12.975974, 8.267178, 7.421576, 2.226760, -0.066062, -4.619046, -71.456558, -17.057678, -638.493103
1733469664.971290, -10.319308, 7.397485, 7.430405, 1.877783, -0.195291, -4.748242, -72.867676, -19.637772, -638.923828
1733469664.981301, -9.024794, 7.151780, 7.147141, 1.612598, -0.411029, -4.849308, -73.834335, -21.805130, -638.817139
1733469664.990720, -9.024794, 7.151780, 7.147141, 1.612598, -0.411029, -4.849308, -74.876663, -24.125046, -639.024841
1733469665.001288, -6.703016, 6.487538, 6.951565, 1.271041, -1.038997, -4.966046, -76.221634, -26.632095, -638.834229
1733469665.011288, -5.694160, 6.128857, 7.075464, 1.074658, -1.358240, -4.970495, -77.267776, -29.083969, -638.023254
1733469665.020648, -5.694160, 6.128857, 7.075464, 1.074658, -1.358240, -4.970495, -78.136017, -31.464676, -637.723999
1733469665.031281, -3.961656, 5.688174, 6.657227, 0.480503, -1.518867, -4.872769, -78.840683, -33.932114, -637.242676
1733469665.041280, -3.281852, 5.557541, 6.429180, 0.079316, -1.400239, -4.770454, -79.552765, -36.001831, -636.418884
1733469665.051285, -2.691532, 5.325153, 5.858013, -0.342734, -1.148805, -4.673786, -80.012360, -38.238678, -635.227112
1733469665.061279, -2.249652, 5.200206, 5.145588, -0.753397, -0.821540, -4.590627, -80.406937, -40.312759, -635.867554
1733469665.071289, -1.756297, 5.118953, 4.413561, -1.068240, -0.529995, -4.509469, -80.458923, -42.198349, -635.721741
1733469665.081283, -0.868048, 4.987421, 3.986944, -1.189091, -0.475251, -4.380597, -80.657730, -44.036209, -634.941589
1733469665.091284, 0.437241, 5.033659, 3.970035, -1.135132, -0.691414, -4.155877, -80.669388, -45.687729, -634.608948
1733469665.101290, 1.540519, 4.964527, 4.045303, -1.042192, -1.076701, -3.873261, -80.612534, -47.486359, -634.663635
1733469665.111289, 2.113781, 4.543147, 4.088698, -0.968817, -1.562626, -3.576470, -80.741501, -49.079269, -633.859741
1733469665.121282, 2.506879, 4.013729, 3.890428, -0.934029, -2.022452, -3.263809, -81.140442, -50.518906, -633.385742
1733469665.131294, 2.737021, 3.387197, 3.503615, -0.935227, -2.390294, -2.949493, -80.998459, -51.678894, -632.100769
1733469665.141286, 2.814234, 2.774580, 3.154510, -0.982113, -2.654698, -2.638945, -81.058334, -52.891876, -631.306580
1733469665.151279, 3.044227, 1.975516, 2.905513, -1.078701, -2.786913, -2.351447, -81.174210, -54.082092, -629.228821
1733469665.161280, 3.081487, 1.234061, 2.814384, -1.251208, -2.849359, -2.065958, -81.391190, -54.506180, -629.299500
1733469665.171294, 2.799420, 0.846949, 2.549825, -1.483352, -2.846254, -1.808849, -81.460754, -55.186417, -627.693909
1733469665.181302, 2.798522, 0.599299, 2.032976, -1.705067, -2.717261, -1.554481, -81.611023, -55.745682, -627.034851
1733469665.191283, 2.773832, 0.394445, 1.403601, -1.905528, -2.505418, -1.314487, -81.641068, -56.113953, -626.380249
1733469665.201284, 2.832041, 0.232088, 0.937330, -2.075869, -2.286420, -1.083578, -81.579651, -56.445221, -625.722351
1733469665.211278, 2.914791, 0.306159, 0.606631, -2.217693, -2.106265, -0.861348, -81.849014, -56.809387, -625.137390
1733469665.221282, 3.147627, 0.561889, 0.361524, -2.289107, -2.048308, -0.637158, -81.980270, -56.773392, -623.721924
1733469665.231283, 3.782090, 0.818218, 0.065990, -2.263367, -2.104978, -0.355690, -82.286957, -56.777893, -623.508545
1733469665.241281, 4.366575, 1.242291, -0.196325, -2.202728, -2.217045, -0.057369, -82.030121, -56.671219, -622.963257
1733469665.251278, 4.868759, 1.796848, -0.346411, -2.137386, -2.363971, 0.317258, -82.318207, -56.304932, -621.844299
1733469665.261292, 5.541529, 2.332401, -0.382324, -2.109954, -2.542131, 0.783168, -82.445816, -55.788589, -621.749268
1733469665.270804, 6.111349, 2.936339, -0.269198, -2.177270, -2.747643, 1.368407, -82.445816, -55.788589, -621.749268
1733469665.281294, 6.020968, 4.050840, -0.316484, -2.314780, -2.985023, 2.005792, -83.243546, -53.673508, -619.597656
1733469665.291283, 5.523723, 5.067178, -0.752378, -2.448532, -3.172374, 2.650971, -83.387131, -52.223007, -618.152954
1733469665.301274, 4.727950, 5.758504, -1.387290, -2.583396, -3.289932, 3.291147, -83.729462, -50.464005, -617.145752
1733469665.311281, 3.605668, 6.902633, -2.095226, -2.749274, -3.353294, 3.927268, -83.588135, -48.332214, -615.976074
1733469665.321272, 2.509423, 8.073996, -3.178901, -2.930123, -3.306505, 4.572101, -83.928055, -45.861450, -614.195435
1733469665.331292, 1.262792, 9.016264, -4.474913, -3.090834, -3.217707, 5.193564, -83.928055, -45.861450, -614.195435
1733469665.341276, -0.414047, 9.897031, -6.020819, -3.131686, -3.152849, 5.709999, -83.904388, -43.114105, -612.664673
1733469665.351274, -2.353500, 10.507104, -7.766341, -2.999435, -3.128793, 6.152345, -83.796463, -40.178085, -611.235779
1733469665.361272, -4.951808, 11.290157, -9.111284, -2.799319, -3.075521, 6.501215, -83.178345, -36.929108, -609.893616
1733469665.371281, -8.094347, 11.696423, -10.340856, -2.631457, -2.878265, 6.669767, -82.367935, -33.641296, -607.928772
1733469665.381271, -10.843040, 11.675474, -11.723358, -2.483696, -2.520268, 6.713074, -81.319061, -30.486282, -606.508484
1733469665.391282, -13.566893, 11.761516, -13.120824, -2.321901, -2.118970, 6.617349, -80.081100, -27.308426, -605.099915
1733469665.401291, -15.417611, 11.455656, -14.999374, -2.123204, -1.591605, 6.451056, -78.926178, -24.372650, -604.090942
1733469665.411279, -16.796372, 11.058967, -16.579248, -1.868647, -1.101389, 6.232556, -77.357162, -21.541748, -602.729919
1733469665.421275, -18.237682, 11.708993, -17.984046, -1.515056, -0.543149, 5.983021, -75.654022, -18.879913, -601.982117
1733469665.431271, -19.112014, 12.713660, -18.691981, -1.211913, 0.063051, 5.771525, -74.145889, -16.329559, -601.440308
1733469665.441286, -19.350237, 13.633482, -18.586187, -0.972013, 0.445387, 5.643263, -72.725082, -14.098724, -601.070312
1733469665.451328, -19.994726, 14.480730, -18.217630, -0.593000, 0.287948, 5.530632, -71.147415, -12.007202, -601.296631
1733469665.461277, -21.307647, 14.805444, -18.246660, -0.011132, -0.256655, 5.354886, -69.488342, -10.172226, -601.174255
1733469665.471270, -22.912360, 14.028226, -18.891299, 0.754586, -0.988201, 5.089376, -67.568008, -7.957260, -600.961304
1733469665.481267, -24.976461, 13.021315, -19.870976, 1.712622, -1.535806, 4.757369, -65.611557, -6.152359, -600.628540
1733469665.491327, -27.342082, 11.998841, -20.144364, 2.638673, -1.656482, 4.287292, -63.725250, -4.265808, -601.147339
1733469665.501280, -29.027899, 10.773758, -18.848353, 3.321564, -1.519261, 3.708735, -61.855652, -2.659439, -601.692200
1733469665.511279, -29.708451, 10.133758, -17.265187, 3.843104, -1.180617, 3.115772, -60.462280, -1.335800, -602.624756
1733469665.521277, -29.610588, 10.474932, -15.269769, 4.265274, -0.832646, 2.622440, -59.126755, 0.032394, -603.688599
1733469665.530368, -29.255049, 11.246014, -13.391668, 4.680897, -0.408951, 2.332457, -57.604614, 1.244965, -604.810791
1733469665.541273, -29.520357, 11.786056, -11.710938, 5.065426, 0.187897, 2.182755, -56.535507, 2.111725, -606.666992
1733469665.551262, -30.453796, 11.305271, -9.027337, 5.221927, 0.762633, 1.978042, -55.677139, 2.749634, -608.914246
1733469665.561269, -31.846623, 10.189273, -6.024410, 5.088608, 1.152469, 1.509026, -55.380463, 3.354477, -612.059265
1733469665.571271, -32.250794, 8.919000, -3.405303, 4.711110, 1.242640, 0.793756, -55.197617, 3.671997, -614.534790
1733469665.581274, -31.029302, 8.500912, -1.514931, 4.282495, 0.907475, 0.018132, -55.280853, 3.944031, -616.650391
1733469665.591265, -29.029545, 9.711032, -1.291373, 4.070586, 0.358052, -0.610609, -55.331879, 3.746429, -618.279175
1733469665.601275, -26.950181, 11.375301, -1.857152, 4.139738, -0.294719, -1.002738, -55.417068, 3.552429, -620.001343
1733469665.611272, -25.637261, 12.899659, -2.768894, 4.407743, -0.753659, -1.198435, -55.583145, 3.137390, -621.787476
1733469665.621277, -25.435400, 13.090746, -3.551349, 4.708720, -0.862049, -1.387241, -56.038635, 2.642349, -622.936157
1733469665.630319, -25.985019, 12.412739, -3.681684, 4.915912, -0.606198, -1.683441, -56.972855, 1.896820, -624.864929
1733469665.641277, -26.305842, 11.810746, -3.327192, 5.020900, -0.088359, -2.094020, -58.061966, 0.904907, -626.747864
1733469665.651275, -25.697266, 11.730840, -1.811214, 5.040397, 0.333320, -2.538352, -58.867355, -0.683868, -628.167542
1733469665.661276, -24.327633, 12.229133, 0.113725, 5.061444, 0.506296, -2.927115, -60.107773, -1.935287, -630.632263
1733469665.671270, -22.713941, 12.307244, 1.903690, 5.090651, 0.451322, -3.283834, -61.569412, -3.685928, -632.415405
1733469665.681276, -21.063737, 12.041937, 3.679738, 5.091006, 0.209426, -3.594141, -62.755829, -5.816177, -634.383240
1733469665.691267, -19.462316, 11.643601, 5.082740, 5.016770, -0.078938, -3.861856, -64.438766, -8.075119, -636.279480
1733469665.701282, -18.030284, 10.966042, 6.330269, 4.836091, -0.368845, -4.113594, -65.823914, -10.495270, -637.867981
1733469665.711318, -16.582540, 10.245088, 7.330447, 4.548528, -0.590208, -4.338963, -67.426514, -13.101349, -638.869629
1733469665.720707, -15.028553, 9.611672, 8.271069, 4.134099, -0.741159, -4.520972, -68.957230, -15.685776, -639.620483
1733469665.731257, -13.476363, 9.030031, 8.922142, 3.614973, -0.821559, -4.645217, -70.274719, -18.397308, -640.068420
1733469665.741264, -11.961731, 8.552837, 9.103952, 3.028472, -0.788301, -4.720299, -71.938339, -21.263245, -640.162720
1733469665.751306, -10.500220, 8.082376, 9.234286, 2.444299, -0.755051, -4.749765, -73.169159, -23.844910, -639.808044
1733469665.761256, -9.042900, 7.630021, 9.232341, 1.911434, -0.756160, -4.739534, -74.254791, -26.266617, -640.313477
1733469665.771267, -7.842806, 7.090129, 9.172037, 1.422960, -0.839769, -4.701253, -75.403061, -28.723129, -640.371094
1733469665.780684, -6.825121, 6.530933, 8.907927, 0.987051, -0.974813, -4.665516, -76.199905, -30.965546, -639.971008
1733469665.791303, -5.891382, 6.084415, 8.526949, 0.609992, -1.153208, -4.620029, -77.191086, -33.315582, -639.744019
1733469665.801257, -5.081094, 5.644480, 8.138041, 0.276394, -1.360875, -4.580534, -77.858582, -35.683228, -638.958496
1733469665.811255, -4.418350, 5.313332, 7.673267, -0.016661, -1.562747, -4.553210, -78.643753, -37.678909, -638.435730
1733469665.821270, -3.784934, 5.102044, 7.174674, -0.270776, -1.739106, -4.512470, -79.112381, -39.593475, -637.670410
1733469665.830426, -3.104082, 5.032013, 6.659173, -0.513131, -1.861536, -4.456165, -79.508606, -41.665939, -636.654541
1733469665.841252, -2.280178, 5.069872, 5.962759, -0.766083, -1.853808, -4.339473, -79.840698, -43.539642, -636.006287
1733469665.851255, -1.213262, 5.106084, 5.181651, -1.007002, -1.727108, -4.138675, -80.258881, -45.439362, -634.274902
1733469665.861254, -0.310199, 4.840627, 4.636372, -1.227582, -1.551604, -3.901655, -80.410217, -47.091064, -634.708008
1733469665.871256, 0.397886, 4.531326, 4.366874, -1.435897, -1.414515, -3.659380, -80.487762, -48.448074, -633.601135
1733469665.881269, 1.013495, 4.262128, 4.277092, -1.621685, -1.360478, -3.429448, -80.462219, -49.886200, -633.346375
1733469665.891265, 1.546056, 3.954024, 4.262577, -1.785276, -1.430997, -3.206239, -80.361267, -51.153015, -633.112366
1733469665.901266, 1.929876, 3.614796, 4.184765, -1.919282, -1.621526, -2.981142, -80.246918, -52.424057, -632.698608
1733469665.911271, 2.287061, 3.265841, 3.903297, -2.014095, -1.858386, -2.757639, -80.478104, -53.258606, -632.178223
1733469665.921251, 2.603096, 2.857480, 3.453037, -2.073213, -2.095310, -2.527233, -80.632263, -54.224716, -631.520081
1733469665.931271, 2.957887, 2.448969, 2.919430, -2.100814, -2.316119, -2.264952, -80.576508, -55.074722, -630.883301
1733469665.941257, 3.286341, 2.001553, 2.364573, -2.108479, -2.477806, -1.984311, -80.677261, -55.738205, -630.016235
1733469665.951271, 3.547010, 1.640178, 1.885135, -2.105759, -2.578877, -1.693735, -80.703735, -56.124954, -628.815918
1733469665.961249, 3.813365, 1.445350, 1.578527, -2.109153, -2.629685, -1.397179, -81.145844, -56.329147, -628.591248
1733469665.971256, 4.193444, 1.412130, 1.418564, -2.132066, -2.659194, -1.078596, -81.242569, -56.577072, -627.769409
1733469665.981262, 4.595670, 1.450437, 1.395820, -2.190482, -2.672272, -0.731922, -81.362183, -56.906433, -627.081116
1733469665.991253, 5.068824, 1.727267, 1.395520, -2.304026, -2.656267, -0.339382, -81.365143, -56.823166, -626.167236
1733469666.001262, 5.419425, 2.090886, 1.289427, -2.479677, -2.608658, 0.070906, -81.847778, -56.428101, -625.262756
1733469666.011256, 5.673061, 2.532916, 1.005116, -2.698106, -2.541308, 0.500519, -82.046249, -55.993652, -624.408142
1733469666.021253, 5.851578, 2.875586, 0.698209, -2.902396, -2.538791, 0.931348, -82.480911, -55.322052, -623.899048
1733469666.031246, 5.894973, 3.400963, 0.202460, -3.065049, -2.593995, 1.347926, -82.886520, -54.466232, -623.107056
1733469666.041251, 5.850681, 4.001908, -0.411054, -3.142584, -2.791153, 1.779265, -83.226303, -53.362274, -622.461853
1733469666.051259, 5.737555, 4.711939, -1.331026, -3.090645, -3.033742, 2.235475, -83.693634, -51.997025, -620.692078
1733469666.061260, 5.647473, 5.614852, -2.307711, -2.963104, -3.285969, 2.747998, -83.754227, -50.327484, -620.328003
1733469666.071259, 5.463867, 6.546645, -2.966117, -2.829215, -3.541579, 3.297406, -84.091446, -48.542542, -618.662292
1733469666.081250, 5.223549, 7.441777, -3.473987, -2.727250, -3.797238, 3.889851, -84.179840, -46.297470, -616.780640
1733469666.091259, 4.748899, 8.508245, -3.812168, -2.693155, -4.058751, 4.553631, -84.567322, -43.973679, -614.724915
1733469666.101257, 3.443012, 10.299257, -4.460248, -2.719043, -4.248965, 5.242289, -84.357147, -41.251160, -612.676392
1733469666.111256, 1.573739, 11.941829, -5.634454, -2.777889, -4.286038, 5.919524, -83.523956, -37.771774, -610.349365
1733469666.121256, -1.034445, 13.253103, -7.159860, -2.811181, -4.191817, 6.512573, -83.110443, -34.818771, -608.543457
1733469666.131263, -4.472967, 14.205547, -8.864831, -2.773746, -4.006360, 6.915966, -82.205917, -31.668076, -606.798401
1733469666.141249, -8.458565, 14.665533, -10.713604, -2.630784, -3.786058, 7.060180, -80.413010, -28.136292, -604.292603
1733469666.151254, -12.424261, 14.802002, -13.123667, -2.353350, -3.408406, 6.997834, -78.717804, -24.818817, -602.075195
1733469666.161253, -15.806819, 14.694413, -15.999253, -1.973707, -2.673746, 6.824922, -77.043961, -21.928131, -601.025696
1733469666.171238, -18.382680, 13.644555, -18.495208, -1.612978, -1.545327, 6.537247, -75.498413, -19.126495, -600.248291
1733469666.181296, -19.373132, 12.527211, -19.959711, -1.300284, -0.306305, 6.185206, -73.752716, -16.707092, -600.148010
1733469666.191245, -19.290831, 12.611757, -20.643705, -0.939772, 0.792983, 5.915776, -72.484436, -14.271484, -600.158325
1733469666.201265, -18.621951, 14.553753, -19.782390, -0.577874, 1.389714, 5.808450, -71.044250, -12.226288, -600.274048
1733469666.211259, -18.121114, 16.495002, -17.536929, -0.235553, 1.174070, 5.750607, -69.604309, -10.034958, -600.681396
1733469666.221312, -18.415152, 17.480964, -16.165500, 0.206380, 0.354660, 5.656143, -67.616974, -7.927902, -600.530396
1733469666.231243, -19.739594, 17.605163, -16.173880, 0.825370, -0.685262, 5.492533, -65.782440, -5.869568, -600.971558
1733469666.241242, -21.995082, 16.780211, -16.649428, 1.571261, -1.638229, 5.173994, -63.313126, -4.028564, -600.442627
1733469666.251257, -24.500763, 15.666010, -17.242741, 2.381561, -2.245905, 4.730763, -61.200653, -2.042480, -599.827759
1733469666.261254, -26.911126, 14.731822, -17.619379, 3.182499, -2.374423, 4.209351, -59.207016, -0.589737, -601.478943
1733469666.271241, -28.783242, 13.890111, -16.972795, 3.844342, -2.125094, 3.616774, -57.408478, 0.888275, -602.132385
1733469666.281241, -29.233502, 13.078476, -15.462802, 4.318761, -1.642775, 3.076202, -56.230255, 2.138367, -603.721558
1733469666.291249, -28.892627, 12.805687, -13.200580, 4.584106, -1.106200, 2.588440, -54.756927, 3.308182, -605.384644
1733469666.301243, -28.072763, 13.093290, -10.672603, 4.686681, -0.644315, 2.260186, -53.653046, 4.166580, -606.979858
1733469666.311241, -27.716625, 13.705458, -8.897302, 4.781462, -0.202772, 2.049217, -52.986465, 4.928802, -609.373779
1733469666.321253, -28.216415, 14.308946, -6.794744, 4.870690, 0.022278, 1.860150, -51.931946, 5.529449, -611.419556
1733469666.331250, -29.420249, 14.748582, -5.184344, 5.003675, 0.165369, 1.646774, -51.368530, 6.004059, -613.748474
1733469666.341247, -31.031547, 14.064438, -4.140173, 5.125145, 0.336794, 1.262015, -50.774628, 6.358185, -616.196289
1733469666.351251, -32.172234, 12.751967, -2.652177, 5.108796, 0.460810, 0.677070, -50.682556, 6.430695, -617.896545
1733469666.361248, -32.357336, 12.099547, -1.357213, 4.991825, 0.509122, -0.023758, -50.687347, 6.186081, -620.750610
1733469666.371246, -31.465197, 12.189629, -0.251242, 4.852565, 0.402264, -0.734503, -50.742798, 5.620361, -622.798462
1733469666.381248, -29.893254, 13.203124, 0.427964, 4.816068, 0.157912, -1.304433, -51.347733, 5.013733, -624.797119
1733469666.391246, -28.467207, 14.080599, 0.756119, 4.906891, -0.115884, -1.762251, -51.928024, 4.017349, -627.015442
1733469666.401249, -27.295844, 14.231883, 0.958878, 5.044797, -0.245248, -2.147663, -53.215469, 3.020599, -629.157471
1733469666.411243, -26.659735, 14.229788, 1.412280, 5.141347, -0.206779, -2.510981, -54.525009, 1.684189, -631.261597
1733469666.421247, -26.229676, 13.893702, 2.134730, 5.143878, -0.016511, -2.922834, -55.844925, -0.002075, -633.166931
1733469666.431236, -25.311500, 13.188609, 3.294421, 5.025398, 0.189392, -3.388006, -57.757919, -1.991333, -635.065613
1733469666.441244, -23.732075, 12.736255, 4.686500, 4.803649, 0.292398, -3.844862, -59.416962, -4.033218, -636.605469
1733469666.451243, -21.706730, 12.420969, 5.892430, 4.524414, 0.246989, -4.254276, -60.836288, -6.476486, -637.873474
1733469666.461303, -19.472940, 12.186038, 6.464793, 4.255969, 0.138989, -4.572090, -63.051437, -8.830963, -639.780762
1733469666.471229, -17.189320, 12.015750, 6.913407, 3.962257, 0.002517, -4.784562, -64.430130, -11.612732, -640.842773
1733469666.481232, -14.979472, 11.650185, 7.282713, 3.595314, -0.131897, -4.892939, -66.336670, -13.966293, -641.635254
1733469666.491233, -12.919711, 10.899304, 7.239018, 3.199717, -0.204976, -4.911957, -67.924561, -16.385345, -642.081787
1733469666.501242, -11.284321, 10.178799, 7.027431, 2.792603, -0.228543, -4.876379, -69.385681, -18.989151, -642.729126
1733469666.511244, -9.959280, 9.531018, 6.750152, 2.397918, -0.217753, -4.808808, -70.491074, -21.588593, -642.623474
1733469666.521231, -8.861389, 8.809615, 6.602011, 2.052976, -0.260274, -4.739591, -71.391144, -24.100616, -643.217285
1733469666.531235, -7.837569, 8.042872, 6.565350, 1.749165, -0.364216, -4.678783, -72.873138, -26.291962, -643.146057
1733469666.541283, -7.090279, 7.216722, 6.583905, 1.463217, -0.539528, -4.643013, -73.744263, -28.612717, -643.182739
1733469666.551236, -6.584055, 6.397756, 6.525397, 1.198870, -0.744483, -4.645765, -74.647141, -30.909973, -642.534973
1733469666.561230, -6.128109, 5.784690, 6.394763, 0.948694, -0.931811, -4.673672, -75.684677, -33.191010, -642.364624
1733469666.571247, -5.738303, 5.246743, 6.472275, 0.675038, -1.148660, -4.749371, -76.041916, -35.623657, -642.511414
1733469666.581294, -5.190180, 4.834043, 6.452673, 0.408626, -1.388515, -4.836402, -76.898315, -37.529556, -641.492188
1733469666.591233, -4.401889, 4.794538, 6.195446, 0.153426, -1.594126, -4.885302, -77.646820, -39.801147, -640.856934
1733469666.601231, -3.371485, 4.997896, 5.880010, -0.107702, -1.741699, -4.877837, -77.738495, -42.129623, -640.346558
1733469666.611233, -2.230199, 5.219659, 5.547665, -0.379006, -1.825160, -4.794912, -78.180649, -43.958542, -639.247559
1733469666.621237, -1.120187, 5.362563, 5.241356, -0.662913, -1.876507, -4.640284, -78.532120, -46.016617, -638.909668
1733469666.631238, 0.009726, 5.458630, 4.892401, -0.951708, -1.864908, -4.425844, -78.953384, -47.390091, -637.870361
1733469666.641237, 1.005565, 5.445612, 4.779724, -1.240629, -1.894634, -4.163263, -79.255264, -49.193604, -637.493896
1733469666.651235, 1.790115, 5.171775, 4.637419, -1.506843, -2.001122, -3.870798, -79.081619, -50.702209, -636.017456
1733469666.661229, 2.466028, 4.746505, 4.112790, -1.706236, -2.113894, -3.560477, -79.579697, -51.640915, -635.782959
1733469666.671227, 3.021632, 4.199729, 3.429395, -1.829330, -2.209358, -3.237038, -79.655609, -52.634521, -635.255249
1733469666.681231, 3.457676, 3.646070, 2.706046, -1.893467, -2.208496, -2.906125, -79.971268, -53.646332, -633.780823
1733469666.691226, 3.873669, 3.207183, 2.180220, -1.936660, -2.140814, -2.570940, -79.970108, -54.401962, -633.426147
1733469666.701238, 4.263026, 2.869750, 2.045995, -1.979505, -2.061893, -2.237684, -80.117783, -54.911316, -632.997803
1733469666.711229, 4.634426, 2.463634, 2.142362, -2.042297, -1.995766, -1.907661, -80.035553, -55.314392, -632.688477
1733469666.720416, 5.023185, 2.175431, 2.349460, -2.147704, -1.943846, -1.572773, -80.035553, -55.314392, -632.688477
1733469666.731224, 5.447108, 2.016965, 2.635866, -2.303966, -1.944683, -1.210919, -80.552963, -55.751221, -631.918091
1733469666.741236, 5.680992, 1.913266, 2.975544, -2.500072, -1.995948, -0.833214, -80.575134, -55.713776, -631.389343
1733469666.751227, 5.723189, 1.926435, 3.209577, -2.733163, -2.084138, -0.467263, -80.791489, -55.227524, -630.476990
1733469666.761226, 5.702091, 2.067692, 3.370587, -3.005070, -2.236157, -0.100564, -81.485596, -54.518921, -630.408813
1733469666.770794, 5.554249, 2.393753, 3.410690, -3.284236, -2.458696, 0.253703, -81.485596, -54.518921, -630.408813
1733469666.781236, 5.194969, 2.854936, 3.123685, -3.534077, -2.735297, 0.577783, -82.308105, -53.035965, -629.014771
1733469666.791221, 4.773290, 3.441216, 2.407968, -3.713832, -3.048843, 0.872027, -82.701706, -51.774994, -627.866150
1733469666.801230, 4.452168, 4.375104, 1.477073, -3.784874, -3.441457, 1.192002, -83.170303, -50.452621, -626.249573
1733469666.811216, 4.443788, 5.217115, 0.388459, -3.742635, -3.895916, 1.565165, -84.006561, -49.320587, -624.340210
1733469666.821234, 4.567089, 5.689970, -0.730980, -3.610141, -4.380278, 2.006730, -84.006561, -49.320587, -624.340210
1733469666.831236, 4.256442, 6.418256, -1.753304, -3.415628, -4.873129, 2.485053, -84.315994, -47.705704, -622.642578
1733469666.841230, 3.637391, 7.641544, -2.590676, -3.195287, -5.383352, 2.998261, -84.526749, -46.140381, -619.769104
1733469666.851226, 2.820370, 9.115624, -3.347842, -2.938600, -5.911843, 3.570070, -84.315536, -44.020157, -617.058716
1733469666.861276, 1.719486, 10.981156, -4.542848, -2.645021, -6.267678, 4.265284, -83.782608, -41.676819, -613.809448
1733469666.871226, -0.148441, 13.142072, -6.267870, -2.445048, -6.175303, 5.059425, -83.138779, -38.894135, -610.876465
1733469666.881220, -2.643648, 14.542231, -7.839065, -2.406667, -5.653650, 5.829968, -82.222870, -35.994125, -607.834656
1733469666.891219, -5.653758, 14.822054, -9.626337, -2.459182, -4.781723, 6.417931, -81.917831, -32.962921, -605.518677
1733469666.901285, -8.928577, 14.557195, -11.790994, -2.478833, -3.686492, 6.737987, -80.742020, -29.912247, -603.757568
1733469666.911232, -11.648839, 14.377630, -13.735086, -2.387309, -2.574381, 6.864213, -79.320816, -26.761902, -602.066040
1733469666.921224, -13.765313, 14.159758, -15.200637, -2.193721, -1.645099, 6.860369, -77.847824, -23.909241, -601.210571
1733469666.931184, -15.856349, 14.312687, -16.216377, -1.929067, -0.936952, 6.745845, -76.310074, -20.880066, -600.417664
1733469666.941222, -17.681179, 14.500482, -17.060183, -1.692175, -0.376978, 6.551628, -74.694275, -18.124344, -599.711426
1733469666.951237, -19.225589, 14.707730, -17.889325, -1.466919, 0.061656, 6.294408, -73.155762, -15.884598, -599.325256
1733469666.961222, -20.406230, 15.137041, -18.418743, -1.108178, 0.216160, 5.935787, -71.626923, -13.636887, -599.486084
1733469666.971230, -20.836737, 15.140183, -18.656966, -0.467607, -0.021961, 5.539042, -70.286057, -11.531479, -599.740051
1733469666.981228, -20.656274, 15.600169, -18.369063, 0.445151, -0.577830, 5.248142, -68.208450, -9.565628, -599.173706
1733469666.991221, -20.785561, 16.115671, -17.137695, 1.421694, -1.254688, 5.037965, -66.465118, -7.491730, -599.048828
1733469667.001230, -21.347151, 15.587001, -15.667656, 2.220896, -1.754358, 4.852327, -64.484421, -5.681000, -599.213501
1733469667.011217, -22.375610, 14.150181, -14.432248, 2.764704, -1.896422, 4.612606, -62.437851, -3.705185, -599.723022
1733469667.021223, -24.202236, 12.741792, -12.873622, 2.972005, -1.803837, 4.172930, -61.110458, -2.133942, -599.936401
1733469667.031217, -25.213936, 11.559206, -11.322030, 2.900151, -1.669025, 3.560187, -59.413071, -0.769394, -600.620483
1733469667.041235, -24.816349, 11.091588, -10.518326, 2.828685, -1.638269, 2.982752, -57.825958, 0.323898, -600.933167
1733469667.051227, -24.025215, 12.080543, -10.296414, 2.973129, -1.747312, 2.555329, -56.531372, 1.387390, -601.472900
1733469667.061221, -23.626880, 13.052439, -10.659435, 3.413996, -1.884741, 2.293281, -54.828506, 2.327103, -602.628235
1733469667.071219, -24.202386, 13.798832, -11.091738, 4.115475, -1.836536, 2.199765, -53.380325, 3.463852, -604.092285
1733469667.081233, -25.995344, 14.154670, -11.079916, 4.886036, -1.391989, 2.169379, -52.393570, 4.592133, -605.782959
1733469667.091232, -28.398673, 13.584850, -9.995792, 5.421463, -0.524660, 2.019446, -51.707764, 5.517639, -608.040222
1733469667.101218, -30.860362, 12.600833, -7.442525, 5.488821, 0.413670, 1.583989, -51.442520, 6.103622, -610.711121
1733469667.111225, -32.027535, 11.694777, -4.593725, 5.196339, 1.091910, 0.907243, -51.435562, 6.421844, -613.102295
1733469667.121222, -30.992043, 11.218032, -2.071583, 4.841246, 1.176676, 0.184073, -51.348175, 6.515137, -615.474365
1733469667.131220, -28.905945, 11.790246, -0.578798, 4.677633, 0.706105, -0.448368, -51.394852, 6.245895, -617.963318
1733469667.141223, -26.915166, 12.975974, 0.170587, 4.783145, -0.153861, -0.903153, -51.286118, 5.907379, -619.335388
1733469667.151226, -25.616461, 14.102297, 0.105943, 5.049329, -0.947460, -1.196629, -51.487869, 5.493118, -621.082947
1733469667.161218, -25.173833, 14.137013, -0.569820, 5.277604, -1.303889, -1.431277, -52.206711, 4.917343, -623.852173
1733469667.171218, -25.535507, 13.614628, -0.826149, 5.355420, -1.207271, -1.702499, -53.099579, 4.252884, -625.574524
1733469667.181211, -26.212917, 13.448081, -0.536152, 5.296848, -0.817372, -2.052900, -54.103760, 3.075989, -627.385254
1733469667.191222, -26.435278, 12.893524, 0.196325, 5.145902, -0.350804, -2.525125, -55.584793, 1.546539, -629.892944
1733469667.201215, -25.714624, 12.266692, 1.402254, 4.944027, -0.031595, -3.059086, -57.195770, -0.053299, -631.196045
1733469667.211220, -24.108264, 12.398523, 2.628534, 4.736255, 0.054201, -3.579329, -58.723770, -1.765686, -633.088501
1733469667.221216, -21.957223, 12.675203, 3.624073, 4.556211, -0.080735, -4.014688, -60.587967, -3.768326, -634.716797
1733469667.231222, -19.741988, 12.889634, 4.233547, 4.390927, -0.307770, -4.319882, -62.385086, -6.077820, -635.992554
1733469667.241220, -17.761235, 12.909535, 4.564994, 4.223648, -0.501887, -4.511438, -64.126328, -8.498169, -637.126953
1733469667.251211, -16.051925, 12.446257, 4.837933, 4.027258, -0.603923, -4.615938, -66.104416, -11.121765, -637.579773
1733469667.261263, -14.630966, 11.691635, 5.021090, 3.760803, -0.565990, -4.679281, -67.604233, -13.473495, -638.936584
1733469667.270727, -13.384635, 10.902297, 5.289839, 3.407599, -0.414489, -4.732213, -69.239639, -16.110870, -639.274902
1733469667.281205, -12.156858, 10.199299, 5.596746, 2.973926, -0.191424, -4.774799, -70.790665, -18.596176, -640.113647
1733469667.291263, -10.900651, 9.533262, 5.885995, 2.496869, 0.017097, -4.810272, -71.648880, -21.335007, -640.672607
1733469667.301209, -9.752332, 9.010578, 6.087856, 2.038117, 0.149628, -4.845940, -73.213470, -23.732269, -641.406128
1733469667.311217, -8.679879, 8.471883, 6.099678, 1.652562, 0.163572, -4.889562, -73.726517, -26.045212, -641.796448
1733469667.321209, -7.608773, 7.895479, 6.083666, 1.380048, 0.048045, -4.921335, -74.685806, -28.522766, -641.659119
1733469667.331233, -6.452523, 7.505074, 6.071845, 1.174490, -0.153690, -4.922605, -75.305832, -30.815491, -641.499695
1733469667.341222, -5.378873, 7.167192, 6.286276, 0.993966, -0.459115, -4.890372, -76.341278, -33.330627, -641.622498
1733469667.351211, -4.529081, 6.807613, 6.432023, 0.811921, -0.802944, -4.836664, -76.940613, -35.910019, -640.703613
1733469667.361264, -3.770269, 6.409577, 6.315605, 0.619782, -1.099331, -4.785843, -77.390121, -37.918381, -641.384644
1733469667.371227, -3.006070, 6.028450, 6.180632, 0.213373, -1.510500, -4.639158, -77.932297, -40.000870, -640.442139
1733469667.381226, -1.597830, 5.384111, 5.932832, -0.051941, -1.563879, -4.541389, -78.417587, -42.129684, -639.870789
1733469667.391206, -0.745943, 5.424662, 5.922058, -0.383028, -1.536932, -4.386328, -78.702133, -44.081100, -638.751221
1733469667.401217, 0.147543, 5.383512, 5.616199, -0.750100, -1.394828, -4.175632, -78.941208, -46.178864, -638.305176
1733469667.411211, 1.041328, 5.277269, 5.455937, -1.134287, -1.217998, -3.923996, -79.118271, -47.636581, -637.708862
1733469667.421210, 1.816002, 5.000889, 5.331139, -1.492978, -1.086848, -3.649842, -79.162003, -49.085464, -637.295715
1733469667.431210, 2.447772, 4.672135, 5.115661, -1.783642, -1.033171, -3.365113, -79.023285, -50.478088, -637.307800
1733469667.441203, 2.793884, 4.235492, 4.870105, -1.997668, -1.104785, -3.096076, -78.950897, -51.477524, -636.661987
1733469667.451209, 2.957288, 3.679738, 4.527884, -2.144134, -1.261356, -2.862107, -78.934555, -52.472580, -635.909912
1733469667.461204, 3.012205, 3.098097, 4.221426, -2.218088, -1.512474, -2.654223, -79.155991, -53.267365, -636.307190
1733469667.471205, 3.042881, 2.509423, 3.743634, -2.246892, -1.767232, -2.462435, -78.984344, -53.970657, -636.196045
1733469667.481202, 3.179051, 1.988534, 3.148375, -2.254521, -1.953406, -2.264012, -79.192932, -54.512268, -635.778198
1733469667.491203, 3.374927, 1.448193, 2.809296, -2.260194, -2.094157, -2.059494, -79.185532, -55.053528, -635.046204
1733469667.501202, 3.708918, 1.096245, 2.650980, -2.281007, -2.185406, -1.836588, -79.534348, -55.514771, -634.523438
1733469667.511206, 4.091242, 0.992995, 2.639458, -2.344740, -2.258480, -1.587950, -79.590729, -55.717773, -633.779480
1733469667.521209, 4.408025, 1.177349, 2.841169, -2.451606, -2.359080, -1.313533, -79.995804, -56.120178, -633.732544
1733469667.531213, 4.632182, 1.401655, 3.060089, -2.610726, -2.480850, -1.018469, -80.102127, -56.198700, -632.933716
1733469667.541200, 4.692785, 1.596334, 3.212719, -2.833797, -2.612318, -0.721536, -80.316696, -56.158813, -632.136108
1733469667.551198, 4.779575, 1.931073, 3.184737, -3.108994, -2.722457, -0.418567, -80.465607, -55.859467, -630.995789
1733469667.561194, 5.007622, 2.366818, 3.027318, -3.430509, -2.845281, -0.070676, -80.833542, -55.215408, -630.853577
1733469667.571207, 5.127482, 2.720711, 2.648436, -3.755045, -3.000482, 0.289956, -81.253387, -54.864487, -630.189331
1733469667.581205, 4.980089, 3.424457, 1.991677, -4.010422, -3.206352, 0.641593, -81.934845, -53.994034, -629.461548
1733469667.591208, 4.774337, 4.521450, 1.111508, -4.156050, -3.495960, 0.988946, -82.284012, -53.032501, -628.237183
1733469667.601197, 4.616021, 5.543774, 0.321422, -4.161398, -3.964076, 1.361391, -82.763702, -51.823807, -627.133301
1733469667.611202, 4.477157, 6.614581, -0.473753, -4.037959, -4.562857, 1.809016, -83.342773, -50.517365, -625.310242
1733469667.621196, 4.156933, 7.974637, -1.550694, -3.818815, -5.170733, 2.368441, -83.626007, -49.121872, -623.249512
1733469667.631196, 3.690662, 9.582044, -2.860921, -3.601185, -5.629984, 3.083560, -83.562225, -47.269714, -620.818359
1733469667.641263, 2.915389, 11.469273, -4.418499, -3.431153, -5.828990, 3.960112, -83.686523, -44.887238, -617.746643
1733469667.651221, 1.264288, 13.314305, -6.295254, -3.337361, -5.603911, 4.883212, -83.320496, -42.373734, -614.182495
1733469667.661213, -1.071705, 14.847043, -7.802703, -3.325236, -5.114825, 5.725821, -83.221527, -39.593826, -612.016724
1733469667.671203, -4.201974, 16.038158, -8.908824, -3.323536, -4.653214, 6.367016, -82.597000, -36.398727, -609.999390
1733469667.681194, -7.748684, 16.382474, -10.808025, -3.134993, -4.247851, 6.763287, -82.022476, -33.166504, -607.648438
1733469667.691201, -11.108796, 16.098163, -13.367576, -2.675601, -3.782924, 6.956918, -80.498825, -29.911530, -605.989258
1733469667.701212, -14.041095, 15.634586, -16.285060, -2.079928, -2.935716, 7.056411, -78.708847, -26.372009, -603.609985
1733469667.711202, -16.482732, 15.025860, -18.331205, -1.684570, -1.632371, 7.069503, -77.312592, -23.008148, -602.810547
1733469667.721212, -18.272098, 14.662690, -18.808100, -1.669904, -0.156745, 6.922579, -76.219543, -20.022873, -602.475464
1733469667.731194, -19.583223, 14.737658, -18.130990, -1.768764, 0.856212, 6.593673, -75.081451, -17.548798, -602.754822
1733469667.741200, -20.132243, 15.500361, -16.924462, -1.591146, 0.863324, 6.141027, -73.899704, -15.228897, -602.659180
1733469667.751193, -20.017172, 15.860539, -16.276381, -1.057902, 0.029636, 5.637331, -72.718018, -13.186722, -601.438232
1733469667.761198, -19.726725, 16.403723, -15.853356, -0.329707, -1.230873, 5.194447, -70.657013, -10.999634, -601.719116
1733469667.771197, -19.579482, 16.800263, -16.689680, 0.471280, -2.237424, 4.929220, -68.213272, -9.000763, -600.623291
1733469667.781202, -20.247913, 16.401478, -18.289007, 1.311207, -2.628093, 4.808332, -66.094223, -7.113220, -599.928101
1733469667.791203, -22.222232, 15.890466, -18.871546, 2.016559, -2.447519, 4.655792, -63.986481, -5.137619, -599.768555
1733469667.801207, -24.441956, 14.680347, -18.659809, 2.477252, -1.841666, 4.373376, -62.226456, -3.362625, -599.770325
1733469667.811191, -25.860221, 13.132795, -18.121862, 2.718795, -1.033952, 3.921448, -60.828644, -1.908310, -600.929077
1733469667.821200, -25.815779, 12.661586, -17.175554, 2.937874, -0.384188, 3.435925, -59.380600, -0.804916, -601.677307
1733469667.831195, -24.561067, 13.535918, -15.501857, 3.328558, -0.229685, 3.131031, -58.215912, 0.589615, -602.795898
1733469667.841204, -24.028806, 14.697705, -13.719524, 3.947628, -0.460246, 2.969726, -56.855728, 1.677185, -604.122498
1733469667.851204, -24.636335, 15.138088, -12.377574, 4.703183, -0.712725, 2.936114, -55.125275, 2.934723, -605.416016
1733469667.861197, -26.372281, 14.565874, -10.809521, 5.300396, -0.744494, 2.785691, -53.889038, 4.150513, -607.865784
1733469667.871189, -28.818257, 13.448081, -8.701576, 5.542909, -0.613907, 2.334161, -53.090378, 4.918594, -610.391357
1733469667.881188, -30.492702, 12.146384, -6.865972, 5.472390, -0.379688, 1.606807, -52.519272, 5.479385, -612.738281
1733469667.891192, -30.230238, 11.151144, -5.311237, 5.250207, -0.293722, 0.767275, -52.126404, 5.679321, -614.836243
1733469667.901202, -28.356176, 11.589582, -4.122965, 5.138666, -0.511037, 0.113145, -51.692383, 5.926041, -617.332642
1733469667.911204, -26.417172, 13.360094, -4.118027, 5.323873, -0.792401, -0.229051, -51.706253, 5.884964, -619.239441
1733469667.921193, -25.556756, 14.435689, -3.736301, 5.671618, -1.057119, -0.425761, -51.795456, 5.280090, -621.847534
1733469667.931192, -25.512613, 14.136713, -3.038691, 5.941041, -1.089632, -0.624102, -52.125031, 5.013519, -623.591187
1733469667.941244, -26.336667, 13.551331, -2.161066, 5.998254, -0.853582, -0.956237, -52.597610, 4.213470, -626.112366
1733469667.951186, -26.954072, 12.990489, -0.932392, 5.834934, -0.483484, -1.416380, -53.119507, 2.984726, -628.099121
1733469667.961179, -26.894217, 12.712762, 0.091129, 5.549842, -0.056226, -1.923808, -54.368042, 1.791092, -630.598877
1733469667.971194, -26.239253, 12.515390, 1.371578, 5.240360, 0.270076, -2.458761, -55.618530, 0.372879, -632.412231
1733469667.981229, -24.807820, 12.599187, 2.917933, 4.933477, 0.285839, -2.936356, -56.803040, -1.371109, -634.299805
1733469667.991199, -23.150284, 12.766482, 3.655347, 4.696270, 0.126714, -3.329403, -58.437546, -3.266556, -636.122009
1733469668.001191, -21.605725, 12.331186, 3.807230, 4.532356, -0.039395, -3.672940, -59.865845, -5.218842, -637.856750
1733469668.011179, -19.981109, 11.482890, 4.071789, 4.376955, -0.185439, -3.982527, -61.785629, -7.539246, -639.246460
1733469668.020744, -18.395848, 10.708815, 4.495563, 4.195411, -0.325291, -4.278991, -63.601425, -10.047272, -640.513306
1733469668.031188, -16.769138, 10.049213, 4.895993, 3.969455, -0.416774, -4.552788, -65.197113, -12.631699, -641.753540
1733469668.041186, -14.998327, 9.590424, 5.187337, 3.686620, -0.462771, -4.766901, -66.933395, -15.231018, -642.436646
1733469668.051182, -13.100772, 9.225906, 5.322759, 3.351542, -0.431612, -4.897137, -68.406708, -17.709915, -642.444153
1733469668.061239, -11.303475, 8.957157, 5.596895, 2.978264, -0.404650, -4.946201, -69.848129, -20.591843, -643.414551
1733469668.071190, -9.702652, 8.731504, 5.810279, 2.595413, -0.385518, -4.923216, -70.865204, -23.192825, -643.637329
1733469668.081186, -8.504653, 8.137143, 5.930587, 2.216656, -0.407650, -4.882660, -71.967499, -25.795959, -643.492554
1733469668.091184, -7.586627, 7.429208, 6.071995, 1.864540, -0.509483, -4.860270, -73.010971, -28.229584, -643.720703
1733469668.101193, -6.850858, 6.820781, 6.092345, 1.558728, -0.699411, -4.854739, -73.950653, -30.606552, -643.814270
1733469668.111188, -6.209661, 6.215048, 6.101623, 1.287538, -0.973053, -4.879082, -74.876022, -33.060150, -643.144409
1733469668.121181, -5.567417, 5.757905, 6.202628, 1.020600, -1.292106, -4.925408, -75.593140, -35.542267, -642.952698
1733469668.131188, -4.913201, 5.526566, 6.155193, 0.739103, -1.618752, -4.950283, -76.391174, -37.904846, -642.275635
1733469668.141188, -4.131045, 5.229984, 5.824344, 0.453360, -1.873881, -4.952385, -77.375549, -39.986710, -641.390686
1733469668.151180, -3.329736, 5.041141, 5.191826, 0.175941, -1.952783, -4.903918, -77.762833, -42.483475, -639.911560
1733469668.161196, -2.428020, 5.088127, 4.650288, -0.107589, -1.887714, -4.785560, -78.361267, -44.438034, -639.686890
1733469668.171177, -1.462708, 5.027823, 4.497957, -0.386599, -1.787270, -4.612949, -78.236908, -46.531845, -639.060181
1733469668.181178, -0.424223, 4.978892, 4.610335, -0.641368, -1.721840, -4.377105, -78.627090, -48.276016, -638.367371
1733469668.191185, 0.623540, 5.037999, 4.964228, -0.869350, -1.758475, -4.066591, -78.985901, -49.684189, -637.494141
1733469668.201185, 1.331176, 4.612878, 5.357176, -1.105819, -1.896829, -3.762406, -79.311798, -51.141296, -636.963684
1733469668.211176, 1.646612, 3.950882, 5.588815, -1.362623, -2.112463, -3.504113, -79.261673, -52.608978, -636.485596
1733469668.221179, 1.814655, 3.361459, 5.307496, -1.616394, -2.281963, -3.272268, -79.269608, -53.692154, -635.777649
1733469668.231178, 1.928380, 2.763807, 4.860529, -1.863984, -2.378050, -3.070117, -79.410736, -54.641968, -634.694946
1733469668.241176, 2.148048, 2.293047, 4.448876, -2.113535, -2.411803, -2.886458, -79.488785, -55.579544, -633.845947
1733469668.251189, 2.600552, 1.943942, 4.019266, -2.349934, -2.404538, -2.688933, -79.468002, -56.379745, -632.823730
1733469668.261176, 3.091363, 1.695544, 3.577087, -2.560124, -2.365026, -2.473111, -79.446808, -57.066132, -633.081604
1733469668.270686, 3.502567, 1.759738, 3.161992, -2.733469, -2.342680, -2.246902, -79.446808, -57.066132, -633.081604
1733469668.281173, 3.883245, 2.015619, 2.905663, -2.871136, -2.398725, -2.015810, -79.655090, -57.881699, -631.357422
1733469668.291176, 4.493168, 2.253393, 2.500295, -2.944637, -2.528341, -1.742433, -79.700012, -58.240082, -631.138184
1733469668.301185, 5.122095, 2.670283, 2.020856, -2.936914, -2.738212, -1.400028, -79.939117, -58.306549, -630.220032
1733469668.311175, 5.717354, 3.173215, 1.579126, -2.886580, -2.982560, -0.988005, -80.083984, -58.252914, -629.681274
1733469668.321192, 6.289268, 3.515137, 1.289876, -2.856622, -3.236238, -0.524542, -80.083984, -58.252914, -629.681274
1733469668.331184, 6.849362, 3.562871, 0.916979, -2.887129, -3.464558, 0.001718, -80.695465, -57.956131, -629.081482
1733469668.341212, 7.049278, 3.748272, 0.175076, -2.934867, -3.628651, 0.559628, -81.275894, -57.497025, -627.616028
1733469668.351177, 7.027580, 4.015824, -0.720355, -2.980264, -3.736589, 1.106270, -81.772934, -56.691452, -626.971680
1733469668.361168, 6.947824, 4.360589, -1.479168, -3.023303, -3.838481, 1.641893, -82.094299, -55.712662, -625.138123
1733469668.371171, 6.519411, 5.195418, -1.967585, -3.013574, -3.997719, 2.162031, -82.915253, -54.350204, -624.059448
1733469668.381229, 5.962310, 6.396559, -2.217779, -2.919968, -4.264361, 2.697710, -83.201279, -52.934692, -622.436768
1733469668.391180, 5.228488, 7.928399, -2.534113, -2.772979, -4.548208, 3.286422, -83.705750, -51.088531, -620.578491
1733469668.401170, 4.527136, 9.662250, -3.078794, -2.666634, -4.711922, 4.003833, -83.545502, -49.073105, -618.564758
1733469668.411179, 3.677643, 10.834511, -3.819051, -2.708146, -4.687250, 4.815337, -83.632217, -46.739502, -616.251892
1733469668.421230, 1.751658, 11.947814, -4.740519, -2.856646, -4.496674, 5.586096, -83.910370, -43.971695, -614.120850
1733469668.431178, -1.265186, 12.760347, -6.120328, -2.995562, -4.179975, 6.186613, -83.888367, -40.670532, -612.240845
1733469668.441180, -4.767903, 12.335974, -7.701249, -3.103604, -3.825984, 6.447313, -83.766586, -37.582123, -610.198364
1733469668.451174, -8.425495, 11.558009, -9.115923, -3.075670, -3.630191, 6.353059, -83.206177, -34.622833, -608.659302
1733469668.461176, -11.327417, 11.408670, -10.735750, -2.750357, -3.612025, 6.060481, -82.186081, -31.696716, -607.222656
1733469668.471168, -13.282133, 12.482320, -12.688072, -2.221622, -3.462254, 5.823650, -80.611542, -28.869415, -604.562256
1733469668.481174, -14.509610, 13.885322, -14.226346, -1.775102, -3.028652, 5.762227, -79.118042, -26.001953, -602.519348
1733469668.491179, -15.257050, 14.563330, -15.701025, -1.484589, -2.220253, 5.811083, -77.318817, -23.310349, -601.215332
1733469668.501166, -15.868320, 15.078532, -17.242143, -1.260140, -1.142893, 5.920971, -76.025146, -20.736618, -600.323547
1733469668.511184, -16.576255, 15.750854, -17.762133, -1.026059, -0.295455, 6.005262, -74.564957, -18.402298, -600.177551
1733469668.521175, -17.523312, 16.626234, -17.072005, -0.646961, -0.143465, 6.034584, -73.255234, -15.907883, -599.629395
1733469668.531171, -18.547132, 16.334291, -16.941670, -0.037595, -0.467573, 5.973158, -71.518219, -13.496719, -599.233582
1733469668.541165, -20.235643, 16.038458, -17.021128, 0.710883, -0.936622, 5.801896, -69.665054, -11.143906, -599.241272
1733469668.551248, -22.400450, 15.677232, -16.835428, 1.392806, -1.248967, 5.535514, -67.576950, -8.939835, -599.345398
1733469668.561210, -24.340502, 14.142100, -16.861315, 1.964400, -1.200093, 5.184167, -65.505997, -6.722473, -599.252380
1733469668.571457, -26.321255, 13.373113, -16.410906, 2.379111, -0.907086, 4.705053, -63.819534, -4.929977, -599.598022
1733469668.581193, -27.528531, 13.246220, -15.058780, 2.594584, -0.692469, 4.146091, -62.224655, -3.145691, -600.046265
1733469668.591251, -27.592576, 13.141474, -13.868114, 2.777296, -0.654552, 3.598732, -60.428009, -1.896454, -600.872437
1733469668.601223, -26.919057, 13.187412, -13.329867, 3.099193, -0.736317, 3.189727, -58.981461, -0.545151, -601.795166
1733469668.611193, -26.735451, 13.730148, -13.030293, 3.567105, -0.808230, 2.911088, -57.671265, 0.615005, -602.776611
1733469668.621168, -27.515063, 13.837887, -12.634651, 4.107223, -0.809907, 2.659308, -56.009796, 1.748550, -604.157043
1733469668.631172, -28.737154, 13.373113, -12.264597, 4.663477, -0.593760, 2.427738, -54.840027, 2.964813, -605.626099
1733469668.641171, -30.403817, 12.862848, -11.454609, 5.108519, -0.177939, 2.063878, -54.113342, 3.826477, -607.706970
1733469668.651168, -31.621418, 11.982530, -9.325864, 5.312756, 0.142103, 1.486969, -53.526474, 4.346588, -609.820557
1733469668.661167, -31.709405, 11.521647, -7.090279, 5.388083, 0.230942, 0.776151, -53.494537, 4.794846, -612.596069
1733469668.671178, -30.490308, 11.954399, -5.025130, 5.464277, -0.022557, 0.111854, -53.138443, 5.096207, -614.675476
1733469668.681178, -28.762742, 13.408128, -3.505560, 5.651382, -0.468147, -0.334907, -53.023361, 4.907227, -616.880615
1733469668.691162, -27.769896, 14.540735, -2.516605, 5.890966, -0.852441, -0.632207, -53.285278, 4.774429, -619.524353
1733469668.701162, -27.572674, 14.217518, -1.468992, 5.989551, -1.028454, -0.954771, -53.716370, 4.167648, -622.034424
1733469668.711160, -27.815087, 13.272855, -0.544531, 5.914562, -0.965074, -1.389278, -54.458038, 3.466476, -624.421387
1733469668.721160, -27.788451, 12.614749, 0.116717, 5.731384, -0.667999, -1.902888, -55.334366, 2.534943, -626.332581
1733469668.731160, -27.045650, 12.398673, 1.055544, 5.470770, -0.304616, -2.426643, -56.546509, 1.375168, -628.343018
1733469668.741159, -25.635615, 12.555642, 2.397344, 5.188445, -0.074651, -2.919246, -58.221786, -0.247223, -629.911621
1733469668.751162, -23.864953, 12.730569, 3.755455, 4.924533, -0.075585, -3.356184, -59.468765, -2.127060, -631.846008
1733469668.761158, -22.044013, 12.779351, 4.630087, 4.720091, -0.235361, -3.718652, -61.108627, -4.014664, -633.714905
1733469668.771173, -20.342334, 12.348245, 4.989067, 4.575072, -0.418634, -4.032750, -63.200974, -5.983826, -635.113098
1733469668.781169, -18.759617, 11.701810, 5.347599, 4.439951, -0.590419, -4.315936, -64.820465, -8.416794, -636.196167
1733469668.791161, -17.086071, 11.028291, 5.769577, 4.268076, -0.708098, -4.573745, -66.931168, -10.936356, -637.348267
