SamplingTime, AccelerationX, AccelerationY, AccelerationZ, GyroX, GyroY, GyroZ, MagneticFieldX, MagneticFieldY, MagneticFieldZ
1733469459.733600, -4.700416, -1.925237, -6.069002, -0.621063, 0.543730, 0.305314, -63.916489, -21.149231, -650.170349
1733469459.743582, -4.843021, -2.012476, -5.441871, -0.510134, 0.246688, 0.255879, -63.879944, -21.002365, -650.111633
1733469459.753585, -5.045481, -2.289904, -5.017947, -0.387990, -0.092426, 0.152697, -63.832657, -20.743896, -649.838989
1733469459.763634, -5.213224, -2.476502, -4.923975, -0.278170, -0.378173, 0.034462, -63.938812, -20.888397, -649.680786
1733469459.773611, -5.398177, -2.384924, -4.941034, -0.207344, -0.523555, -0.075558, -63.969299, -20.637222, -649.750061
1733469459.783630, -5.439477, -2.159121, -4.960487, -0.202838, -0.539456, -0.121396, -64.043671, -20.540298, -649.642883
1733469459.793633, -5.079748, -2.234688, -4.264223, -0.305931, -0.644390, -0.050641, -64.147491, -20.590607, -648.761963
1733469459.803662, -4.980388, -2.098967, -4.130447, -0.490131, -0.516880, 0.030615, -64.191452, -20.232559, -648.774353
1733469459.813597, -4.971111, -1.449539, -4.393959, -0.734077, -0.311595, 0.169714, -64.134399, -19.793427, -647.666382
1733469459.823614, -5.182998, -0.954838, -4.080917, -0.996852, -0.106764, 0.329867, -64.122025, -19.145523, -647.566772
1733469459.833665, -5.545719, -0.923264, -4.258088, -1.282579, 0.083146, 0.432180, -63.831848, -18.785461, -647.976807
1733469459.843603, -5.961712, -0.938228, -4.308516, -1.518161, 0.127378, 0.493277, -63.878891, -18.348129, -647.462463
1733469459.853613, -6.187515, -0.947056, -4.505289, -1.639693, 0.057582, 0.530442, -63.384323, -17.572006, -647.498291
1733469459.863643, -6.230910, -0.887201, -4.934001, -1.643454, -0.102099, 0.610548, -63.369293, -16.747849, -646.579285
1733469459.873600, -6.233005, -0.682048, -5.479430, -1.596300, -0.094688, 0.717333, -62.942627, -16.058075, -646.133667
1733469459.883589, -6.555025, -0.332794, -8.056937, -1.523640, 0.287382, 0.837551, -62.656204, -15.501404, -646.422852
1733469459.893593, -6.833201, -0.033369, -7.417087, -1.396497, 0.359197, 0.931089, -62.458832, -14.635803, -645.929199
1733469459.903592, -8.046014, -0.702100, -7.510012, -1.353652, 0.573633, 0.848615, -61.958206, -14.031189, -645.891663
1733469459.913597, -8.791209, -1.007809, -6.960393, -1.416697, 0.452596, 0.696677, -61.605652, -13.521164, -644.962158
1733469459.923590, -9.093627, -0.846051, -5.652860, -1.521484, 0.065876, 0.518737, -61.560898, -12.967285, -644.573669
1733469459.933585, -9.731831, -0.938377, -5.791873, -1.592715, -0.389973, 0.307649, -61.368881, -12.439468, -644.654907
1733469459.943641, -10.385598, -1.121833, -6.651840, -1.595653, -0.770965, 0.083398, -61.439819, -12.008698, -643.214355
1733469459.953238, -10.722582, -1.080832, -7.601590, -1.553909, -1.079834, -0.074436, -61.671295, -11.480179, -643.282227
1733469459.963583, -11.036372, -0.939724, -8.262540, -1.475937, -1.422444, -0.175272, -62.014984, -11.185104, -642.472900
1733469459.973589, -11.649287, -0.754922, -8.784924, -1.362427, -1.749018, -0.264579, -62.405563, -10.984497, -640.947571
1733469459.983585, -12.917466, -0.615310, -9.635315, -1.249591, -1.917904, -0.417619, -63.028625, -10.731049, -640.575928
1733469459.993599, -14.423120, -0.971896, -10.759093, -1.193177, -1.902797, -0.689532, -63.515198, -10.740524, -639.522644
1733469460.003588, -15.357906, -1.427543, -11.430218, -1.217850, -1.818389, -1.019750, -64.580734, -10.854965, -638.779480
1733469460.013597, -15.891514, -1.611447, -11.715278, -1.276385, -1.811057, -1.373900, -65.122742, -10.986343, -637.698669
1733469460.023586, -16.112079, -1.450587, -12.266543, -1.288152, -1.896486, -1.734578, -66.013306, -11.542679, -636.102539
1733469460.033593, -16.158018, -1.006163, -13.228413, -1.207690, -1.994995, -2.061107, -66.874893, -12.114700, -636.309753
1733469460.043590, -16.088437, -0.556353, -14.642937, -1.048551, -1.960754, -2.340813, -68.050278, -12.872604, -634.133484
1733469460.053588, -15.818041, -0.222960, -16.099211, -0.869359, -1.759478, -2.556252, -69.088516, -13.656860, -633.754456
1733469460.063597, -15.502007, 0.162058, -16.887202, -0.728875, -1.479675, -2.743962, -70.225662, -14.553009, -633.278320
1733469460.073594, -15.343990, 0.714819, -17.221792, -0.618315, -1.201629, -2.941387, -71.028488, -15.940567, -632.164795
1733469460.083594, -14.924855, 0.950797, -17.202489, -0.496570, -1.036899, -3.154839, -72.196884, -17.164032, -632.277832
1733469460.093595, -14.372841, 1.275511, -16.844107, -0.343003, -1.043644, -3.366649, -73.206680, -18.564865, -631.010315
1733469460.103587, -13.848811, 1.667412, -16.715418, -0.166988, -1.041741, -3.563101, -74.322372, -20.050140, -631.548828
1733469460.113587, -13.108104, 2.217031, -16.873286, -0.037523, -1.005380, -3.736016, -75.373840, -21.791412, -631.103577
1733469460.123584, -12.217761, 2.938284, -16.975039, 0.097402, -0.968045, -3.827095, -76.085953, -23.668106, -630.203369
1733469460.133585, -10.952425, 3.816357, -17.240347, 0.391637, -1.017617, -3.707144, -76.535782, -25.235352, -630.407227
1733469460.143590, -9.324817, 5.178060, -17.511490, 0.802394, -1.098985, -3.389544, -77.710022, -27.076630, -629.702271
1733469460.153583, -8.153154, 4.809652, -17.531991, 1.212224, -1.030297, -3.223739, -78.316238, -28.708054, -629.855591
1733469460.163598, -7.466468, 3.688717, -17.306936, 1.341402, -0.637031, -3.239264, -78.946915, -30.695267, -630.021362
1733469460.173599, -6.656629, 3.604321, -15.983391, 1.268655, -0.170756, -3.246323, -79.057663, -32.338516, -629.428223
1733469460.183583, -5.751770, 3.644873, -14.273033, 1.175667, 0.221902, -3.139222, -79.427567, -33.973557, -630.117249
1733469460.193587, -4.559009, 3.916315, -12.959215, 1.066384, 0.671092, -2.903712, -79.517441, -35.567413, -630.650513
1733469460.203582, -3.296666, 4.097377, -12.159402, 0.881010, 1.209837, -2.633302, -79.770264, -36.961700, -631.539551
1733469460.213579, -2.307711, 4.190302, -11.754183, 0.648827, 1.833945, -2.389879, -79.879181, -38.101913, -632.852661
1733469460.223588, -1.475576, 4.197484, -11.415554, 0.418199, 2.435830, -2.197729, -79.243042, -39.358002, -633.836243
1733469460.233579, -0.798466, 4.050840, -11.072584, 0.238338, 2.958805, -2.016083, -78.582169, -40.197891, -635.947876
1733469460.243578, -0.184354, 4.148254, -10.905738, 0.185554, 3.438729, -1.796814, -78.227020, -41.141022, -636.991089
1733469460.253303, 0.683096, 4.604798, -10.551546, 0.291141, 3.838448, -1.534145, -78.227020, -41.141022, -636.991089
1733469460.263595, 1.651999, 5.292233, -9.528474, 0.556627, 3.837244, -1.241137, -77.476837, -41.891022, -638.858948
1733469460.273596, 2.550124, 5.961263, -8.053795, 0.947281, 3.448735, -0.909199, -76.754364, -42.654968, -641.455566
1733469460.283582, 3.421165, 6.332663, -7.212084, 1.361080, 3.009885, -0.605280, -76.151886, -43.336273, -641.868774
1733469460.293585, 3.613449, 6.290914, -6.548441, 1.689265, 2.646688, -0.362385, -75.352844, -43.983337, -643.694458
1733469460.303594, 3.453486, 6.329820, -5.627721, 1.901936, 2.391791, -0.141229, -75.059998, -44.484634, -643.981445
1733469460.313588, 3.476082, 6.272659, -5.093215, 1.995317, 2.341493, 0.075546, -74.066299, -45.044464, -645.433472
1733469460.323576, 3.496432, 6.170456, -4.710891, 2.013036, 2.431378, 0.303932, -73.294388, -45.609299, -646.006409
1733469460.333581, 3.683928, 6.250662, -4.275296, 2.035208, 2.616050, 0.597618, -72.472427, -46.094986, -646.338867
1733469460.343583, 4.041412, 6.609194, -3.813365, 2.083130, 2.790116, 0.984555, -71.812698, -46.235657, -647.846680
1733469460.353581, 4.360589, 6.851158, -2.900426, 2.141373, 2.879048, 1.421722, -70.981125, -46.496933, -648.752014
1733469460.363590, 4.498555, 6.787562, -1.786374, 2.160096, 2.891663, 1.872147, -70.299530, -46.538498, -649.594116
1733469460.373619, 4.314950, 6.865822, -0.704943, 2.151732, 2.798160, 2.323341, -69.466675, -46.444046, -650.296570
1733469460.383590, 4.111892, 6.861782, 0.512210, 2.154598, 2.555422, 2.746242, -68.617981, -46.239868, -651.170288
1733469460.393574, 3.838803, 6.325032, 1.710358, 2.125071, 2.198176, 3.113469, -67.979431, -45.881393, -651.438232
1733469460.403577, 3.228581, 5.932532, 2.620154, 2.088267, 1.857984, 3.457941, -67.557281, -45.495422, -652.692749
1733469460.413574, 2.474258, 5.870134, 3.402460, 2.023310, 1.596486, 3.777683, -66.697952, -45.029510, -652.752930
1733469460.423576, 1.410933, 5.494992, 4.655076, 1.850689, 1.407738, 4.042453, -66.412537, -44.190033, -653.097046
1733469460.433572, 0.199617, 4.870704, 6.015881, 1.508924, 1.304732, 4.248480, -65.859756, -43.215790, -653.551208
1733469460.443572, -0.713622, 4.242974, 7.107637, 1.032068, 1.220023, 4.422316, -65.583206, -41.937271, -653.924927
1733469460.453570, -1.402853, 3.758148, 7.633613, 0.528390, 1.207213, 4.635278, -64.976471, -40.654495, -654.328491
1733469460.463571, -2.309058, 3.294122, 7.832032, 0.015220, 1.287139, 4.833549, -64.080490, -38.976273, -654.641663
1733469460.473571, -3.490147, 2.731335, 8.712051, -0.565969, 1.256028, 5.034825, -63.442276, -37.169815, -653.699097
1733469460.483569, -4.582951, 2.537255, 9.830143, -1.189539, 1.151039, 5.280316, -62.318436, -34.830704, -654.920715
1733469460.493568, -6.320393, 2.203114, 10.411186, -1.835582, 1.036676, 5.521586, -61.212387, -32.324387, -654.950073
1733469460.503569, -8.685565, 1.228375, 11.162367, -2.567697, 0.858421, 5.683940, -60.099503, -29.413727, -655.154968
1733469460.513578, -11.107300, 0.255132, 11.955895, -3.356483, 0.616148, 5.756118, -59.244720, -26.465240, -654.499512
1733469460.523568, -14.074015, 0.010325, 11.872247, -4.118363, 0.504308, 5.744309, -57.759750, -23.203522, -653.816101
1733469460.533576, -17.323845, 0.032172, 10.932074, -4.856107, 0.588144, 5.643449, -56.053635, -19.734024, -653.422974
1733469460.543576, -20.828208, -0.319327, 9.986215, -5.626554, 0.808128, 5.345918, -54.482224, -16.048828, -652.420654
1733469460.553578, -23.893534, -0.763002, 9.034670, -6.397963, 1.015285, 4.818061, -52.821243, -12.448120, -650.876343
1733469460.563575, -26.208128, -1.051653, 8.072201, -7.049288, 0.950448, 4.076712, -51.549042, -9.126602, -649.081787
1733469460.573579, -28.422466, -0.431555, 6.934655, -7.488461, 0.610513, 3.106436, -50.406601, -6.012497, -646.680359
1733469460.583564, -30.362817, 0.668282, 5.136311, -7.754333, 0.161650, 1.983796, -49.412262, -3.336975, -643.516602
1733469460.593567, -31.581016, 2.361431, 3.213168, -7.925724, -0.347738, 0.844690, -49.032379, -0.701935, -640.515625
1733469460.603565, -32.127642, 5.430648, 1.114351, -8.045882, -0.769114, -0.179740, -49.258636, 1.138443, -636.994507
1733469460.613576, -31.847072, 9.228151, -1.050007, -8.210541, -1.062442, -0.983062, -49.506958, 2.851227, -633.109192
1733469460.623574, -31.034540, 13.318794, -3.452738, -8.412282, -1.171186, -1.548439, -50.015564, 3.796158, -628.890442
1733469460.633580, -30.260614, 17.376517, -6.651391, -8.536212, -1.046366, -1.933748, -50.943085, 4.727310, -625.152588
1733469460.643566, -29.618968, 20.603153, -10.392182, -8.455698, -0.775494, -2.236872, -52.225967, 5.029510, -620.339355
1733469460.652695, -29.712791, 22.650195, -13.943382, -8.143742, -0.528254, -2.635473, -53.532257, 5.030212, -617.444214
1733469460.663576, -30.139108, 23.878121, -17.728016, -7.542698, -0.264848, -3.123580, -54.832916, 4.265671, -614.036377
1733469460.673567, -29.897593, 24.882639, -21.530158, -6.754299, 0.051136, -3.653951, -56.565262, 3.284668, -611.262329
1733469460.683565, -29.073389, 25.770738, -24.602667, -5.885636, 0.392517, -4.159655, -58.464188, 1.899323, -608.853027
1733469460.693573, -27.761217, 26.043228, -27.138874, -4.916884, 0.759934, -4.618990, -60.325333, 0.316650, -607.516235
1733469460.703568, -25.890149, 26.462961, -28.661138, -3.897137, 1.054008, -4.971783, -62.522629, -1.316803, -606.408875
1733469460.712996, -23.668928, 27.086950, -29.179632, -2.912652, 1.334238, -5.200878, -64.826614, -3.198868, -606.375549
1733469460.723571, -21.366005, 27.843368, -28.981063, -2.046164, 1.579317, -5.324647, -66.776321, -5.265823, -606.132812
1733469460.733587, -19.187431, 27.994801, -28.658594, -1.243854, 1.964597, -5.344835, -69.115021, -7.252853, -606.418945
1733469460.743570, -17.024569, 27.385926, -28.572403, -0.448290, 2.488905, -5.282938, -71.400909, -9.289047, -607.911011
1733469460.753571, -14.847492, 26.554390, -27.520151, 0.326088, 2.929399, -5.187534, -73.116989, -11.524765, -609.524841
1733469460.763569, -13.007249, 25.644144, -25.847801, 1.084170, 3.263063, -5.101673, -74.997986, -13.730804, -611.952393
1733469460.773565, -11.285518, 25.098266, -24.090906, 1.814723, 3.512971, -5.015263, -76.672745, -16.016586, -614.088867
1733469460.783587, -9.746047, 24.539819, -22.109405, 2.516102, 3.658920, -4.923036, -78.077072, -18.305542, -616.641785
1733469460.793577, -8.344391, 24.044518, -19.744532, 3.183100, 3.676625, -4.822253, -79.275055, -20.785660, -619.015137
1733469460.803565, -7.074866, 23.537397, -17.367090, 3.790660, 3.592991, -4.736830, -80.364777, -23.364655, -621.422913
1733469460.813565, -5.752967, 23.019501, -15.015385, 4.319262, 3.386720, -4.627940, -80.824371, -26.011337, -623.977966
1733469460.823565, -4.292055, 22.466291, -12.764686, 4.785604, 3.090628, -4.488002, -81.571259, -28.850327, -626.218933
1733469460.833565, -2.961179, 21.638645, -10.812215, 5.164126, 2.773409, -4.320833, -81.510132, -31.626205, -628.443176
1733469460.843565, -1.572242, 20.806361, -9.102306, 5.434114, 2.536454, -4.116480, -81.851761, -34.452484, -630.239685
1733469460.853562, -0.137966, 19.941605, -7.589170, 5.578557, 2.422739, -3.821621, -81.730911, -37.115021, -631.430542
1733469460.863569, 1.203086, 19.053655, -6.331466, 5.601940, 2.487200, -3.432697, -81.353302, -39.804855, -632.687805
1733469460.873565, 2.268805, 18.017714, -5.315726, 5.527209, 2.753567, -2.977030, -81.022049, -42.152786, -634.170227
1733469460.883613, 3.049614, 16.824803, -4.180875, 5.361984, 3.178920, -2.476541, -80.424515, -44.408203, -635.476929
1733469460.893554, 3.675399, 15.404892, -2.963124, 5.096699, 3.705110, -1.983118, -79.875488, -46.315460, -637.164307
1733469460.903557, 4.075081, 14.042591, -1.635389, 4.778951, 4.219072, -1.509974, -78.846436, -48.344299, -638.253235
1733469460.913555, 4.308815, 13.080122, -0.191686, 4.503485, 4.553709, -1.061865, -77.887970, -49.678757, -640.326843
1733469460.923562, 4.744410, 12.241403, 1.290774, 4.302792, 4.601813, -0.625138, -76.813644, -51.271652, -642.258423
1733469460.933554, 5.367351, 11.388619, 2.733729, 4.166499, 4.360166, -0.199669, -75.819275, -52.488632, -643.265747
1733469460.943550, 6.020370, 10.597784, 3.782988, 4.063722, 3.975765, 0.245336, -74.651031, -53.297729, -644.149597
1733469460.953550, 6.502203, 10.031855, 4.225167, 3.964248, 3.604083, 0.723949, -74.055634, -54.010208, -645.141174
1733469460.963566, 6.876746, 9.526229, 4.474015, 3.885986, 3.259614, 1.225398, -73.383469, -54.606552, -645.603149
1733469460.973551, 6.994660, 8.801833, 4.698321, 3.799862, 3.003074, 1.709513, -72.482971, -54.925003, -646.302490
1733469460.983550, 6.733842, 7.852682, 4.791246, 3.680524, 2.960306, 2.163283, -72.311844, -54.988892, -646.481018
1733469460.993577, 6.189610, 7.116166, 5.051466, 3.500002, 3.063641, 2.594141, -71.652023, -55.029892, -647.362671
1733469461.003566, 5.637597, 6.587646, 6.418106, 3.183609, 3.069582, 2.974855, -71.089798, -54.925415, -647.451721
1733469461.013565, 5.102493, 5.921609, 8.106916, 2.727526, 2.910521, 3.305113, -70.459763, -54.387222, -648.628967
1733469461.023561, 4.646996, 5.405658, 8.876054, 2.283504, 2.683581, 3.635298, -70.022095, -53.729187, -649.199097
1733469461.033563, 4.160524, 5.240608, 8.987983, 1.946014, 2.436587, 3.992092, -69.672592, -52.612701, -649.648376
1733469461.043564, 3.642628, 5.090821, 9.202862, 1.666362, 2.157114, 4.386172, -69.174500, -51.524353, -649.745911
1733469461.053626, 3.252972, 5.129128, 9.569774, 1.435859, 1.821072, 4.855309, -69.008911, -50.167099, -650.323914
1733469461.063561, 2.452111, 5.172972, 10.189722, 1.204959, 1.510665, 5.336546, -68.961227, -48.231308, -650.824158
1733469461.073557, 0.827197, 4.627094, 10.825532, 0.817599, 1.379980, 5.713529, -68.671631, -46.206573, -651.004761
1733469461.083545, -1.186477, 4.139575, 11.649437, 0.223133, 1.387816, 5.990482, -68.374466, -43.824341, -651.585205
1733469461.093603, -3.300557, 3.709516, 12.639140, -0.555509, 1.382160, 6.125852, -67.805832, -41.308685, -652.168518
1733469461.103548, -5.376479, 3.005771, 13.185766, -1.424904, 1.353446, 6.109438, -67.091553, -38.486954, -651.872681
1733469461.113547, -6.972364, 2.635268, 12.873922, -2.211403, 1.289021, 6.042153, -66.112701, -35.211990, -652.466003
1733469461.123554, -8.147019, 2.562544, 12.343756, -2.880528, 1.124780, 5.959762, -65.102310, -31.898163, -652.716125
1733469461.133555, -9.217377, 2.726098, 11.865065, -3.430761, 0.816860, 5.896823, -63.888565, -28.469589, -652.836060
1733469461.143547, -10.581174, 3.015497, 10.936414, -3.846606, 0.521123, 5.851446, -62.593979, -25.068542, -652.005981
1733469461.153606, -12.457331, 3.009511, 9.547029, -4.107637, 0.360193, 5.785152, -61.315369, -21.831100, -651.727539
1733469461.163563, -14.567071, 2.971952, 9.183409, -4.358377, 0.211688, 5.700998, -59.431168, -18.225693, -650.692505
1733469461.173560, -16.877027, 3.419818, 9.775675, -4.699523, 0.009040, 5.567035, -57.954895, -14.862610, -649.146851
1733469461.183546, -19.653403, 4.026598, 10.514885, -5.168740, -0.211571, 5.339609, -56.268555, -11.335052, -647.574463
1733469461.193164, -22.370373, 4.924723, 11.220576, -5.827476, -0.424472, 5.069954, -54.835785, -8.151779, -645.461304
1733469461.203584, -25.635316, 6.341642, 11.122264, -6.667299, -0.500283, 4.637785, -53.306595, -4.977463, -641.832031
1733469461.213560, -29.384935, 7.932589, 10.137349, -7.641187, -0.508122, 3.918507, -52.356049, -1.636932, -638.714539
1733469461.223571, -32.592417, 9.640403, 7.907001, -8.485396, -0.521915, 2.957904, -51.680267, 0.871155, -635.251221
1733469461.233564, -34.608185, 11.325472, 4.768502, -9.049382, -0.791444, 1.875820, -51.138977, 3.010696, -631.258789
1733469461.243544, -35.390191, 13.178883, 1.161038, -9.238888, -1.161448, 0.847060, -50.988358, 4.390625, -627.030151
1733469461.253708, -35.220502, 15.361198, -3.254917, -9.030525, -1.365488, 0.031085, -50.851624, 5.086655, -622.642090
1733469461.263717, -34.744206, 17.596784, -7.433697, -8.536160, -1.302523, -0.569051, -51.002228, 5.576050, -618.575928
1733469461.273689, -34.040460, 19.458575, -10.720636, -7.927419, -0.969231, -0.955624, -51.676636, 5.631042, -615.112610
1733469461.283766, -33.330729, 21.059398, -12.967744, -7.388482, -0.397081, -1.219064, -52.498566, 5.100174, -612.218811
1733469461.293722, -32.326361, 22.660819, -15.647006, -7.027630, 0.240647, -1.467625, -53.581940, 4.695084, -609.940308
1733469461.303573, -32.326361, 22.660819, -15.647006, -6.698265, 0.857115, -1.812726, -54.764206, 3.536606, -606.649292
1733469461.313627, -31.932964, 22.328774, -17.517775, -6.220977, 1.378261, -2.277714, -56.305283, 2.266174, -605.708252
1733469461.323590, -30.132824, 21.825842, -19.512744, -5.559211, 1.607309, -2.771407, -58.165695, 0.980606, -603.954956
1733469461.333570, -30.132824, 21.825842, -19.512744, -4.837268, 1.621073, -3.296953, -59.822266, -0.492264, -603.454163
1733469461.343545, -28.140848, 22.363340, -21.051617, -3.523000, 1.807923, -4.343330, -61.928543, -2.263748, -602.629822
1733469461.353545, -28.140848, 22.363340, -21.051617, -3.523000, 1.807923, -4.343330, -63.820343, -4.067078, -602.270691
1733469461.363538, -24.576031, 23.027282, -22.256349, -2.874890, 1.992226, -4.801965, -66.027603, -6.106110, -602.706726
1733469461.373548, -22.389377, 23.346010, -22.268170, -1.322171, 2.378135, -5.457282, -68.592270, -8.366470, -603.091553
1733469461.383544, -20.148105, 23.712622, -21.626225, -0.521298, 2.466382, -5.689065, -70.776672, -10.552673, -604.255981
1733469461.393558, -17.944841, 24.249672, -20.370317, 0.172433, 2.452295, -5.860636, -72.937454, -12.878220, -604.972839
1733469461.402709, -17.944841, 24.249672, -20.370317, 0.172433, 2.452295, -5.860636, -75.062180, -15.424408, -605.896790
1733469461.413542, -13.680319, 24.940548, -18.193090, 1.299210, 2.496825, -6.008854, -76.821777, -18.217285, -607.887146
1733469461.423549, -11.530774, 24.984392, -17.242891, 1.761232, 2.629772, -5.942826, -78.569580, -20.693604, -609.512207
1733469461.433543, -9.478195, 24.680628, -16.456246, 2.209749, 2.822276, -5.802938, -79.885696, -23.510681, -611.607178
1733469461.443537, -7.518841, 24.061727, -15.565304, 2.673112, 2.990525, -5.603984, -81.158203, -26.276825, -613.539368
1733469461.453535, -5.737405, 23.501633, -14.333337, 3.148134, 3.120267, -5.353072, -82.105789, -28.967468, -615.382690
1733469461.463538, -3.911377, 23.071724, -13.023110, 3.598822, 3.233174, -5.012631, -82.822891, -31.876617, -617.644165
1733469461.473543, -2.056619, 22.514923, -11.550676, 4.002031, 3.271677, -4.597010, -83.605103, -34.252991, -619.222595
1733469461.483537, -0.433351, 21.556943, -10.084826, 4.381886, 3.257572, -4.150169, -83.640472, -36.929794, -621.911499
1733469461.493537, 0.937330, 20.410420, -8.795698, 4.734116, 3.236765, -3.694900, -83.615753, -39.336807, -623.537720
1733469461.503542, 2.197578, 19.176358, -7.628974, 5.040030, 3.244508, -3.230344, -83.687271, -41.484146, -624.336731
1733469461.513554, 3.290830, 18.130990, -6.351817, 5.277947, 3.302869, -2.748918, -83.616608, -43.285751, -626.908630
1733469461.523536, 4.147805, 17.095947, -4.764162, 5.371405, 3.398955, -2.277489, -83.346832, -45.361496, -628.207458
1733469461.533539, 4.768801, 15.831958, -3.197456, 5.340561, 3.546192, -1.849965, -82.736862, -46.804443, -629.429565
1733469461.543536, 5.190180, 14.702044, -1.857601, 5.218070, 3.735656, -1.438413, -82.184158, -48.537048, -631.103149
1733469461.553535, 5.583129, 13.831752, -0.505177, 5.064174, 3.844526, -1.018680, -81.610107, -49.949539, -632.779785
1733469461.563535, 6.199486, 13.226917, 1.029806, 4.923906, 3.783450, -0.593610, -81.335526, -51.187729, -633.598633
1733469461.573542, 6.836194, 12.413936, 2.460192, 4.792987, 3.600646, -0.155113, -80.647293, -52.066864, -634.669617
1733469461.583535, 7.419032, 11.553070, 3.991134, 4.634369, 3.235536, 0.317290, -79.707687, -52.936249, -635.562317
1733469461.593533, 8.101829, 10.885387, 5.837213, 4.425392, 2.699783, 0.823358, -79.419617, -53.454300, -635.944153
1733469461.603542, 8.519018, 10.008960, 7.020697, 4.172368, 2.181797, 1.333334, -78.994720, -53.747269, -635.579712
1733469461.613543, 8.394370, 9.009530, 7.409905, 3.911812, 1.873313, 1.850089, -78.797684, -53.502121, -637.021545
1733469461.623550, 7.750629, 8.153005, 7.620295, 3.585596, 1.841704, 2.348532, -78.693817, -53.099030, -636.863403
1733469461.633542, 6.856395, 6.916998, 7.600692, 3.188623, 2.082462, 2.788396, -78.732849, -52.386444, -637.870911
1733469461.643550, 5.869385, 5.322460, 7.656208, 2.770877, 2.424556, 3.168546, -78.345871, -51.489288, -638.374268
1733469461.652684, 4.982483, 4.102913, 8.254758, 2.364880, 2.628838, 3.477601, -78.345871, -51.489288, -638.374268
1733469461.663540, 4.006996, 3.342754, 9.168595, 2.005401, 2.630228, 3.718619, -77.967911, -49.255630, -640.010681
1733469461.673537, 3.205088, 2.878130, 10.292972, 1.687323, 2.403395, 3.929772, -77.253403, -47.966949, -641.403259
1733469461.683531, 2.626738, 2.655918, 11.755081, 1.343710, 1.972409, 4.165062, -76.725357, -46.238388, -641.746521
1733469461.693038, 1.995567, 2.605789, 12.790125, 0.986164, 1.518480, 4.448516, -76.725357, -46.238388, -641.746521
1733469461.703532, 0.920870, 2.573019, 12.987796, 0.594131, 1.257032, 4.764455, -76.074814, -42.221558, -642.455444
1733469461.713528, -0.481235, 2.378639, 12.946945, 0.067942, 1.206228, 5.057166, -75.372238, -39.869019, -643.110291
1733469461.723544, -2.214188, 1.898452, 12.748076, -0.580131, 1.283519, 5.256969, -74.929062, -37.455521, -643.794556
1733469461.733527, -3.770868, 1.609352, 12.328044, -1.197152, 1.330236, 5.402666, -74.376968, -34.678329, -644.099121
1733469461.743537, -5.050269, 1.786523, 11.965172, -1.690514, 1.202253, 5.506438, -74.376968, -34.678329, -644.099121
1733469461.753541, -6.174496, 2.284517, 11.708843, -2.029372, 0.882302, 5.617273, -73.140884, -31.778183, -644.486450
1733469461.763531, -7.297527, 2.818424, 11.146505, -2.235036, 0.593393, 5.789921, -71.829376, -28.808044, -644.603394
1733469461.773526, -8.999654, 3.091214, 10.869526, -2.473889, 0.445137, 5.970653, -70.620499, -25.588348, -644.466614
1733469461.783549, -11.436952, 3.252673, 11.092187, -2.901249, 0.515811, 6.106366, -68.725601, -22.576050, -643.856812
1733469461.793546, -14.114567, 3.650709, 11.416302, -3.541722, 0.752986, 6.139909, -67.370056, -19.066864, -643.466125
1733469461.803528, -17.010653, 4.145859, 11.873295, -4.380668, 0.976023, 6.002064, -65.510742, -15.779129, -643.082581
1733469461.813525, -20.502746, 4.861576, 11.756727, -5.250754, 1.063368, 5.648736, -63.517517, -12.430038, -642.094360
1733469461.823523, -23.970747, 5.615600, 10.634744, -5.953022, 0.959054, 5.091870, -61.395844, -9.047195, -640.568787
1733469461.833534, -26.680085, 6.242282, 9.108291, -6.426790, 0.600401, 4.401394, -59.545181, -6.158890, -638.909058
1733469461.843534, -28.753165, 6.959495, 7.295432, -6.702801, 0.098009, 3.632490, -57.619156, -3.433334, -636.519409
1733469461.853581, -30.279169, 7.522731, 4.862923, -6.837680, -0.295656, 2.851998, -56.223495, -1.051102, -633.722839
1733469461.862934, -31.144673, 7.909096, 2.206855, -6.931572, -0.343164, 2.111939, -55.079163, 0.919937, -631.023560
1733469461.873529, -32.112978, 8.625261, 0.061501, -7.131613, -0.084839, 1.380181, -54.108337, 2.353271, -628.129395
1733469461.883522, -33.008709, 10.329633, -1.033098, -7.473050, 0.178105, 0.624175, -53.250702, 3.558426, -624.682190
1733469461.893578, -33.765426, 12.981511, -2.148197, -7.789758, 0.353315, -0.136983, -52.994980, 4.319855, -621.500244
1733469461.903549, -34.591874, 16.618004, -4.133440, -7.987094, 0.396267, -0.917963, -53.574005, 4.803406, -617.839844
1733469461.913534, -34.880974, 19.405753, -7.222409, -7.946164, 0.384718, -1.666012, -53.724503, 4.516922, -614.037659
1733469461.923519, -34.142662, 20.906019, -11.473314, -7.568467, 0.485717, -2.258027, -54.612640, 3.982574, -611.204590
1733469461.933572, -32.908451, 21.778855, -15.590892, -6.925411, 0.683269, -2.717037, -55.828995, 3.048203, -608.164368
1733469461.943520, -31.543906, 22.079477, -18.803012, -6.156208, 0.943486, -3.110697, -56.989670, 1.815140, -606.037842
1733469461.953519, -30.048877, 22.159683, -21.182998, -5.314295, 1.227729, -3.471109, -58.670197, 0.438095, -604.198364
1733469461.963523, -28.459127, 22.303784, -22.819884, -4.399745, 1.533896, -3.803292, -60.468445, -1.346466, -602.851257
1733469461.973531, -26.532094, 22.709601, -23.714418, -3.387710, 1.725619, -4.054134, -62.470840, -3.050629, -601.973022
1733469461.983530, -24.343195, 22.634932, -23.679552, -2.377840, 1.781224, -4.245113, -64.432663, -4.823547, -601.996887
1733469461.993528, -22.553978, 22.118682, -23.119459, -1.457675, 1.823080, -4.432162, -66.375809, -6.537506, -601.919861
1733469462.003541, -21.024682, 21.675605, -22.115839, -0.700790, 1.886618, -4.642516, -68.335281, -8.293243, -602.034424
1733469462.013528, -19.397822, 21.382914, -20.606744, -0.122653, 1.909865, -4.865800, -70.624954, -10.059265, -603.271729
1733469462.023534, -17.654394, 21.270686, -19.272426, 0.338737, 1.952704, -5.064797, -72.425797, -11.986877, -604.212769
1733469462.033532, -15.923386, 21.220707, -18.513164, 0.751472, 2.094738, -5.216696, -74.070465, -14.197586, -605.488892
1733469462.043537, -14.174572, 20.964228, -17.989133, 1.160205, 2.328334, -5.314477, -75.944290, -16.289001, -607.043213
1733469462.053535, -12.427253, 20.672435, -17.411981, 1.559047, 2.649517, -5.365478, -77.548523, -18.804596, -608.260559
1733469462.063535, -10.750414, 20.625598, -16.592117, 1.958931, 2.970718, -5.335099, -79.140900, -21.392960, -610.311279
1733469462.073527, -9.038859, 20.630536, -15.387384, 2.382229, 3.178342, -5.270126, -80.459534, -23.772507, -612.061768
1733469462.083523, -7.494749, 20.383934, -13.978696, 2.844757, 3.168163, -5.180195, -81.447159, -26.409546, -613.862305
1733469462.093525, -5.785888, 20.222624, -12.393735, 3.321215, 2.948182, -5.033473, -82.430420, -29.027359, -616.143738
1733469462.103519, -3.980211, 19.864242, -10.850821, 3.754879, 2.641074, -4.820157, -82.741837, -31.897385, -617.571594
1733469462.113521, -2.424129, 19.109171, -9.555109, 4.089895, 2.359599, -4.565723, -83.386261, -34.281174, -619.723328
1733469462.123513, -1.214459, 18.105701, -8.539369, 4.327330, 2.199112, -4.269698, -83.707565, -36.856400, -621.141724
1733469462.133523, -0.275932, 16.848596, -7.908497, 4.510117, 2.220098, -3.971095, -83.854843, -39.399734, -622.725891
1733469462.143517, 0.370802, 15.459061, -7.478289, 4.652363, 2.438861, -3.670751, -83.754639, -41.555878, -623.832581
1733469462.152681, 1.008707, 14.440478, -6.908020, 4.755569, 2.758906, -3.352223, -83.677307, -43.771896, -624.963501
1733469462.163523, 1.761235, 13.683012, -6.252607, 4.808776, 3.174582, -2.986783, -83.351761, -45.885773, -626.438904
1733469462.173501, 2.428618, 13.068151, -5.544073, 4.858323, 3.584364, -2.577498, -82.580566, -47.895447, -627.634888
1733469462.183534, 3.100342, 12.760197, -4.314202, 4.931438, 3.866807, -2.127644, -82.161545, -49.686142, -628.797546
1733469462.193537, 3.828628, 12.694656, -2.706046, 4.971124, 3.975324, -1.631231, -81.728882, -51.144928, -630.030579
1733469462.203536, 4.536863, 12.229283, -1.023521, 4.932639, 3.923056, -1.121827, -81.166489, -52.820740, -630.868347
1733469462.213517, 5.071069, 11.510124, 0.723049, 4.831151, 3.690415, -0.610326, -80.213760, -54.073715, -632.900085
1733469462.223507, 5.358972, 10.724228, 2.404377, 4.675047, 3.342583, -0.137982, -80.155228, -54.786926, -633.363647
1733469462.233532, 5.498284, 9.632173, 3.743035, 4.411205, 2.982723, 0.280310, -79.420868, -55.455276, -634.142151
1733469462.243133, 5.390395, 8.358158, 4.552874, 4.060925, 2.692834, 0.648731, -79.101761, -56.018829, -634.710388
1733469462.253528, 5.171625, 7.376236, 4.944775, 3.708357, 2.546313, 0.998093, -78.835541, -56.340866, -635.366943
1733469462.263401, 5.010316, 6.627599, 5.168632, 3.334426, 2.477383, 1.331206, -78.406799, -56.411728, -635.889771
1733469462.273511, 5.090522, 5.835418, 5.413440, 2.958890, 2.443149, 1.676462, -78.082260, -56.327881, -636.473572
1733469462.283528, 5.176414, 5.245247, 5.266795, 2.633715, 2.510965, 2.047009, -77.960770, -55.808319, -636.886475
1733469462.293522, 5.203348, 4.853645, 4.921431, 2.376254, 2.711510, 2.479023, -77.380554, -55.326370, -637.651123
1733469462.303522, 5.185542, 4.718822, 5.134216, 2.196556, 2.822667, 3.003346, -77.019531, -54.604095, -637.823730
1733469462.313507, 4.860678, 4.707599, 6.076633, 2.086160, 2.762246, 3.559299, -76.785553, -53.456955, -639.492432
1733469462.323515, 3.994576, 4.494066, 7.255927, 1.956587, 2.601876, 4.072517, -76.512283, -52.095840, -639.920227
1733469462.333513, 2.913444, 4.222474, 8.796447, 1.703393, 2.338849, 4.511245, -76.511398, -50.356644, -640.913513
1733469462.343508, 1.754351, 3.897162, 10.222942, 1.303213, 2.050686, 4.869501, -76.398102, -48.481079, -641.769165
1733469462.353508, 0.380528, 3.550451, 10.685472, 0.801533, 1.896621, 5.134722, -75.965378, -46.649841, -642.122620
1733469462.363527, -1.149366, 3.218256, 10.661380, 0.245948, 1.812654, 5.292843, -75.684845, -44.355743, -643.168213
1733469462.373515, -2.321328, 3.029862, 10.310031, -0.244675, 1.743018, 5.432296, -74.962326, -41.727554, -643.498535
1733469462.382772, -3.025523, 3.151368, 9.659706, -0.570748, 1.653091, 5.619967, -74.384232, -39.269608, -644.304626
1733469462.393529, -4.123713, 3.028665, 9.336040, -0.826417, 1.564694, 5.760095, -73.794067, -36.691910, -644.555908
1733469462.402631, -5.517438, 2.637812, 9.455750, -1.139763, 1.522779, 5.835452, -72.249435, -33.979218, -645.331482
1733469462.413502, -6.647202, 2.789095, 9.999982, -1.516403, 1.462522, 5.932897, -71.526657, -30.885345, -645.677612
1733469462.423507, -8.084172, 2.945167, 10.681880, -1.952290, 1.406602, 5.993996, -70.202118, -27.757202, -646.228271
1733469462.433517, -10.035745, 2.890849, 11.577761, -2.488306, 1.279105, 6.000435, -68.579742, -24.663376, -646.277344
1733469462.443557, -11.975348, 3.434333, 12.283452, -3.061337, 1.126261, 6.021891, -66.849121, -21.468033, -646.265320
1733469462.453513, -14.131177, 4.301632, 12.609662, -3.635077, 0.904479, 6.046737, -64.572662, -18.246948, -645.412109
1733469462.463510, -16.951846, 5.121946, 12.775161, -4.228670, 0.653125, 6.024624, -62.481247, -14.807190, -644.349548
1733469462.473571, -20.435259, 5.819257, 12.300510, -4.893467, 0.444034, 5.847700, -60.613983, -11.319000, -643.198730
1733469462.483559, -24.648007, 6.235100, 11.249605, -5.624364, 0.323857, 5.378670, -58.559296, -8.161789, -641.927368
1733469462.493540, -28.837411, 6.380248, 9.588179, -6.397469, 0.325971, 4.616670, -56.893860, -4.973038, -639.568665
1733469462.503505, -32.200067, 6.935853, 7.708132, -7.147117, 0.348249, 3.672571, -55.215118, -2.636444, -635.891602
1733469462.513608, -34.111388, 8.455722, 5.485266, -7.736688, 0.273309, 2.718664, -53.623260, -0.219421, -634.053955
1733469462.523550, -34.863916, 10.608708, 2.664298, -8.055430, 0.072198, 1.853804, -52.909836, 1.654938, -630.448425
1733469462.533648, -35.149723, 12.822895, -0.632668, -8.109558, -0.122242, 1.089261, -52.298843, 3.259735, -627.095947
1733469462.543529, -35.058893, 14.578144, -4.094234, -8.014861, -0.200039, 0.425881, -52.356949, 4.310135, -623.178345
1733469462.553511, -34.540100, 15.625757, -7.291242, -7.849563, -0.132507, -0.145930, -52.587082, 4.501602, -619.967041
1733469462.563502, -34.086997, 16.782456, -9.787347, -7.631225, 0.002769, -0.685979, -53.137924, 4.926987, -616.507568
1733469462.573513, -33.630453, 17.525556, -11.792341, -7.336341, 0.131143, -1.261136, -53.780273, 4.542770, -613.350098
1733469462.583509, -33.664421, 18.432510, -13.858986, -6.898855, 0.226543, -1.896548, -55.124161, 3.962265, -610.596802
1733469462.593498, -33.475279, 19.539828, -16.095021, -6.313006, 0.315026, -2.545728, -56.040176, 2.722260, -608.620239
1733469462.603508, -32.305113, 19.657144, -18.294544, -5.610648, 0.467940, -3.151462, -57.775360, 1.467468, -605.678589
1733469462.613510, -30.703990, 19.441516, -20.075231, -4.832824, 0.732404, -3.694862, -59.320648, 0.116074, -604.930908
1733469462.623515, -28.581979, 19.305047, -20.740071, -4.111534, 0.997630, -4.125272, -61.457520, -1.602722, -603.629456
1733469462.633514, -26.347441, 19.704878, -20.490176, -3.512517, 1.264126, -4.438400, -63.409210, -3.220612, -602.918518
1733469462.643499, -24.215853, 20.628442, -19.948488, -3.042427, 1.497670, -4.623852, -65.370117, -5.240723, -602.717346
1733469462.653512, -22.093394, 21.378425, -19.731813, -2.627142, 1.730819, -4.721052, -67.347198, -7.161743, -602.613159
1733469462.663499, -20.200927, 21.366454, -20.070443, -2.167568, 1.970744, -4.814952, -69.698410, -9.195770, -603.082153
1733469462.673497, -18.459444, 21.042189, -20.582054, -1.579024, 2.161572, -4.912436, -71.582703, -11.285248, -603.589355
1733469462.683506, -16.674717, 20.739323, -20.958692, -0.861157, 2.259674, -5.010667, -73.630692, -13.467239, -604.631165
1733469462.693496, -14.952986, 20.498107, -20.962133, -0.099678, 2.309219, -5.108155, -75.435455, -15.719727, -605.938782
1733469462.703496, -13.295750, 20.475961, -20.364181, 0.629692, 2.323675, -5.190537, -76.954269, -18.182297, -606.291382
1733469462.713495, -11.671135, 20.482246, -19.525912, 1.301507, 2.375965, -5.233986, -78.520584, -20.342102, -608.323547
1733469462.723511, -9.995792, 20.446183, -18.424280, 1.907078, 2.428149, -5.204978, -80.014343, -22.926361, -610.341370
1733469462.733496, -8.318504, 20.244920, -16.899921, 2.437801, 2.453532, -5.116275, -80.969345, -25.281921, -612.344910
1733469462.743506, -6.819135, 19.804088, -15.396063, 2.891826, 2.501932, -4.977609, -81.797943, -27.792908, -614.380310
1733469462.753506, -5.434538, 19.318963, -14.017452, 3.271671, 2.606151, -4.780132, -82.563416, -30.058502, -615.960693
1733469462.763489, -4.211700, 18.758271, -12.691064, 3.588263, 2.755539, -4.511133, -82.957077, -32.366348, -617.308594
1733469462.773497, -3.061286, 18.167053, -11.430218, 3.858975, 2.972171, -4.195099, -83.415848, -34.642487, -619.179932
1733469462.783503, -1.917756, 17.328334, -10.177751, 4.077110, 3.208754, -3.860319, -83.810547, -36.749847, -620.908691
1733469462.793495, -0.984615, 16.415395, -8.672846, 4.244844, 3.371164, -3.513630, -84.144897, -39.019958, -622.839600
1733469462.803501, -0.165499, 15.533431, -7.082647, 4.399728, 3.397758, -3.190256, -84.096130, -41.187012, -623.848450
1733469462.813495, 0.642993, 14.440627, -5.689671, 4.562951, 3.299358, -2.910785, -83.891190, -43.003128, -626.148315
1733469462.823501, 1.494580, 13.239187, -4.478354, 4.729984, 3.136862, -2.657317, -83.607574, -44.949677, -627.422607
1733469462.833497, 2.391209, 12.148927, -3.249381, 4.822785, 2.951745, -2.400871, -82.986938, -46.692505, -628.514771
1733469462.843544, 3.141193, 11.185411, -1.982698, 4.776842, 2.830130, -2.124354, -82.639832, -48.439590, -629.518860
1733469462.853499, 3.688866, 10.527005, -0.718260, 4.581079, 2.784616, -1.816969, -82.069977, -49.730179, -630.088318
1733469462.863488, 4.234894, 9.933692, 0.526874, 4.262735, 2.764277, -1.466219, -81.728745, -50.873260, -631.099792
1733469462.873487, 4.854394, 9.304466, 1.229423, 3.873166, 2.885141, -1.056391, -81.148666, -51.897629, -631.775818
1733469462.883535, 5.368698, 8.710854, 1.118391, 3.511683, 3.163403, -0.578321, -80.167877, -52.831223, -633.257935
1733469462.893501, 5.640589, 8.241740, 1.126921, 3.252065, 3.472417, -0.045616, -79.822906, -53.041199, -634.553589
1733469462.902627, 5.796512, 7.814076, 1.571793, 3.062815, 3.662434, 0.507706, -79.140228, -53.412888, -635.257935
1733469462.913503, 5.829731, 7.184550, 2.425476, 2.904387, 3.648863, 1.039595, -78.768860, -53.521133, -636.976379
1733469462.923491, 5.730821, 6.554127, 3.260903, 2.777331, 3.470301, 1.523030, -77.992691, -53.574265, -638.065063
1733469462.933492, 5.376629, 6.149507, 3.844040, 2.687230, 3.210336, 1.941990, -77.732773, -53.015076, -639.181519
1733469462.943486, 4.933402, 5.750573, 4.393659, 2.621664, 2.907101, 2.295704, -77.355164, -52.647903, -639.572510
1733469462.953494, 4.662109, 5.296872, 4.918738, 2.594565, 2.557442, 2.649218, -76.976425, -51.831284, -640.091003
1733469462.963483, 4.566940, 5.009418, 5.278018, 2.617311, 2.237589, 3.037929, -76.685776, -50.904266, -640.822998
1733469462.973485, 4.083461, 4.859182, 5.666477, 2.671964, 1.998911, 3.462604, -76.567490, -50.096542, -641.313538
1733469462.983483, 3.434183, 4.710891, 6.555773, 2.676390, 1.792703, 3.917887, -76.258301, -48.911896, -641.884277
1733469462.993481, 2.739715, 4.490624, 7.823204, 2.553374, 1.614015, 4.358796, -75.933914, -47.517975, -642.422180
1733469463.003478, 1.656039, 4.218733, 9.129689, 2.244172, 1.536329, 4.756848, -75.797180, -45.728683, -642.099609
1733469463.013529, 0.326360, 3.920505, 10.289830, 1.741897, 1.565877, 5.094285, -75.410812, -43.733643, -643.004333
1733469463.023479, -1.021726, 3.686472, 11.421988, 1.119568, 1.589940, 5.389431, -74.808319, -41.476410, -644.291138
1733469463.033501, -2.406622, 3.496582, 12.394183, 0.421477, 1.541854, 5.624274, -74.178711, -38.899048, -644.774963
1733469463.043482, -4.226514, 3.139995, 12.695254, -0.256590, 1.468582, 5.765756, -73.428711, -36.316330, -645.533142
1733469463.053490, -5.915324, 2.784905, 12.458228, -0.844817, 1.391757, 5.858919, -72.621582, -33.322067, -645.824646
1733469463.063492, -7.281216, 2.623746, 12.213571, -1.377236, 1.280142, 5.906586, -71.448990, -30.369614, -646.114014
1733469463.073483, -8.570344, 2.574066, 12.222699, -1.890348, 1.112952, 5.899289, -70.168030, -27.317673, -645.932739
1733469463.083479, -9.711780, 2.792387, 11.988516, -2.387457, 0.942176, 5.872402, -68.944702, -24.172424, -646.222595
1733469463.093536, -10.985645, 3.162591, 11.468226, -2.853637, 0.855354, 5.839082, -67.644363, -21.117828, -646.098083
1733469463.103477, -12.929736, 3.269582, 11.097274, -3.368798, 0.795640, 5.693616, -65.961548, -18.138123, -644.485596
1733469463.113475, -15.027805, 3.576788, 11.080066, -3.915326, 0.621948, 5.451862, -64.363846, -14.772980, -644.323975
1733469463.123479, -16.885556, 4.440496, 10.271275, -4.335529, 0.426394, 5.154091, -62.577469, -11.926041, -642.668152
1733469463.133523, -18.606987, 5.308244, 9.278130, -4.634212, 0.166816, 4.849661, -60.823151, -9.072235, -641.601562
1733469463.143491, -20.333057, 6.171354, 8.642170, -4.903611, -0.124315, 4.554557, -58.971146, -6.358566, -639.426270
1733469463.152614, -21.848287, 6.974758, 7.975535, -5.219144, -0.354469, 4.316519, -58.971146, -6.358566, -639.426270
1733469463.163489, -23.792379, 7.776666, 6.980295, -5.629433, -0.434036, 3.996257, -56.283279, -1.407410, -634.863159
1733469463.173490, -25.978135, 8.410232, 5.581632, -6.127299, -0.371777, 3.556572, -54.613449, 0.610886, -632.157166
1733469463.183493, -27.598112, 9.313893, 3.827281, -6.585505, -0.290682, 3.057487, -53.345322, 2.377350, -629.326782
1733469463.193487, -29.053488, 10.804733, 1.858798, -6.894511, -0.207602, 2.548593, -52.387802, 3.793839, -626.102905
1733469463.203502, -30.735115, 12.628067, -0.334739, -7.119128, -0.048263, 1.999905, -51.750229, 5.118164, -622.154297
1733469463.213482, -32.272192, 14.181754, -2.472163, -7.344100, 0.167657, 1.398273, -51.219635, 5.731277, -619.407471
1733469463.223489, -33.548302, 15.259744, -4.846912, -7.537991, 0.409341, 0.702297, -51.469528, 5.863510, -616.758057
1733469463.233469, -34.751239, 16.407913, -7.836970, -7.553749, 0.707782, -0.113159, -52.268814, 5.691437, -613.199890
1733469463.243486, -34.892347, 17.029507, -10.987590, -7.280461, 0.961726, -0.981101, -52.786926, 5.156586, -610.250610
1733469463.253494, -33.906534, 17.225233, -13.682414, -6.708611, 1.111702, -1.782558, -52.786926, 5.156586, -610.250610
1733469463.263494, -32.071229, 17.594389, -15.751902, -5.896896, 1.180511, -2.424151, -54.203156, 4.114731, -608.193726
1733469463.273484, -29.923331, 17.878102, -16.998832, -5.000365, 1.206196, -2.886458, -55.613510, 3.014603, -606.369263
1733469463.283496, -27.835737, 17.763929, -17.225682, -4.193589, 1.234382, -3.258703, -57.590775, 1.801651, -605.462524
1733469463.293491, -26.309882, 17.696143, -16.511462, -3.639426, 1.281290, -3.609158, -59.226776, 0.240646, -603.973145
1733469463.303485, -24.934114, 18.181867, -15.855301, -3.293335, 1.373716, -3.926617, -60.734177, -1.093277, -603.960632
1733469463.313487, -23.330448, 18.685098, -15.737387, -3.002858, 1.480217, -4.173476, -62.852890, -2.680679, -602.610046
1733469463.323482, -21.836316, 19.027918, -16.230742, -2.674005, 1.593815, -4.388270, -64.911102, -4.584991, -603.060547
1733469463.333483, -20.594324, 19.084780, -17.046865, -2.267348, 1.697484, -4.621279, -66.961029, -6.415100, -602.701111
1733469463.343478, -19.393482, 19.130569, -17.951125, -1.776072, 1.845473, -4.851240, -68.861420, -8.315781, -602.857056
1733469463.353494, -18.027590, 19.367595, -18.646491, -1.277841, 2.093744, -5.055440, -70.844223, -10.456223, -603.377625
1733469463.363484, -16.527473, 19.547310, -18.987964, -0.768248, 2.404525, -5.235654, -73.000916, -12.734970, -604.373596
1733469463.373485, -14.840160, 19.701137, -18.956541, -0.209633, 2.690570, -5.367147, -74.961258, -14.833847, -605.254089
1733469463.383481, -12.897265, 19.864093, -18.634820, 0.411863, 2.875242, -5.433497, -76.503632, -17.230911, -607.294250
1733469463.393492, -10.932074, 20.159178, -17.786075, 1.077169, 2.881270, -5.424499, -78.603317, -19.673996, -608.454529
1733469463.403473, -8.893262, 20.308367, -16.503980, 1.764629, 2.655658, -5.342122, -79.828705, -22.253326, -610.221008
1733469463.413492, -6.944980, 20.227712, -15.073145, 2.411374, 2.313710, -5.180479, -81.031464, -24.704224, -611.802368
1733469463.423490, -5.212776, 19.867235, -13.789255, 2.956134, 1.991298, -4.950236, -82.122513, -27.231689, -613.724121
1733469463.433485, -3.780744, 19.062484, -12.656648, 3.367661, 1.763380, -4.677383, -82.458908, -29.251328, -614.674622
1733469463.443476, -2.827851, 17.986590, -11.719767, 3.677511, 1.712410, -4.390694, -83.131042, -31.632660, -615.637939
1733469463.453487, -2.084751, 16.878074, -11.163414, 3.926988, 1.839704, -4.096362, -83.798630, -33.828583, -617.110901
1733469463.463489, -1.255609, 15.742774, -10.648810, 4.149849, 2.092970, -3.800479, -84.156540, -35.962769, -618.487488
1733469463.473482, -0.471658, 14.663138, -9.918130, 4.340446, 2.407275, -3.498694, -84.252899, -37.979950, -620.165100
1733469463.483471, 0.228796, 13.813945, -8.914660, 4.503775, 2.723913, -3.205505, -83.994507, -40.005463, -621.421387
1733469463.493487, 0.969352, 13.096433, -7.418883, 4.636078, 2.935118, -2.904314, -84.132095, -41.774094, -622.874390
1733469463.503468, 1.712752, 12.687623, -5.475390, 4.699339, 2.936374, -2.589479, -84.171509, -43.537308, -624.504211
1733469463.513526, 2.533365, 12.121244, -3.465457, 4.687600, 2.714078, -2.260492, -83.638382, -45.305984, -625.742126
1733469463.523466, 3.376124, 11.569231, -2.117522, 4.625798, 2.467200, -1.911001, -83.315948, -46.684631, -626.862366
1733469463.533479, 4.062661, 10.852318, -1.529147, 4.538106, 2.313854, -1.540869, -83.107758, -47.820892, -627.047302
1733469463.543476, 4.433463, 10.209026, -1.065270, 4.433110, 2.232814, -1.145456, -82.827805, -48.859497, -627.903076
1733469463.553470, 4.588637, 9.478794, -0.518794, 4.331061, 2.225868, -0.757367, -82.821945, -49.784515, -628.595764
1733469463.563534, 4.756381, 8.457068, 0.094272, 4.218215, 2.252876, -0.388819, -82.496536, -50.522949, -628.684753
1733469463.573465, 5.051766, 7.560440, 0.664541, 4.043088, 2.391878, -0.028001, -81.925842, -51.094696, -630.027344
1733469463.583465, 5.110124, 7.002890, 1.045518, 3.835864, 2.664403, 0.350777, -81.684860, -51.374954, -630.096069
1733469463.593521, 4.892551, 6.749853, 1.512238, 3.646731, 3.023494, 0.759642, -81.252304, -51.379349, -631.312866
1733469463.603465, 4.754136, 6.536470, 2.444181, 3.459979, 3.293392, 1.199334, -80.910461, -51.407837, -632.268494
1733469463.613464, 4.755034, 6.445041, 4.311209, 3.255164, 3.236664, 1.658740, -80.575531, -51.225433, -634.009399
1733469463.623515, 4.794389, 6.327875, 6.365135, 3.074355, 2.843791, 2.132646, -80.202911, -50.658173, -634.593140
1733469463.633464, 4.673033, 6.081871, 7.894281, 2.907630, 2.304089, 2.573352, -80.121826, -49.944946, -634.975037
1733469463.643465, 4.279187, 5.675754, 8.905532, 2.692633, 1.741865, 2.984799, -79.695969, -48.698349, -635.805664
1733469463.652621, 3.721786, 5.268141, 9.325715, 2.458863, 1.294806, 3.411525, -79.569183, -47.650696, -635.784058
1733469463.663485, 2.673126, 4.614076, 8.639028, 2.281450, 1.217580, 3.816414, -79.472519, -46.287979, -636.239136
1733469463.673476, 1.222838, 3.874417, 7.836521, 2.098118, 1.502087, 4.181615, -79.132584, -44.525452, -636.825806
1733469463.683489, -0.134823, 3.218406, 8.344092, 1.795921, 1.894443, 4.489919, -78.985855, -42.727722, -637.727783
1733469463.693469, -1.346589, 2.389413, 9.799916, 1.309619, 2.178328, 4.711247, -78.246201, -40.809280, -638.683044
1733469463.703469, -2.291401, 1.959953, 11.390115, 0.726505, 2.261471, 4.886304, -77.528641, -38.679489, -639.210938
1733469463.713473, -3.310582, 1.710208, 12.780697, 0.092891, 2.123791, 4.999388, -76.811371, -36.260925, -640.854614
1733469463.722476, -4.546140, 1.263241, 13.643059, -0.539910, 1.824241, 5.040668, -75.670700, -33.779724, -641.570435
1733469463.733466, -6.764817, 0.914435, 13.268666, -1.525542, 1.148515, 5.180804, -74.650314, -31.274811, -642.113525
1733469463.743498, -6.764817, 0.914435, 13.268666, -1.859415, 0.901816, 5.334427, -73.452896, -28.445892, -642.603210
1733469463.753464, -8.966285, 1.569848, 11.722311, -2.123624, 0.820820, 5.523646, -72.419189, -25.459503, -642.509155
1733469463.763484, -10.743531, 2.120365, 11.609484, -2.481131, 0.892230, 5.663662, -70.736725, -22.742401, -642.272888
1733469463.773467, -13.186215, 2.235586, 12.243349, -3.059983, 1.006427, 5.697228, -69.195999, -19.724976, -642.679993
1733469463.783476, -15.740679, 2.359635, 13.105112, -3.822277, 0.982477, 5.603588, -67.440994, -16.499451, -641.562012
1733469463.793474, -18.646641, 2.891597, 13.327922, -4.592015, 0.792781, 5.360779, -65.497772, -13.299133, -641.081665
1733469463.803462, -21.796363, 3.674052, 12.592004, -5.261542, 0.509513, 4.973123, -63.715317, -10.344452, -639.027588
1733469463.813458, -25.081357, 4.795287, 11.190349, -5.837310, 0.236851, 4.425839, -62.122467, -7.426865, -637.792542
1733469463.823454, -27.809400, 6.154295, 9.307609, -6.354247, 0.008352, 3.792037, -60.023270, -4.898880, -635.597961
1733469463.833466, -29.614329, 7.674913, 6.929867, -6.771282, -0.127457, 3.164774, -58.369186, -2.405121, -633.618530
1733469463.843466, -31.069256, 9.222614, 4.083610, -7.074045, -0.174698, 2.537622, -57.327393, -0.387970, -630.465332
1733469463.853461, -32.651973, 10.179996, 1.312322, -7.292509, -0.136707, 1.835629, -56.270554, 1.284515, -627.331360
1733469463.863458, -34.441638, 10.812364, -1.599177, -7.433501, 0.012526, 0.994028, -56.067215, 2.348892, -624.224304
1733469463.873461, -35.761292, 11.881076, -4.497059, -7.444699, 0.240714, 0.080758, -55.481659, 3.085602, -621.412537
1733469463.883456, -35.582326, 13.172000, -7.080402, -7.305926, 0.414164, -0.764979, -55.576141, 3.391785, -617.960083
1733469463.893473, -34.464383, 14.290690, -9.542839, -6.965355, 0.561636, -1.481004, -56.067642, 3.161880, -614.887146
1733469463.903464, -32.771533, 15.323489, -11.911453, -6.448462, 0.717367, -2.031184, -57.073151, 2.498688, -612.039001
1733469463.913458, -30.998776, 15.969624, -13.648595, -5.876574, 0.835312, -2.452196, -57.908112, 1.680573, -610.315491
1733469463.923457, -29.576621, 16.478093, -14.898818, -5.335945, 0.980249, -2.805893, -59.360794, 0.556427, -608.529663
1733469463.933456, -28.437130, 17.425000, -15.932065, -4.874606, 1.196656, -3.147742, -60.741760, -0.670074, -606.621033
1733469463.943454, -27.049690, 18.023251, -16.720057, -4.461284, 1.373267, -3.480485, -62.509781, -2.067474, -604.929871
1733469463.953454, -25.201965, 18.106000, -17.748965, -3.969906, 1.512553, -3.770026, -64.004776, -3.711151, -604.671021
1733469463.963455, -23.323864, 18.400786, -18.826655, -3.377703, 1.607531, -3.984226, -65.801453, -5.377502, -603.896729
1733469463.973451, -21.549611, 18.887408, -19.581577, -2.725333, 1.665099, -4.120826, -67.306763, -7.107727, -603.485779
1733469463.983451, -19.982606, 19.048717, -20.200179, -2.047176, 1.757979, -4.221386, -69.395920, -8.813065, -603.473206
1733469463.993454, -18.752884, 18.895040, -20.605697, -1.364948, 1.901973, -4.349649, -71.378815, -10.800964, -604.094238
1733469464.003454, -17.447894, 18.684499, -20.552575, -0.689081, 2.048474, -4.509658, -72.956085, -12.640335, -604.577209
1733469464.013453, -15.984438, 18.455554, -20.098275, -0.043941, 2.175073, -4.679852, -74.710922, -14.623810, -606.140076
1733469464.023470, -14.378827, 18.347665, -19.389293, 0.552483, 2.299679, -4.843515, -76.495178, -16.706924, -607.071106
1733469464.033471, -12.641983, 18.266562, -18.581399, 1.114804, 2.444217, -4.968922, -78.163300, -18.931351, -608.579712
1733469464.042737, -10.783634, 18.347964, -17.506552, 1.643842, 2.547289, -5.027889, -79.687820, -21.250229, -610.316162
1733469464.053455, -8.814852, 18.558505, -15.899744, 2.155004, 2.498634, -4.998881, -80.613525, -23.755539, -611.829407
1733469464.063455, -6.853103, 18.624794, -14.086585, 2.617225, 2.312668, -4.891465, -81.938309, -26.039520, -613.727295
1733469464.073465, -5.148880, 18.349162, -12.559683, 3.008502, 2.093922, -4.735517, -82.579697, -28.528152, -615.030823
1733469464.083461, -3.644873, 17.653197, -11.422586, 3.326650, 1.935816, -4.533508, -83.594635, -30.727524, -616.476440
1733469464.093449, -2.321627, 16.782905, -10.404901, 3.576218, 1.865214, -4.276680, -83.956940, -33.038620, -617.842773
1733469464.103451, -1.229273, 15.721525, -9.576807, 3.759767, 1.899256, -3.995355, -84.226334, -35.480606, -618.317261
1733469464.113447, -0.378583, 14.521881, -8.826673, 3.911534, 1.986402, -3.711665, -84.743958, -37.538437, -620.077759
1733469464.123451, 0.408062, 13.263279, -8.253112, 4.080416, 2.165188, -3.436734, -84.648834, -39.521622, -621.018860
1733469464.133447, 0.991349, 12.093861, -7.529016, 4.221134, 2.362686, -3.187515, -84.598999, -41.702087, -622.282776
1733469464.143455, 1.598429, 11.139173, -6.514772, 4.324049, 2.527555, -2.945590, -84.560318, -43.550934, -623.645752
1733469464.153455, 2.237082, 10.474183, -5.306299, 4.391891, 2.630532, -2.693491, -84.379074, -45.334656, -624.816101
1733469464.163454, 2.864962, 10.019135, -4.190751, 4.454330, 2.672123, -2.404514, -83.914825, -47.037613, -625.657837
1733469464.173450, 3.699341, 9.756821, -2.923620, 4.514272, 2.684590, -2.057267, -83.469299, -48.728775, -626.839417
1733469464.183448, 4.519654, 9.320627, -1.360206, 4.473065, 2.578147, -1.691065, -83.221039, -50.087433, -627.748169
1733469464.193444, 5.180304, 8.653842, 0.301520, 4.310761, 2.367214, -1.298987, -82.678131, -51.348206, -628.309448
1733469464.203505, 5.732168, 8.198046, 1.324891, 4.109537, 2.163980, -0.864514, -82.485077, -52.432220, -628.013794
1733469464.213444, 6.304532, 7.728184, 1.734150, 3.970354, 2.025395, -0.385145, -82.157501, -52.952850, -628.919861
1733469464.223457, 6.724415, 7.035511, 2.171391, 3.837052, 1.925841, 0.103025, -81.695938, -53.459930, -629.381470
1733469464.233442, 6.761824, 6.338200, 2.644994, 3.642388, 1.928890, 0.575951, -81.609924, -53.728806, -629.864197
1733469464.243446, 6.553379, 5.695058, 2.962226, 3.433976, 2.028235, 1.028376, -81.443100, -53.659073, -630.482239
1733469464.253451, 6.479159, 5.158906, 3.360412, 3.234336, 2.134422, 1.477656, -81.212006, -53.326889, -630.785461
1733469464.263444, 6.314557, 4.949264, 4.133440, 3.058664, 2.133335, 1.925179, -81.201569, -52.936523, -631.232300
1733469464.272882, 5.858163, 4.758027, 4.802320, 2.952535, 2.083081, 2.364771, -81.359085, -52.202667, -631.904175
1733469464.283456, 5.168483, 4.356998, 5.709423, 2.877810, 1.936275, 2.768747, -81.234894, -51.579239, -632.305542
1733469464.293446, 4.526388, 3.971382, 7.059453, 2.755741, 1.680861, 3.132397, -81.146194, -50.533997, -633.169617
1733469464.303442, 3.933973, 3.719542, 8.478916, 2.556152, 1.356143, 3.475031, -81.022308, -49.331619, -632.541626
1733469464.313464, 3.219004, 3.398120, 9.592219, 2.278244, 1.040348, 3.796485, -81.044342, -47.734238, -633.754517
1733469464.323440, 2.561048, 3.191022, 10.277859, 1.963291, 0.795919, 4.134230, -81.017792, -45.991241, -633.608154
1733469464.333448, 1.710208, 2.968810, 10.676793, 1.625817, 0.681004, 4.491040, -80.896759, -44.029266, -633.901733
1733469464.343502, 0.480486, 2.573617, 11.042507, 1.247502, 0.686438, 4.849588, -80.374756, -42.095230, -634.492920
1733469464.353441, -0.979378, 2.435502, 11.590929, 0.840047, 0.794546, 5.227208, -79.988815, -39.582733, -634.784546
1733469464.363439, -2.939182, 2.172139, 12.062886, 0.344260, 1.074183, 5.541382, -79.450928, -36.836853, -635.234253
1733469464.373438, -5.272182, 1.487847, 12.854768, -0.333013, 1.415634, 5.729381, -78.991837, -33.990067, -635.793762
1733469464.383450, -7.231237, 1.077241, 13.632584, -1.130840, 1.699694, 5.817367, -77.671524, -31.007126, -636.752930
1733469464.393440, -8.898948, 0.989703, 14.062942, -1.887084, 1.787745, 5.847760, -76.434250, -27.841187, -637.182678
1733469464.403453, -10.436175, 1.195904, 13.863924, -2.474190, 1.723811, 5.859058, -74.924759, -24.745819, -636.955078
1733469464.413444, -12.347048, 1.323994, 13.515268, -2.957864, 1.543086, 5.789581, -73.224457, -21.600464, -637.617615
1733469464.423436, -14.573506, 1.698985, 13.451373, -3.409836, 1.285238, 5.640899, -71.626907, -18.260406, -637.159912
1733469464.433439, -16.637158, 2.247407, 13.294553, -3.908883, 0.996942, 5.414889, -70.220566, -15.266327, -636.709290
1733469464.443441, -18.359786, 3.089268, 12.671911, -4.448764, 0.758133, 5.157192, -67.923553, -12.367065, -635.570740
1733469464.452638, -19.830275, 4.149002, 11.629984, -4.974440, 0.579666, 4.935623, -66.248657, -9.392624, -633.984070
1733469464.463439, -21.773169, 5.037700, 10.449044, -5.494458, 0.454117, 4.644976, -64.413620, -6.733398, -632.228271
1733469464.473443, -24.174404, 5.734263, 9.149142, -5.999991, 0.384025, 4.236588, -62.808777, -4.466095, -630.290222
1733469464.483443, -26.302999, 6.537667, 7.491756, -6.460706, 0.433223, 3.728102, -61.145508, -2.360809, -627.842102
1733469464.493441, -28.583476, 8.035689, 5.882404, -6.948967, 0.443297, 3.059169, -59.898499, -0.565475, -625.276184
1733469464.503439, -30.923958, 9.798570, 4.373458, -7.384578, 0.293802, 2.242904, -59.051682, 0.631927, -621.588745
1733469464.513456, -32.564135, 10.971130, 1.656039, -7.611020, 0.111786, 1.350039, -58.635788, 1.517120, -619.110474
1733469464.523444, -33.704673, 11.955745, -1.582118, -7.580768, -0.031373, 0.435565, -58.360306, 1.716949, -615.805420
1733469464.533437, -34.126801, 13.111097, -4.781969, -7.349397, -0.115809, -0.394743, -58.428268, 1.647079, -613.352478
1733469464.543434, -33.761087, 13.838635, -7.873332, -6.967539, -0.068299, -1.124020, -59.045700, 1.246704, -610.039185
1733469464.553452, -32.944963, 14.791976, -10.449344, -6.481747, 0.065261, -1.710120, -59.715714, 0.357376, -607.771362
1733469464.563435, -31.687259, 16.023644, -12.477681, -5.951653, 0.314372, -2.146090, -60.458038, -0.699722, -605.646362
1733469464.573437, -30.191631, 16.822708, -14.044537, -5.433307, 0.638792, -2.456778, -61.515945, -2.130051, -604.041931
1733469464.583436, -28.507909, 17.328633, -15.108011, -4.938657, 0.946727, -2.694535, -62.996063, -3.567398, -602.887146
1733469464.593432, -27.150247, 17.869274, -15.479860, -4.505800, 1.110417, -2.928369, -64.505234, -4.875397, -601.875366
1733469464.603435, -25.937883, 18.070985, -15.861137, -4.092981, 1.154060, -3.155959, -65.880249, -6.647079, -600.462463
1733469464.613434, -24.920198, 18.173637, -16.868348, -3.638252, 1.238043, -3.383159, -67.455154, -8.108307, -600.234314
1733469464.623433, -23.872884, 17.998112, -18.379388, -3.139193, 1.480397, -3.608462, -69.140732, -9.861069, -600.377319
1733469464.633191, -22.692842, 17.621025, -19.621380, -2.564273, 1.855882, -3.785335, -70.375748, -11.764359, -600.788330
1733469464.643435, -21.279365, 17.402404, -20.428077, -1.902003, 2.282691, -3.925375, -72.518494, -13.378082, -601.313232
1733469464.653443, -19.910181, 17.045219, -20.522199, -1.186070, 2.637755, -4.088681, -73.808746, -15.340408, -601.875977
1733469464.663433, -18.546534, 16.845453, -20.002358, -0.466233, 2.888875, -4.283733, -75.794998, -17.240936, -603.443298
1733469464.673444, -17.027113, 17.000627, -18.895040, 0.181483, 2.994013, -4.505023, -77.293579, -19.651611, -604.869995
1733469464.683435, -15.401600, 17.405846, -17.491140, 0.768816, 2.985362, -4.717578, -78.902161, -21.709137, -606.855347
1733469464.693438, -13.633632, 17.810017, -16.181960, 1.318214, 2.880869, -4.886311, -80.227386, -23.967163, -608.567261
1733469464.703425, -11.715128, 18.010083, -14.949994, 1.837612, 2.697849, -5.002177, -81.406845, -26.420853, -609.410156
1733469464.713450, -9.771336, 18.091486, -13.691093, 2.306819, 2.422761, -5.044390, -82.398438, -29.062668, -612.076416
1733469464.723454, -7.721001, 18.010981, -12.499079, 2.726272, 2.143826, -4.998332, -82.932114, -31.505112, -613.162292
1733469464.733426, -5.658247, 17.762283, -11.736825, 3.078744, 2.010870, -4.831680, -83.459183, -33.757660, -614.369873
1733469464.743441, -3.758148, 17.329980, -11.156232, 3.340565, 2.078050, -4.537904, -83.813461, -36.031036, -616.055298
1733469464.753388, -2.190545, 16.729035, -10.612448, 3.548145, 2.307027, -4.159306, -83.813461, -36.031036, -616.055298
1733469464.763491, -1.034295, 15.878046, -9.988160, 3.744100, 2.589636, -3.749037, -84.140503, -38.363815, -617.277283
1733469464.773419, -0.045041, 14.698902, -9.200169, 3.975770, 2.817382, -3.349484, -84.519409, -40.298660, -618.773254
1733469464.783445, 0.783951, 13.453468, -8.162282, 4.248106, 2.958114, -2.990247, -84.560135, -42.233154, -620.547913
1733469464.793439, 1.474379, 12.284050, -6.722469, 4.485416, 2.958914, -2.671441, -84.326584, -44.106522, -621.384033
1733469464.803493, 2.051232, 11.339388, -4.941183, 4.625609, 2.851916, -2.391320, -84.523865, -45.687195, -623.059937
1733469464.813426, 2.561945, 10.755652, -3.390938, 4.653797, 2.735292, -2.114624, -84.093674, -47.329590, -623.494324
1733469464.823419, 3.040786, 10.352678, -2.134281, 4.582190, 2.639262, -1.825563, -83.914642, -48.672638, -624.796814
1733469464.833417, 3.599233, 9.928904, -0.915184, 4.458302, 2.530779, -1.492194, -83.533646, -50.141846, -625.707703
1733469464.843429, 4.152294, 9.540295, 0.066140, 4.287417, 2.451684, -1.127825, -82.888596, -51.160583, -626.298096
1733469464.853431, 4.465785, 8.920047, 0.569970, 4.071666, 2.468806, -0.755414, -82.672272, -52.133636, -626.870728
1733469464.863436, 4.629787, 8.131307, 0.851887, 3.870074, 2.526889, -0.398273, -82.148972, -52.777924, -627.667664
1733469464.873424, 4.671087, 7.264756, 1.014693, 3.747281, 2.657669, -0.065625, -81.958008, -53.516861, -628.421509
1733469464.883486, 4.595670, 6.451326, 1.336563, 3.621638, 2.833397, 0.241067, -81.648972, -53.903168, -629.361206
1733469464.893421, 4.576516, 5.798756, 2.288857, 3.448740, 2.897539, 0.527579, -81.562683, -54.141190, -629.887207
1733469464.903423, 4.770746, 5.393239, 3.454983, 3.259664, 2.809204, 0.820710, -81.204208, -54.224899, -631.253784
1733469464.913485, 5.168184, 5.155614, 4.506935, 3.083076, 2.575703, 1.150293, -80.954651, -54.417999, -631.654785
1733469464.923427, 5.675754, 5.132121, 5.320365, 2.949535, 2.284104, 1.584057, -80.356949, -54.024368, -631.929199
1733469464.933432, 6.190059, 5.344756, 5.796811, 2.853416, 2.052008, 2.150556, -80.056824, -53.679520, -632.393066
1733469464.943438, 6.451176, 5.349395, 6.186318, 2.746196, 1.899247, 2.792121, -79.867004, -52.681046, -632.955933
1733469464.953424, 6.254702, 5.141847, 6.595277, 2.604214, 1.870447, 3.478164, -79.852875, -51.580902, -633.559448
1733469464.963427, 5.498583, 4.837185, 6.689399, 2.418395, 2.038833, 4.136348, -79.905304, -50.181396, -633.919373
1733469464.973420, 4.118625, 4.399346, 7.078906, 2.125172, 2.318855, 4.689335, -79.608002, -48.492142, -634.911011
1733469464.983421, 2.554015, 4.031985, 8.236952, 1.736961, 2.517733, 5.163743, -79.262543, -46.502304, -636.193604
1733469464.993417, 0.872687, 3.990236, 9.592519, 1.314664, 2.638958, 5.566282, -79.213470, -44.005432, -637.080444
1733469465.003418, -0.896928, 3.625121, 11.117026, 0.776935, 2.637918, 5.884892, -78.567322, -41.531418, -638.207275
1733469465.013432, -2.366519, 3.422362, 12.478280, 0.151354, 2.530104, 6.167504, -77.285614, -38.789871, -639.435547
1733469465.023433, -3.970484, 3.338265, 13.488932, -0.547840, 2.298939, 6.364123, -76.339447, -35.826630, -640.548584
1733469465.033423, -5.540781, 3.038691, 13.639468, -1.197213, 1.992134, 6.503505, -75.345428, -32.539398, -641.332764
1733469465.043443, -6.971017, 2.872892, 12.764387, -1.655419, 1.731337, 6.601549, -74.200577, -29.312790, -642.189026
1733469465.053418, -8.891018, 2.740164, 12.035053, -2.021900, 1.494742, 6.581783, -72.636307, -25.833435, -642.461731
1733469465.063420, -10.934768, 2.872593, 12.181698, -2.414147, 1.266035, 6.494371, -71.087997, -22.583969, -642.087769
1733469465.073414, -13.368624, 3.149123, 12.983905, -2.945889, 0.950433, 6.271919, -69.083969, -19.535675, -641.803223
1733469465.083423, -15.779136, 3.546262, 13.505243, -3.552759, 0.669225, 6.002670, -67.138733, -16.160400, -641.398560
1733469465.093421, -17.572393, 4.282329, 12.900108, -4.138564, 0.562548, 5.807859, -65.173248, -12.677841, -640.258911
1733469465.103414, -19.610307, 4.782717, 12.159103, -4.756823, 0.510490, 5.583136, -63.117294, -9.700485, -639.173035
1733469465.113418, -22.482751, 5.428403, 11.395951, -5.373556, 0.451456, 5.205117, -60.884705, -6.726959, -637.431396
1733469465.123419, -25.849597, 6.042217, 10.083629, -5.937064, 0.384719, 4.624139, -58.867645, -4.145187, -635.558472
1733469465.133421, -28.738949, 6.588394, 8.752752, -6.480816, 0.202734, 3.871879, -57.345749, -1.672272, -632.903381
1733469465.143426, -30.944308, 7.127089, 6.996157, -6.918412, -0.043021, 3.013011, -56.064301, 0.509491, -630.626770
1733469465.153421, -32.782756, 8.131307, 4.265270, -7.169432, -0.274183, 2.118494, -54.887466, 2.071823, -627.561646
1733469465.163421, -33.816004, 9.613917, 1.515230, -7.268688, -0.503406, 1.279774, -54.208710, 3.312164, -624.083252
1733469465.173415, -34.318786, 11.234193, -1.311424, -7.240828, -0.583198, 0.516117, -54.015976, 4.061264, -620.669861
1733469465.183414, -34.706647, 12.685079, -4.169801, -7.150753, -0.393292, -0.194326, -53.851868, 4.619736, -617.440674
1733469465.193420, -34.791042, 14.149283, -6.152799, -7.094824, -0.168101, -0.882169, -54.249451, 4.405289, -614.142090
1733469465.203415, -34.658763, 16.451906, -7.857620, -6.996207, 0.043464, -1.514664, -55.002579, 3.893341, -610.290344
1733469465.213414, -33.865234, 19.077148, -10.110714, -6.788362, 0.305273, -1.995848, -55.974838, 3.231003, -608.233459
1733469465.223412, -32.110434, 20.525341, -12.686426, -6.472775, 0.617665, -2.340369, -57.399536, 1.925537, -605.739197
1733469465.233413, -30.466815, 20.667198, -15.175946, -5.994701, 0.945972, -2.673310, -58.508514, 0.594101, -603.880310
1733469465.243410, -29.390322, 20.862475, -17.201740, -5.411088, 1.153592, -3.049879, -60.073380, -0.837158, -601.896606
1733469465.253413, -28.156859, 20.623503, -19.219753, -4.677609, 1.316700, -3.448510, -61.888519, -2.404861, -601.109985
1733469465.263408, -26.656293, 20.044556, -21.131822, -3.786855, 1.494521, -3.813452, -63.634094, -4.089325, -600.637390
1733469465.273411, -25.025094, 19.505112, -22.156541, -2.879160, 1.706271, -4.144957, -65.566467, -6.130203, -600.559570
1733469465.283427, -23.309798, 19.165734, -22.211308, -2.042625, 1.939893, -4.441534, -67.783844, -7.852325, -600.712769
1733469465.293425, -21.273080, 18.822166, -21.753118, -1.276952, 2.233326, -4.665611, -69.756119, -9.658829, -601.270630
1733469465.303412, -19.213319, 18.576611, -20.641310, -0.596296, 2.479296, -4.820683, -71.961166, -11.740677, -601.445618
1733469465.313411, -17.060183, 18.421137, -19.032407, 0.006696, 2.588965, -4.932604, -73.791092, -13.912201, -603.515381
1733469465.323406, -14.824298, 18.321927, -17.330279, 0.539752, 2.566468, -5.008614, -75.712814, -16.067459, -605.232178
1733469465.333410, -12.652608, 18.197728, -15.884181, 0.996294, 2.492119, -5.035762, -77.339966, -18.148529, -606.310303
1733469465.343410, -10.706122, 18.067394, -14.611214, 1.374438, 2.394520, -5.018472, -79.128616, -20.267548, -607.879150
1733469465.353404, -9.005640, 17.749564, -13.556119, 1.681178, 2.296966, -4.981057, -80.181870, -22.831055, -608.856445
1733469465.363414, -7.459584, 17.369783, -13.004555, 1.992959, 2.260055, -4.894914, -81.451385, -25.142838, -610.827759
1733469465.373407, -6.003012, 17.019183, -12.548161, 2.347790, 2.224432, -4.771309, -82.457001, -27.521133, -612.433228
1733469465.383420, -4.403984, 16.611570, -11.750891, 2.697923, 2.178571, -4.583205, -83.104370, -29.549393, -612.964539
1733469465.393405, -2.936189, 16.098762, -10.945093, 3.022734, 2.143324, -4.324865, -83.692245, -31.868973, -614.686401
1733469465.403405, -1.703474, 15.441254, -10.232369, 3.326704, 2.202023, -4.012899, -83.791687, -34.082687, -615.740417
1733469465.413408, -0.476895, 14.631116, -9.610325, 3.582930, 2.361720, -3.650744, -84.158630, -35.991150, -617.677246
1733469465.423413, 0.525078, 13.777134, -8.778191, 3.788105, 2.572348, -3.267279, -84.225037, -37.758820, -619.449463
1733469465.433406, 1.183185, 13.019818, -7.752575, 3.931734, 2.759284, -2.894768, -84.821548, -39.616913, -621.325378
1733469465.443415, 1.780239, 12.239159, -6.636577, 4.069323, 2.870892, -2.531139, -84.447220, -41.032745, -622.371521
1733469465.453401, 2.355894, 11.694029, -5.640290, 4.196197, 2.951580, -2.161520, -84.164597, -42.631317, -624.015747
1733469465.463402, 2.681057, 11.266664, -4.622904, 4.266318, 2.988631, -1.800955, -84.164932, -43.797836, -625.003540
1733469465.473459, 2.735824, 10.779444, -3.465008, 4.257752, 2.938611, -1.469727, -83.471313, -44.885239, -626.510132
1733469465.483397, 2.558055, 10.429292, -2.460641, 4.227553, 2.810732, -1.164797, -83.451080, -45.978775, -627.791443
1733469465.493402, 2.371606, 10.309133, -2.007837, 4.222850, 2.633472, -0.874689, -82.678558, -47.068481, -628.233643
1733469465.503399, 2.229301, 9.875783, -2.096572, 4.354312, 2.401166, -0.587196, -82.361450, -47.906784, -628.565552
1733469465.513098, 2.218826, 9.651625, -2.707094, 4.657242, 2.256727, -0.283497, -82.427582, -48.624893, -630.189758
1733469465.523438, 2.136526, 9.496302, -3.141791, 5.036929, 2.203537, 0.007322, -81.682312, -49.204041, -630.148926
1733469465.533415, 2.161814, 9.168595, -2.766949, 5.406261, 2.270753, 0.327411, -81.243500, -49.795776, -630.953186
1733469465.543414, 2.191443, 9.223812, -1.953519, 5.676454, 2.527402, 0.689398, -81.086685, -50.372635, -632.021729
1733469465.553397, 2.218826, 9.437195, -0.262764, 5.815291, 2.825284, 1.125136, -80.737274, -50.795395, -632.461426
1733469465.563399, 2.448969, 9.539547, 2.504634, 5.779683, 2.986368, 1.628219, -80.247604, -50.916336, -632.947144
1733469465.573400, 2.713079, 9.506028, 5.707178, 5.524629, 2.916969, 2.172120, -80.123734, -50.526413, -633.629211
1733469465.583480, 2.689586, 9.068937, 8.783129, 5.113477, 2.657722, 2.704904, -80.421509, -50.105606, -634.694946
1733469465.593399, 2.328511, 8.157344, 11.622203, 4.516845, 2.247330, 3.164689, -80.012695, -49.364746, -634.967407
1733469465.603398, 1.917606, 7.088782, 13.983185, 3.694379, 1.768319, 3.537635, -79.687881, -48.269897, -634.669556
1733469465.613444, 1.604414, 6.052392, 14.892832, 2.793779, 1.484754, 3.905310, -79.490738, -46.696228, -636.146240
1733469465.623396, 1.381454, 5.342811, 14.371345, 1.966879, 1.504166, 4.322508, -79.425110, -44.519699, -636.543701
1733469465.633395, 0.933290, 4.919486, 13.562554, 1.252164, 1.679006, 4.790934, -79.135925, -42.502731, -637.680298
1733469465.643414, -0.362123, 4.160225, 13.015628, 0.587817, 1.943159, 5.180160, -78.414871, -40.091995, -638.574585
1733469465.653397, -2.496853, 3.052009, 12.483367, -0.038733, 2.218524, 5.420952, -77.787354, -37.506027, -639.730591
1733469465.663413, -4.694880, 1.936011, 11.748946, -0.545497, 2.446499, 5.522336, -76.840591, -35.055344, -640.927979
1733469465.673398, -6.744017, 0.891242, 11.107300, -0.924282, 2.544612, 5.444405, -75.724564, -32.422852, -642.116211
1733469465.683395, -8.498817, 0.045639, 11.440992, -1.267369, 2.399310, 5.207327, -74.640137, -29.661224, -642.696655
1733469465.693463, -10.023475, -0.564732, 12.547263, -1.667048, 1.994716, 4.825650, -73.439026, -27.183121, -643.107727
1733469465.703397, -11.101015, -0.827646, 13.547291, -2.088251, 1.432231, 4.447101, -71.982620, -24.925461, -642.608154
1733469465.713403, -11.513117, -0.424522, 14.061595, -2.533335, 0.807796, 4.207368, -70.681534, -22.104187, -642.476685
1733469465.723396, -11.860426, 0.429610, 14.106935, -3.015787, 0.307473, 4.118895, -69.493057, -19.790115, -642.061646
1733469465.733394, -12.515390, 1.487697, 13.359795, -3.498456, 0.010753, 4.176359, -67.922318, -16.842743, -640.661621
1733469465.743408, -13.526342, 3.048866, 12.542923, -3.959957, -0.143883, 4.353019, -66.377182, -14.019958, -639.538513
1733469465.753395, -15.295657, 4.639664, 11.469722, -4.410661, -0.118970, 4.584352, -64.959335, -11.209503, -638.394531
1733469465.763396, -18.012477, 5.865944, 10.329185, -4.907494, 0.173233, 4.763824, -63.075638, -8.302124, -636.983948
1733469465.773404, -21.590013, 6.497564, 9.531317, -5.602725, 0.638759, 4.730630, -61.125275, -5.472641, -634.749390
1733469465.783397, -25.184907, 7.156418, 9.061305, -6.474049, 1.076953, 4.483613, -59.410431, -2.898529, -632.945740
1733469465.793403, -27.912052, 8.016835, 8.063073, -7.390285, 1.395852, 4.038821, -57.830475, -0.497589, -630.293457
1733469465.803403, -30.446015, 9.254637, 6.544700, -8.265491, 1.236496, 3.326444, -56.360428, 1.208710, -626.394531
1733469465.813401, -33.223439, 11.299884, 3.438074, -8.738494, 0.750816, 2.448159, -55.452637, 2.805313, -623.331360
1733469465.823406, -34.922125, 12.690915, -1.603816, -8.771967, 0.419103, 1.494773, -54.802612, 3.798431, -619.537537
1733469465.833395, -35.433586, 13.581857, -6.872855, -8.469130, 0.444392, 0.609613, -54.762375, 4.004532, -616.556763
1733469465.843409, -34.427123, 14.546870, -11.656320, -7.899206, 0.801326, -0.093308, -55.135742, 3.856247, -613.415283
1733469465.853403, -32.820016, 15.814749, -14.617050, -7.227705, 1.125637, -0.671293, -55.893875, 3.790314, -610.771729
1733469465.862915, -31.243434, 17.506103, -15.735591, -6.602010, 1.179498, -1.184568, -56.957230, 3.012390, -608.697754
1733469465.873397, -30.373142, 18.868554, -16.581493, -6.010107, 1.069338, -1.772349, -58.124481, 1.802795, -606.261597
1733469465.883400, -29.905973, 19.546262, -18.206108, -5.392070, 1.015706, -2.423815, -59.772827, 0.785233, -604.831604
1733469465.893393, -29.064710, 20.000861, -19.912874, -4.785553, 1.054380, -3.080340, -60.977112, -0.765579, -603.658142
1733469465.903391, -27.461493, 20.390218, -21.499332, -4.136365, 1.216860, -3.601987, -63.079224, -2.338654, -602.194580
1733469465.913391, -25.183410, 20.866814, -23.267450, -3.323353, 1.483046, -3.908140, -64.726395, -3.901855, -602.880493
1733469465.923393, -22.388778, 20.911705, -24.731056, -2.360684, 1.813950, -4.050186, -66.919647, -5.542831, -602.894714
1733469465.933393, -19.741839, 20.545842, -25.017612, -1.400834, 2.093975, -4.116009, -68.965576, -7.167221, -604.007935
1733469465.943388, -17.604864, 20.189405, -24.024317, -0.519421, 2.251650, -4.173129, -71.000839, -8.724213, -605.132690
1733469465.953389, -15.621717, 19.515138, -22.502054, 0.265655, 2.301459, -4.250694, -72.861786, -10.519211, -606.460876
1733469465.963389, -13.886669, 18.726847, -20.659566, 0.928052, 2.253556, -4.333476, -74.715652, -12.123428, -607.836548
1733469465.973385, -12.142194, 18.027590, -18.880525, 1.476892, 2.196787, -4.408790, -76.411453, -14.223038, -609.519714
1733469465.983384, -10.650905, 17.445201, -17.204883, 1.923924, 2.147831, -4.480282, -77.546631, -16.188446, -610.669922
1733469465.993385, -9.264962, 16.916232, -15.737088, 2.281793, 2.130894, -4.550401, -78.960388, -18.082993, -612.686646
1733469466.003381, -7.942914, 16.598102, -14.535198, 2.603256, 2.131462, -4.580150, -80.046555, -20.493820, -613.712402
1733469466.013382, -6.532280, 16.227450, -13.524247, 2.934580, 2.183623, -4.542164, -81.434006, -22.543945, -615.890076
1733469466.023380, -5.005378, 15.658977, -12.654254, 3.251472, 2.262766, -4.451186, -82.161499, -24.912201, -618.101746
1733469466.033408, -3.685574, 15.181633, -11.444284, 3.530852, 2.300358, -4.333992, -83.017029, -27.142303, -618.923706
1733469466.043401, -2.467075, 14.773421, -9.917382, 3.785321, 2.231184, -4.188357, -83.271042, -29.358994, -620.754333
1733469466.053402, -1.269376, 14.276924, -8.492533, 3.981346, 2.161340, -4.008364, -83.688980, -31.461105, -621.970825
1733469466.063392, -0.255731, 13.440749, -7.543232, 4.094607, 2.216440, -3.792413, -83.679153, -33.921539, -623.837219
1733469466.073383, 0.718859, 12.651261, -6.927323, 4.135817, 2.465258, -3.511979, -83.784439, -35.815750, -625.186096
1733469466.083383, 1.577180, 11.874791, -6.385785, 4.143555, 2.786202, -3.196194, -83.913574, -37.798538, -626.746338
1733469466.093383, 2.299331, 11.095479, -5.783194, 4.208555, 3.088382, -2.857687, -83.773499, -39.598557, -628.368652
1733469466.103382, 3.192369, 10.823737, -4.627543, 4.355106, 3.182867, -2.470832, -83.319138, -41.505630, -629.508240
1733469466.113379, 4.126257, 10.520721, -2.995595, 4.451001, 3.098460, -2.064566, -83.255554, -42.851746, -631.170288
1733469466.123379, 4.769998, 9.765500, -1.535731, 4.484218, 2.904528, -1.693698, -82.444016, -44.479736, -632.586548
1733469466.133380, 5.364059, 9.023596, -0.378284, 4.472134, 2.680927, -1.330251, -82.052673, -45.799789, -633.474121
1733469466.143403, 5.945252, 8.271967, 0.594361, 4.414505, 2.512148, -0.959144, -81.645340, -46.538773, -634.149475
1733469466.153412, 6.376507, 7.550414, 1.399112, 4.296953, 2.448281, -0.558818, -81.075287, -47.480942, -635.048035
1733469466.163385, 6.747908, 7.123049, 2.424578, 3.875689, 2.419726, 0.362385, -80.619675, -48.021271, -635.701477
1733469466.173377, 7.133225, 6.808661, 3.430592, 3.654601, 2.374951, 0.922886, -80.085693, -48.515579, -637.210815
1733469466.183380, 7.594258, 6.536769, 4.370615, 3.654601, 2.374951, 0.922886, -79.711411, -48.407227, -637.379456
1733469466.193383, 7.722946, 6.324284, 5.485864, 3.418008, 2.261260, 1.519016, -79.711411, -48.407227, -637.379456
1733469466.203388, 6.508488, 5.303905, 7.420529, 2.827839, 1.913257, 2.571406, -79.613449, -48.056244, -637.893127
1733469466.213384, 5.872079, 4.799626, 8.188469, 2.487989, 1.683781, 3.026586, -79.082199, -46.519958, -639.187805
1733469466.223380, 5.267992, 4.392911, 8.940099, 2.145537, 1.383037, 3.446688, -79.082199, -46.519958, -639.187805
1733469466.233378, 4.771494, 4.272154, 9.815329, 1.847634, 1.033911, 3.913412, -78.896561, -45.534103, -639.275146
1733469466.243384, 3.963152, 4.206463, 10.324396, 1.531349, 0.777913, 4.365751, -78.685776, -44.042862, -639.712830
1733469466.253374, 2.736273, 3.892972, 10.653748, 1.152679, 0.696045, 4.805160, -78.345200, -42.427994, -640.276978
1733469466.263374, 1.572093, 3.809324, 10.974272, 0.701325, 0.758714, 5.247801, -77.756622, -40.263474, -640.535522
1733469466.273371, 0.334290, 3.653252, 11.353155, 0.192880, 0.890084, 5.662215, -77.322800, -37.980927, -640.075867
1733469466.283381, -0.965462, 3.306243, 11.817181, -0.332733, 0.990764, 6.049785, -76.550079, -35.530731, -641.115173
1733469466.293378, -2.467524, 3.103185, 12.198906, -0.872380, 1.066909, 6.371132, -75.999924, -32.773193, -641.528809
1733469466.303377, -4.401141, 3.020734, 12.339566, -1.437203, 1.136561, 6.570405, -74.887253, -29.744339, -641.775208
1733469466.313374, -6.299893, 3.020734, 12.233622, -1.995860, 1.217469, 6.684329, -73.576736, -26.515228, -641.332703
1733469466.323373, -8.087464, 3.448698, 11.990461, -2.526107, 1.286551, 6.726178, -72.076096, -23.016617, -642.071411
1733469466.333379, -10.105027, 3.695301, 11.840674, -3.032177, 1.298682, 6.660216, -70.544571, -19.873596, -642.421204
1733469466.343376, -12.100744, 3.988740, 11.523293, -3.468013, 1.276253, 6.532298, -68.130188, -16.490784, -641.860168
1733469466.353387, -14.226197, 4.734384, 10.994324, -3.843290, 1.290214, 6.372812, -65.353058, -13.163910, -641.339722
1733469466.363376, -16.475399, 5.562030, 10.563218, -4.230258, 1.369819, 6.176075, -62.886459, -9.928329, -640.531860
1733469466.373372, -19.406950, 6.416760, 10.735002, -4.724045, 1.367495, 5.822599, -60.693695, -6.868851, -639.130249
1733469466.383380, -22.553380, 7.061997, 11.134534, -5.355638, 1.213616, 5.259821, -58.209381, -4.023590, -638.075806
1733469466.393374, -25.595362, 7.466318, 10.686070, -5.999044, 0.996470, 4.482655, -55.843216, -1.471497, -636.083069
1733469466.402894, -28.165688, 8.332121, 9.227852, -6.566345, 0.770074, 3.541553, -53.938263, 0.752365, -633.715393
1733469466.413374, -30.192978, 9.892392, 7.656058, -7.047548, 0.485364, 2.559429, -52.320206, 2.742569, -630.541748
1733469466.423379, -31.593436, 12.129923, 5.586870, -7.397152, 0.218740, 1.635127, -50.502945, 4.236954, -627.848267
1733469466.433379, -32.685192, 14.693365, 3.024625, -7.631303, 0.061908, 0.781119, -49.859543, 5.424210, -624.273682
1733469466.443375, -33.268031, 16.350901, -0.187346, -7.749266, 0.175501, 0.024442, -49.357529, 6.392410, -620.783569
1733469466.453374, -33.443256, 18.060959, -3.782689, -7.796278, 0.586004, -0.702481, -49.326996, 6.960480, -617.037292
1733469466.463371, -33.024870, 20.640712, -6.705111, -7.757014, 0.978406, -1.366810, -49.681580, 6.803452, -613.564392
1733469466.473371, -31.551089, 22.871808, -9.266758, -7.533639, 1.180204, -1.930453, -50.665344, 6.452026, -610.099670
1733469466.483368, -29.779230, 24.378210, -12.091766, -7.088214, 1.233583, -2.404561, -51.780731, 5.736694, -607.161316
1733469466.493376, -28.055704, 24.861240, -15.104420, -6.443526, 1.298098, -2.776623, -53.117889, 4.494568, -605.077332
1733469466.503366, -26.270827, 24.419211, -18.183662, -5.627957, 1.512642, -3.076886, -54.738419, 3.460312, -602.599609
1733469466.513399, -24.606707, 24.187273, -20.259734, -4.761449, 1.752540, -3.299452, -56.707108, 1.883698, -601.052368
1733469466.523370, -22.823625, 24.242938, -21.042189, -3.924437, 1.937868, -3.472368, -58.620270, 0.402176, -599.692627
1733469466.533371, -21.338173, 24.128465, -21.414787, -3.091600, 2.043977, -3.619623, -60.585190, -1.259705, -598.974243
1733469466.543374, -19.819201, 23.519290, -21.754165, -2.207843, 2.087697, -3.743014, -62.250504, -2.660477, -598.980042
1733469466.553368, -18.529176, 22.494572, -22.126314, -1.301585, 2.177867, -3.913766, -64.347458, -4.231796, -598.890747
1733469466.563370, -17.287183, 21.513847, -21.896471, -0.506335, 2.300093, -4.119534, -66.482986, -5.644592, -600.006714
1733469466.573377, -15.668105, 20.576966, -21.050868, 0.191839, 2.406073, -4.319504, -68.374374, -7.444138, -600.856567
1733469466.583366, -13.901333, 19.830873, -19.954773, 0.837483, 2.463339, -4.488108, -70.603058, -8.975052, -602.238403
1733469466.593382, -12.055703, 19.379716, -18.478448, 1.409794, 2.445427, -4.611248, -72.463959, -10.527298, -603.523682
1733469466.603363, -10.247183, 19.040038, -16.773029, 1.871904, 2.377926, -4.679177, -74.204163, -12.455322, -605.169922
1733469466.613362, -8.561964, 18.599505, -15.121329, 2.203286, 2.324614, -4.709239, -76.146744, -14.185440, -607.060303
1733469466.623359, -7.265355, 18.105851, -13.597569, 2.425908, 2.314980, -4.688040, -77.375122, -16.186539, -608.783325
1733469466.633359, -6.282236, 17.666664, -12.667721, 2.643205, 2.437857, -4.619163, -78.961441, -18.164383, -610.137939
1733469466.643363, -5.305401, 17.055096, -11.925369, 2.901212, 2.539188, -4.530685, -79.859314, -20.333969, -612.190369
1733469466.653362, -4.216788, 16.453403, -10.618733, 3.215533, 2.453393, -4.417325, -81.550552, -22.616898, -613.460510
1733469466.663411, -3.014599, 15.764022, -9.659856, 3.549411, 2.338327, -4.273273, -82.257202, -24.758942, -615.178955
1733469466.673356, -1.899500, 15.307777, -8.782830, 3.882875, 2.191710, -4.084235, -82.579453, -26.936890, -617.164307
1733469466.683360, -0.817620, 14.817564, -7.898022, 4.171055, 2.115739, -3.841195, -83.562943, -29.061172, -618.780884
1733469466.693356, 0.168642, 14.098855, -7.289297, 4.397417, 2.164885, -3.557823, -83.898224, -31.078629, -620.394409
1733469466.703411, 1.187374, 13.513473, -6.532729, 4.581009, 2.313558, -3.205618, -84.334152, -33.197311, -621.015686
1733469466.713379, 2.152238, 13.045706, -5.330690, 4.709905, 2.447296, -2.796851, -84.393661, -34.970337, -622.878174
1733469466.723373, 2.979584, 12.508058, -3.689465, 4.750880, 2.454558, -2.361431, -84.362595, -36.785690, -624.572083
1733469466.733374, 3.561974, 11.778125, -2.096722, 4.729010, 2.374860, -1.913182, -84.255890, -38.266510, -625.472961
1733469466.743242, 3.839102, 10.840347, -1.162535, 4.675243, 2.355776, -1.490098, -84.057159, -39.779388, -627.141113
1733469466.753403, 3.835062, 9.899126, -0.734122, 4.603849, 2.447021, -1.090330, -83.630295, -40.831375, -628.079712
1733469466.763359, 3.802142, 9.184906, -0.369605, 4.554426, 2.621568, -0.694601, -83.349014, -42.020615, -629.401794
1733469466.773351, 3.801394, 8.670601, 0.421828, 4.488340, 2.741562, -0.313977, -82.981674, -43.076996, -630.557495
1733469466.783365, 3.903746, 8.091205, 1.513285, 4.396619, 2.667652, 0.039013, -82.727524, -43.796036, -631.815002
1733469466.793362, 4.028244, 7.501333, 2.709937, 4.344455, 2.399848, 0.382629, -82.350388, -44.355011, -632.648438
1733469466.803358, 4.116979, 7.163601, 3.645920, 4.309300, 2.013830, 0.699942, -82.079971, -45.037735, -632.952271
1733469466.812855, 4.116530, 6.734291, 4.612878, 4.264049, 1.561822, 0.973541, -81.751236, -45.248856, -634.251038
1733469466.823369, 4.179678, 6.242432, 5.517587, 4.133721, 1.236526, 1.243376, -81.294785, -45.322876, -634.173706
1733469466.833363, 4.060716, 5.912331, 6.374113, 3.873813, 0.994442, 1.523328, -81.284653, -45.351868, -634.633484
1733469466.842545, 4.326771, 5.616348, 7.463924, 3.533586, 0.772515, 1.863567, -81.214508, -45.099899, -634.730469
1733469466.853352, 4.788254, 5.533898, 8.683470, 3.146801, 0.443870, 2.257641, -81.243469, -44.769485, -634.694824
1733469466.863354, 5.062839, 5.276222, 9.989058, 2.726353, -0.037238, 2.681051, -81.026611, -44.285828, -635.115051
1733469466.873353, 5.066879, 5.139004, 11.098471, 2.280060, -0.605677, 3.130024, -80.907272, -43.075485, -634.461304
1733469466.883419, 4.804714, 5.169081, 10.635942, 1.912261, -0.864285, 3.678090, -80.883133, -41.517303, -634.024048
1733469466.893353, 4.203769, 5.093365, 8.717288, 1.671854, -0.634898, 4.317621, -80.785034, -39.613678, -633.452454
1733469466.902476, 3.153313, 4.860529, 7.442226, 1.479833, -0.116152, 4.970452, -80.361389, -37.744400, -632.952515
1733469466.913357, 2.125602, 4.650587, 7.108235, 1.273507, 0.496092, 5.604417, -80.106583, -35.311234, -634.093018
1733469466.923402, 0.779163, 4.619313, 7.509414, 1.025834, 1.098062, 6.157383, -79.547302, -32.414322, -634.340393
1733469466.933355, -1.317709, 4.516661, 8.667908, 0.692268, 1.556532, 6.555023, -78.659195, -29.518341, -635.200623
1733469466.943352, -3.479074, 4.474314, 10.333225, 0.285176, 1.780570, 6.839602, -76.975327, -26.616455, -636.274475
1733469466.953352, -5.636849, 4.294749, 11.711387, -0.192572, 1.903246, 7.058658, -75.169296, -23.340607, -637.064941
1733469466.963414, -8.208371, 3.897012, 12.374731, -0.787015, 2.176206, 7.148754, -73.172119, -20.290619, -638.208984
1733469466.973355, -10.883891, 3.706224, 12.637045, -1.545400, 2.609845, 7.100039, -70.734665, -16.823196, -637.948730
1733469466.983349, -12.839505, 3.769521, 12.941109, -2.349827, 2.845847, 6.972887, -68.096893, -13.645065, -638.599609
1733469466.993349, -14.248493, 4.038869, 13.066505, -3.032216, 2.726474, 6.764931, -65.437225, -10.558731, -638.645752
1733469467.003400, -16.071378, 4.352359, 12.566865, -3.555925, 2.361376, 6.448562, -62.768753, -7.685593, -637.977173
1733469467.013345, -18.428170, 4.864419, 11.816283, -3.988534, 1.914728, 6.014486, -59.955139, -4.758972, -637.535583
1733469467.023345, -21.598542, 5.483171, 11.251700, -4.421124, 1.447795, 5.367872, -57.201111, -2.301025, -636.177185
1733469467.033357, -24.893861, 5.978770, 10.814908, -4.867143, 0.978127, 4.553661, -54.911423, 0.034836, -634.370483
1733469467.043356, -27.807904, 7.346009, 10.073603, -5.330599, 0.598438, 3.630830, -52.838364, 1.791473, -632.411621
1733469467.053359, -29.883976, 8.936807, 8.784775, -5.836254, 0.332182, 2.721938, -51.427109, 3.595566, -629.621338
1733469467.063360, -30.996382, 10.384102, 6.678326, -6.346954, 0.238624, 1.878835, -50.203903, 4.716003, -626.752563
1733469467.073355, -31.712548, 12.240955, 3.994875, -6.763120, 0.157777, 1.124346, -49.393677, 5.770752, -624.077026
1733469467.083357, -31.702971, 13.518860, 0.807295, -7.008369, 0.159009, 0.534598, -49.231079, 6.617371, -620.419617
1733469467.093364, -31.863981, 15.220987, -2.730737, -7.056388, 0.367993, 0.040172, -49.033859, 7.168732, -617.473022
1733469467.103045, -32.215480, 17.054647, -5.906346, -6.966113, 0.708852, -0.414363, -49.026245, 7.108154, -613.734863
1733469467.112888, -32.332347, 18.325668, -8.803031, -6.740809, 1.154293, -0.860977, -49.785629, 6.844177, -611.051575
1733469467.123355, -32.124350, 19.373581, -11.616218, -6.371914, 1.639287, -1.306498, -50.475769, 6.436691, -608.871948
1733469467.133349, -31.457715, 20.159777, -13.696629, -5.868846, 1.933919, -1.760431, -52.074753, 5.648148, -606.508179
1733469467.143349, -30.582784, 19.867235, -15.151406, -5.294907, 2.036938, -2.260872, -53.577423, 4.579056, -604.663818
1733469467.153079, -29.709499, 19.563920, -16.453702, -4.707942, 1.997775, -2.793338, -55.330826, 3.617844, -603.818298
1733469467.163349, -28.699146, 19.598037, -17.338360, -4.075329, 1.815765, -3.320821, -57.157410, 2.061005, -602.309082
1733469467.173357, -27.660361, 19.558233, -18.407520, -3.361259, 1.570057, -3.870409, -59.078705, 0.544891, -601.978210
1733469467.183352, -26.248531, 19.481769, -19.471444, -2.583545, 1.243600, -4.405145, -61.332108, -1.129288, -601.211548
1733469467.193358, -24.356962, 19.311780, -20.131046, -1.789081, 0.882481, -4.875903, -63.383194, -2.895752, -600.686768
1733469467.203109, -22.327876, 19.174114, -20.548834, -1.048516, 0.667683, -5.252895, -65.640472, -4.644775, -601.015625
1733469467.213349, -20.422391, 19.370438, -20.521900, -0.497595, 0.774987, -5.527394, -67.814468, -6.503281, -600.757141
1733469467.223357, -18.626889, 19.541175, -19.966295, -0.145776, 1.179364, -5.694174, -69.891296, -8.808289, -602.162354
1733469467.233358, -16.782605, 19.705626, -19.076550, 0.125256, 1.690942, -5.782071, -72.180511, -11.094589, -602.903564
1733469467.243355, -14.746337, 19.761142, -18.030583, 0.394372, 2.109428, -5.832067, -74.135117, -13.681931, -603.402832
1733469467.253134, -12.727426, 19.585018, -17.029208, 0.728662, 2.366979, -5.830453, -76.064133, -16.145432, -606.037598
1733469467.263359, -10.787973, 19.547160, -16.276980, 1.136562, 2.542054, -5.770802, -77.934250, -18.757217, -606.744690
1733469467.273361, -9.037213, 19.555839, -15.607651, 1.595782, 2.648239, -5.644659, -79.570053, -21.446503, -608.644287
1733469467.283357, -7.255030, 19.381811, -14.765042, 2.106591, 2.624870, -5.482627, -81.193298, -23.823288, -610.110901
1733469467.293361, -5.432144, 19.051112, -13.641263, 2.660798, 2.460189, -5.259925, -82.143860, -26.303299, -610.935974
1733469467.303141, -3.776255, 18.712033, -12.505963, 3.175039, 2.297237, -4.990859, -82.902863, -28.767136, -613.507324
1733469467.313352, -2.565237, 17.985093, -11.529278, 3.607226, 2.226180, -4.690238, -83.584946, -31.140472, -614.679932
1733469467.323353, -1.609951, 16.972944, -10.928333, 3.966314, 2.376170, -4.384880, -84.210175, -33.549881, -616.668823
1733469467.333347, -0.787842, 15.854403, -10.376919, 4.284791, 2.663152, -4.082687, -84.422760, -35.729492, -618.314697
1733469467.343350, -0.010026, 14.962563, -9.047090, 4.604967, 2.828228, -3.788064, -84.717712, -38.025558, -619.027466
1733469467.353146, 0.962619, 14.290092, -7.058256, 4.896164, 2.833653, -3.482661, -84.978607, -39.944366, -621.550659
1733469467.363359, 1.915062, 13.509582, -5.096507, 5.087664, 2.735811, -3.163918, -84.853149, -41.912079, -622.073853
1733469467.373356, 2.655918, 12.794763, -3.458125, 5.162347, 2.660575, -2.834384, -84.527878, -43.696091, -624.166382
1733469467.382611, 3.247286, 12.091467, -2.099116, 5.148092, 2.637109, -2.491494, -84.295029, -45.604095, -625.202087
1733469467.393343, 3.797054, 11.381287, -0.782156, 5.017491, 2.659907, -2.145283, -84.071152, -46.978622, -626.383545
1733469467.403163, 4.277840, 10.551247, 0.408361, 4.828534, 2.704946, -1.773224, -83.465973, -48.502045, -627.088867
1733469467.413356, 5.093215, 9.964069, 1.659182, 4.602369, 2.713050, -1.331710, -83.180359, -49.466583, -627.289490
1733469467.423344, 5.876418, 9.406369, 2.834136, 4.346518, 2.647557, -0.828754, -82.739212, -50.256134, -628.556824
1733469467.433342, 6.476764, 8.741380, 3.677344, 4.089043, 2.632779, -0.289118, -82.475464, -50.848602, -628.711670
1733469467.443338, 6.760627, 8.049755, 4.367173, 3.814359, 2.703797, 0.273524, -82.115265, -51.096375, -629.708862
1733469467.453216, 6.737283, 7.203405, 5.424064, 3.490170, 2.749326, 0.842730, -81.812958, -51.047516, -631.102173
1733469467.463338, 6.639121, 6.344934, 6.560262, 3.167421, 2.718340, 1.419889, -81.563385, -50.817062, -631.726685
1733469467.473344, 6.472874, 5.555595, 7.514651, 2.852530, 2.615437, 1.977321, -81.162628, -49.966003, -632.843689
1733469467.483336, 5.926098, 4.809502, 7.843255, 2.561621, 2.601967, 2.497931, -80.725555, -49.028229, -634.353088
1733469467.493342, 4.901380, 4.219930, 7.910742, 2.284599, 2.711304, 2.991750, -80.095398, -48.160538, -634.236328
1733469467.503171, 3.949535, 3.844340, 8.071602, 2.024722, 2.894403, 3.502794, -79.661667, -46.492783, -636.201721
1733469467.513348, 3.133711, 3.656245, 8.468291, 1.757413, 3.078765, 4.025638, -79.162415, -44.937363, -637.366394
1733469467.523347, 2.300379, 3.622577, 9.488221, 1.410906, 3.116778, 4.529393, -78.517349, -42.927979, -638.605347
1733469467.533352, 1.526304, 3.506608, 10.754754, 0.947753, 2.986651, 4.994877, -77.677002, -40.601730, -640.453979
1733469467.543338, 0.641197, 3.335572, 11.264569, 0.434103, 2.840162, 5.424237, -76.557159, -38.089005, -640.999329
1733469467.553193, -0.307505, 3.320758, 10.842741, -0.058479, 2.833483, 5.869101, -75.235947, -35.127136, -642.684387
1733469467.563337, -1.252467, 3.388394, 9.715970, -0.507200, 3.067148, 6.356960, -73.586655, -32.086121, -643.669312
1733469467.573340, -2.501941, 3.723133, 8.510040, -0.965127, 3.552858, 6.854170, -71.517776, -28.859879, -644.696289
1733469467.583340, -4.023456, 4.509479, 7.823204, -1.464537, 4.115222, 7.338756, -68.879211, -25.152969, -646.462158
1733469467.593346, -5.841702, 5.457283, 7.762750, -2.000596, 4.601872, 7.736389, -65.841431, -21.822235, -647.490601
1733469467.603185, -8.300996, 6.378452, 8.179491, -2.558528, 4.766678, 7.955906, -62.838593, -18.217880, -649.304626
1733469467.613332, -11.279533, 6.726659, 8.905233, -3.133441, 4.518125, 7.900067, -59.282440, -14.747528, -648.466003
1733469467.623340, -14.964060, 6.528539, 9.185654, -3.722064, 4.004705, 7.467414, -56.233475, -11.731857, -648.624573
1733469467.633335, -19.267487, 5.713463, 8.828469, -4.261047, 3.325001, 6.662100, -53.319351, -8.876144, -648.089844
1733469467.643333, -23.671023, 4.399645, 7.938125, -4.729231, 2.558018, 5.477036, -51.135803, -5.988861, -646.059998
1733469467.653201, -27.519552, 3.590105, 6.629993, -5.120651, 1.787483, 3.992446, -49.286285, -3.853363, -645.387024
1733469467.663346, -29.572880, 4.033482, 5.010914, -5.409073, 1.048918, 2.510217, -48.125534, -1.823227, -642.501160
1733469467.673336, -29.477860, 5.780950, 3.196409, -5.598244, 0.385699, 1.296041, -47.169968, -0.031815, -639.718384
1733469467.683335, -28.075007, 8.452130, 1.487847, -5.732556, -0.119637, 0.489141, -46.948090, 1.666946, -638.051270
1733469467.693336, -26.524313, 10.679037, -0.544082, -5.885982, -0.216700, 0.045589, -46.636444, 2.932419, -634.974365
1733469467.703222, -25.733927, 11.916839, -2.843264, -6.141490, 0.192726, -0.229142, -46.658218, 4.402756, -632.889465
1733469467.713172, -25.727492, 13.117532, -4.691588, -6.534430, 0.921895, -0.481360, -46.658218, 4.402756, -632.889465
1733469467.723320, -25.888503, 14.567370, -6.283882, -6.938656, 1.697951, -0.806753, -47.255661, 6.099457, -627.093323
1733469467.733329, -25.778968, 16.071677, -7.923461, -7.207745, 2.240460, -1.235645, -48.230072, 6.647522, -624.291382
1733469467.743333, -25.548077, 17.501614, -9.420435, -7.290661, 2.333195, -1.786595, -48.230072, 6.647522, -624.291382
1733469467.753223, -25.053375, 18.359636, -11.472266, -7.136059, 2.153729, -2.395067, -49.038818, 6.880753, -621.542236
1733469467.763325, -24.513333, 19.170223, -13.912855, -6.807248, 1.884943, -3.075750, -50.473129, 6.558075, -618.824524
1733469467.772689, -23.967305, 19.906889, -16.052823, -6.412423, 1.574455, -3.781682, -52.393478, 6.221649, -615.364868
1733469467.783327, -22.862531, 20.780174, -18.251897, -5.950317, 1.361387, -4.457336, -54.314117, 5.273010, -613.826050
1733469467.793337, -21.094563, 21.892580, -20.516363, -5.347321, 1.216046, -5.010040, -56.621826, 4.034103, -612.048706
1733469467.803344, -18.771738, 23.275830, -22.430078, -4.590095, 1.039638, -5.371595, -58.923141, 2.602417, -610.724915
1733469467.813340, -16.142456, 24.371776, -23.949798, -3.681708, 0.826690, -5.519203, -61.420456, 0.622406, -608.464111
1733469467.823331, -13.704410, 24.959253, -25.257182, -2.714329, 0.680436, -5.465722, -63.859863, -0.796066, -608.038818
1733469467.833345, -11.668291, 24.914661, -26.208577, -1.754561, 0.693936, -5.257954, -65.765594, -2.785461, -607.729492
1733469467.843335, -10.087669, 24.255208, -26.916663, -0.829932, 0.941722, -4.984028, -68.090210, -4.490845, -607.454651
1733469467.853323, -8.772804, 23.176620, -26.734105, -0.006252, 1.308423, -4.710048, -69.974670, -6.097519, -608.430786
1733469467.863320, -7.649175, 22.165220, -25.390209, 0.671185, 1.647438, -4.471246, -71.818848, -7.983994, -609.453430
1733469467.873321, -6.642413, 21.101895, -23.723396, 1.239685, 1.919694, -4.277418, -73.435196, -9.782547, -610.601013
1733469467.883322, -5.768679, 19.918860, -22.227319, 1.762391, 2.123127, -4.129063, -75.128647, -11.505875, -612.153687
1733469467.893314, -5.044433, 18.886959, -20.780473, 2.278981, 2.254148, -4.015601, -76.729309, -13.173889, -613.812927
1733469467.903324, -4.224270, 17.991827, -19.045425, 2.785347, 2.220510, -3.921868, -78.010117, -14.967072, -615.762817
1733469467.913324, -3.359364, 17.298706, -17.066468, 3.285610, 2.018013, -3.826665, -78.867737, -16.895157, -617.269470
1733469467.923365, -2.490868, 16.799963, -15.138836, 3.762169, 1.704451, -3.723539, -79.912018, -18.952591, -619.171387
1733469467.933324, -1.786074, 16.186300, -13.214946, 4.169031, 1.341405, -3.618252, -80.747955, -20.941940, -620.835999
1733469467.943317, -1.324891, 15.399505, -11.617115, 4.460736, 1.102687, -3.512242, -81.626480, -23.040070, -622.402771
1733469467.953312, -1.008408, 14.644583, -10.427496, 4.643179, 1.053437, -3.389828, -82.020935, -24.880981, -623.211426
1733469467.963347, -0.630274, 13.992313, -9.290550, 4.757035, 1.108154, -3.239077, -82.444366, -27.041046, -624.268738
1733469467.973311, -0.186299, 13.100922, -8.161983, 4.852660, 1.157546, -3.090596, -82.881607, -29.149261, -625.584351
1733469467.983312, 0.266205, 12.138602, -6.968623, 4.941809, 1.163782, -2.945937, -82.928818, -31.140564, -626.797729
1733469467.993350, 0.641047, 11.485434, -5.911134, 5.030146, 1.151710, -2.795008, -83.440628, -33.289001, -627.086060
1733469468.003313, 0.888099, 10.975769, -4.989367, 5.110112, 1.217844, -2.638527, -83.418701, -35.045288, -628.292175
1733469468.013312, 1.148768, 10.355221, -3.976021, 5.139133, 1.307543, -2.478496, -83.443893, -37.064331, -629.445435
1733469468.023309, 1.415721, 9.885060, -2.575862, 5.113217, 1.345811, -2.311757, -83.173660, -39.033112, -629.954529
1733469468.033340, 1.841740, 9.529072, -1.201590, 5.041899, 1.334164, -2.108125, -83.076263, -40.845688, -630.340881
1733469468.043333, 2.573019, 9.217377, -0.199018, 4.931388, 1.375928, -1.809520, -82.794510, -42.516953, -631.224609
1733469468.053333, 3.338415, 8.880842, 0.440982, 4.802394, 1.569937, -1.423238, -82.641129, -43.869934, -631.345947
1733469468.063313, 3.857209, 8.309975, 1.267131, 4.630596, 1.807916, -0.999491, -82.130463, -45.339493, -631.403198
1733469468.073361, 4.245518, 7.583634, 2.378190, 4.407138, 2.002629, -0.579484, -81.957169, -46.160065, -632.511475
1733469468.083316, 4.520402, 6.922236, 3.399467, 4.150792, 2.154255, -0.161427, -81.473923, -47.017624, -633.495850
1733469468.093323, 4.747103, 6.487089, 4.091541, 3.896477, 2.272480, 0.262233, -81.237839, -47.617310, -634.444824
1733469468.102851, 5.099201, 6.045210, 4.893599, 3.653558, 2.289007, 0.698330, -80.786758, -47.932053, -635.088196
1733469468.113311, 5.786636, 5.769278, 6.118682, 3.391767, 2.106640, 1.190676, -80.584778, -47.942688, -635.783569
1733469468.122377, 6.541557, 5.678897, 7.589919, 3.085652, 1.701312, 1.729545, -80.116623, -47.859543, -636.366821
1733469468.133333, 7.001543, 5.160552, 8.748563, 2.729573, 1.231419, 2.279511, -80.113174, -47.207642, -635.653931
1733469468.143153, 7.129633, 4.581903, 9.001450, 2.326698, 0.955953, 2.873560, -79.798309, -46.132980, -637.078979
1733469468.153303, 7.029675, 4.321684, 8.802133, 1.883604, 0.900690, 3.527088, -79.854904, -44.552902, -636.640015
1733469468.163339, 6.730101, 4.217985, 8.585757, 1.472255, 0.959137, 4.252746, -79.533676, -43.008484, -636.472778
1733469468.173327, 6.208614, 4.255993, 8.578724, 1.133287, 1.036049, 5.026360, -79.136627, -40.726151, -638.009399
1733469468.183306, 4.964078, 4.391115, 8.752752, 0.804619, 1.149750, 5.765649, -78.290161, -38.213745, -638.039124
1733469468.193323, 2.995296, 4.492869, 8.931869, 0.454564, 1.351404, 6.433799, -77.629257, -35.122543, -639.620544
1733469468.203325, 0.647033, 4.596418, 9.246706, 0.042445, 1.630643, 6.980387, -76.506927, -31.942642, -639.676636
1733469468.213318, -2.047641, 4.558111, 9.690531, -0.469200, 1.959207, 7.376386, -74.835480, -28.578812, -640.354065
1733469468.223320, -4.614076, 4.595371, 10.202591, -1.047813, 2.212294, 7.615858, -73.248886, -25.025085, -641.761597
1733469468.233322, -6.996905, 4.776582, 10.620529, -1.613845, 2.316977, 7.696595, -71.191025, -21.530548, -641.434631
1733469468.243313, -9.207651, 5.030517, 10.706720, -2.124958, 2.314171, 7.651057, -68.918655, -17.800385, -642.333374
1733469468.253318, -10.990882, 5.633407, 10.687267, -2.571384, 2.152675, 7.541542, -66.224319, -14.489487, -642.076355
1733469468.263313, -12.829779, 6.356306, 10.775254, -2.963210, 1.866026, 7.345748, -63.299210, -11.206207, -641.457520
1733469468.273323, -14.988301, 7.052121, 10.392780, -3.284668, 1.586633, 7.080076, -60.543106, -8.182281, -641.124207
1733469468.283333, -17.452084, 7.802404, 9.695020, -3.537501, 1.406669, 6.742457, -57.559921, -5.286072, -639.733398
1733469468.293308, -20.549882, 8.355913, 9.723900, -3.901939, 1.305026, 6.229132, -54.839020, -2.530731, -639.172119
1733469468.303336, -23.915830, 8.504653, 10.271275, -4.448404, 1.236167, 5.511539, -52.184738, -0.259598, -637.740112
1733469468.313302, -27.175236, 8.971822, 10.051008, -5.076585, 1.241514, 4.592274, -50.074707, 1.565842, -634.919250
1733469468.323301, -30.029125, 9.536255, 9.413103, -5.732768, 1.175975, 3.448187, -48.491974, 3.335068, -633.426086
1733469468.333053, -31.648652, 10.504859, 8.091504, -6.270127, 1.001478, 2.250650, -47.434143, 4.908966, -630.099854
1733469468.342778, -31.488540, 12.239458, 5.967697, -6.606369, 0.674264, 1.222885, -46.631119, 6.238739, -627.066162
1733469468.353319, -30.453946, 14.014160, 3.385850, -6.729185, 0.317938, 0.420208, -46.329971, 6.972702, -624.120056
1733469468.363322, -29.174844, 15.517120, 0.428562, -6.666273, 0.053132, -0.135049, -46.359299, 7.593857, -620.474548
1733469468.373315, -28.104486, 16.664990, -2.824559, -6.488618, 0.111570, -0.491416, -46.475388, 8.053604, -618.239136
1733469468.383311, -27.530626, 17.582418, -5.863250, -6.278594, 0.529321, -0.746051, -46.864792, 7.940948, -614.631653
1733469468.393318, -26.912922, 18.259978, -7.869292, -6.066330, 1.044860, -0.931460, -47.523285, 7.869537, -613.038269
1733469468.403318, -26.657490, 18.746898, -8.986935, -5.873167, 1.460743, -1.197104, -48.522476, 7.364410, -610.254150
1733469468.413309, -27.031584, 19.269582, -9.635465, -5.718218, 1.705322, -1.623756, -49.777512, 6.620972, -608.707581
1733469468.423316, -27.217135, 20.069695, -10.635942, -5.607257, 1.887527, -2.158157, -51.331207, 5.856873, -606.457275
1733469468.433321, -26.624271, 20.650139, -12.290933, -5.507518, 2.020650, -2.725472, -53.053421, 4.566055, -604.033875
1733469468.443321, -25.641301, 21.401170, -14.346056, -5.312896, 2.088926, -3.295319, -55.119293, 3.331375, -602.916748
1733469468.453311, -24.557326, 22.319795, -16.506075, -4.934925, 2.056604, -3.881976, -57.250519, 1.806305, -600.262878
1733469468.463314, -23.223008, 22.805818, -18.718018, -4.305192, 1.911753, -4.384423, -59.449539, 0.098099, -599.681335
1733469468.473311, -21.437233, 23.476195, -21.100847, -3.424637, 1.825098, -4.754505, -61.796982, -1.753052, -599.718262
1733469468.483321, -19.473987, 24.040179, -22.948423, -2.436921, 1.814091, -4.978395, -64.093765, -3.617630, -598.891174
1733469468.493310, -17.314717, 24.035540, -24.010850, -1.441090, 1.906276, -5.075449, -66.743866, -5.370468, -599.933777
1733469468.503314, -15.305682, 23.605482, -24.195353, -0.485705, 2.025799, -5.106784, -68.796585, -7.369202, -601.467957
1733469468.513319, -13.463045, 23.062447, -23.380876, 0.375704, 2.135453, -5.108128, -71.040970, -9.193130, -602.106934
1733469468.523319, -11.860875, 22.679524, -21.774217, 1.078414, 2.197215, -5.090942, -73.090729, -11.067734, -604.211487
1733469468.533333, -10.401759, 22.236447, -19.973478, 1.663337, 2.217332, -5.074078, -75.104691, -13.068558, -604.729126
1733469468.543320, -8.997859, 21.695358, -18.353800, 2.203840, 2.141884, -5.069129, -76.634445, -15.127777, -606.532532
1733469468.553301, -7.563283, 20.984729, -16.857275, 2.739796, 1.991820, -5.028823, -78.072281, -17.175034, -608.735229
1733469468.563295, -6.270564, 20.189554, -15.578921, 3.265752, 1.869373, -4.971267, -79.342987, -19.281097, -609.752502
1733469468.573306, -5.172523, 19.297714, -14.230237, 3.715541, 1.818269, -4.896207, -80.756973, -21.508163, -612.385254
1733469468.583310, -4.133290, 18.465729, -12.755259, 4.066996, 1.847483, -4.781076, -81.798340, -23.695892, -613.668457
1733469468.592374, -3.034202, 17.730111, -11.393557, 4.312335, 2.045844, -4.600712, -82.852814, -25.911774, -615.372864
1733469468.603310, -1.966537, 17.081132, -10.340108, 4.451071, 2.460246, -4.348036, -83.150833, -28.112717, -617.698608
1733469468.613310, -0.744896, 16.300473, -9.445126, 4.526512, 2.981827, -4.021145, -83.674789, -30.285278, -619.129028
1733469468.623320, 0.584036, 15.529690, -7.985411, 4.635969, 3.351982, -3.606381, -83.904312, -32.392151, -622.048157
1733469468.632940, 1.871218, 14.777162, -6.204424, 4.787343, 3.532016, -3.152514, -84.203125, -34.144516, -623.211609
1733469468.643014, 2.945018, 13.520356, -4.288464, 4.892580, 3.552662, -2.690872, -83.900146, -35.966461, -625.589783
1733469468.652420, 3.703381, 12.370690, -2.379986, 4.903615, 3.534525, -2.223811, -83.660812, -37.443222, -628.239624
1733469468.663299, 4.338742, 10.255862, -0.049231, 4.578429, 3.906331, -1.287960, -83.142181, -38.737534, -629.236267
1733469468.673309, 4.277541, 9.301773, 0.925359, 4.301985, 4.243062, -0.803688, -82.644745, -39.970154, -632.085083
1733469468.683303, 4.329764, 8.464401, 2.408717, 3.995445, 4.404177, -0.348654, -82.221298, -40.893631, -633.515198
1733469468.693307, 4.603002, 7.582137, 4.012832, 3.680919, 4.304168, 0.084121, -81.056976, -41.733398, -635.090393
1733469468.703296, 4.986075, 6.789208, 5.308394, 3.404895, 3.989265, 0.526627, -80.189865, -42.391541, -637.525513
1733469468.713299, 5.191228, 6.090400, 5.746832, 3.173877, 3.686998, 0.953716, -79.380249, -42.645004, -638.671448
1733469468.723303, 4.974253, 5.405060, 5.568315, 2.977410, 3.501113, 1.364881, -78.782944, -42.669357, -640.572266
1733469468.733300, 4.686799, 4.893449, 5.353136, 2.845493, 3.392411, 1.773912, -77.744171, -42.766525, -641.147644
1733469468.743296, 4.786757, 4.455609, 5.483769, 2.746083, 3.264277, 2.205623, -76.870331, -42.600906, -643.169556
1733469468.753299, 4.662708, 4.272603, 5.988497, 2.656260, 3.085597, 2.657901, -75.828186, -42.187012, -644.251892
1733469468.763056, 4.433912, 4.387375, 6.726510, 2.581096, 2.792852, 3.154245, -74.919586, -41.619141, -645.611816
1733469468.773294, 4.036774, 4.512023, 7.886351, 2.478947, 2.395412, 3.651107, -74.209503, -40.898575, -646.419617
1733469468.783022, 3.185336, 4.355951, 9.206902, 2.244909, 1.979683, 4.086482, -73.209106, -40.075500, -646.813477
1733469468.793282, 1.979257, 4.220828, 10.024223, 1.856279, 1.672386, 4.477172, -72.389679, -38.792191, -647.699707
1733469468.803290, 0.774674, 4.039317, 10.326491, 1.346101, 1.523808, 4.815810, -71.743271, -37.171188, -648.599365
1733469468.813287, -0.553210, 3.701436, 10.146627, 0.767369, 1.520643, 5.104229, -70.819443, -35.434860, -648.861572
1733469468.823294, -1.763629, 3.567510, 9.785102, 0.226512, 1.510960, 5.365088, -69.904922, -33.497162, -648.950745
1733469468.833294, -2.844162, 3.699490, 9.577106, -0.232957, 1.425669, 5.596353, -69.122986, -31.205429, -649.859558
1733469468.843291, -4.394408, 3.718195, 9.362526, -0.646458, 1.360211, 5.748048, -67.363785, -29.087006, -650.289307
1733469468.852486, -6.126163, 3.751714, 9.441983, -1.086868, 1.288926, 5.858746, -65.908447, -26.514603, -650.243958
1733469468.863293, -7.908796, 3.684078, 9.796175, -1.630060, 1.172546, 5.902145, -64.404678, -23.994217, -650.566284
1733469468.873292, -9.869348, 3.480421, 9.830891, -2.250474, 1.123901, 5.875210, -62.834991, -21.260193, -650.701538
1733469468.883290, -12.050765, 3.575441, 8.999804, -2.866245, 1.276333, 5.765382, -60.889923, -18.489822, -650.161377
1733469468.893295, -14.615554, 3.622876, 8.077288, -3.451469, 1.472791, 5.506796, -58.495895, -15.873764, -649.950745
1733469468.903304, -17.327286, 3.546411, 7.857321, -4.007061, 1.513232, 5.055233, -56.981140, -12.874207, -649.187256
1733469468.912583, -19.653104, 3.658041, 7.973889, -4.536315, 1.249669, 4.462825, -54.947662, -10.000061, -648.089844
1733469468.923286, -21.169531, 4.222175, 7.926753, -4.996808, 0.638760, 3.883007, -53.114441, -7.521423, -646.496826
1733469468.933298, -22.738332, 4.731990, 6.766313, -5.317426, 0.062959, 3.290127, -51.909317, -5.130234, -644.737915
1733469468.943306, -24.295311, 5.135563, 4.540753, -5.542642, -0.253762, 2.672091, -50.580215, -3.099564, -642.836548
1733469468.953283, -25.420735, 5.948095, 2.709338, -5.737400, -0.392048, 2.064638, -49.416611, -1.017715, -640.355225
1733469468.963295, -26.153511, 6.916699, 1.347187, -5.950500, -0.390615, 1.503701, -48.969833, 0.888779, -637.856018
1733469468.972571, -27.244070, 8.580370, 0.212485, -6.198567, -0.275971, 0.913326, -48.735764, 2.488037, -635.022217
1733469468.983285, -28.522274, 10.538827, -0.440383, -6.524830, -0.253342, 0.267125, -48.646072, 3.768173, -631.967896
1733469468.993286, -29.316850, 12.537686, -1.398214, -6.798380, -0.380409, -0.378528, -48.673569, 4.725769, -629.031860
1733469469.003287, -30.111425, 14.946851, -3.539528, -6.893294, -0.546330, -1.075209, -49.350525, 5.536087, -625.460144
1733469469.013296, -30.222606, 16.450111, -6.640618, -6.730253, -0.696539, -1.684295, -49.984573, 5.951843, -622.813965
1733469469.023299, -29.247867, 16.975788, -10.124630, -6.320287, -0.692526, -2.163637, -50.970062, 6.010529, -619.624878
1733469469.032493, -27.876737, 17.489793, -13.117532, -5.823068, -0.490912, -2.455963, -51.901123, 5.770859, -617.452637
1733469469.043287, -26.287436, 18.096124, -15.451579, -5.364673, -0.074472, -2.556554, -53.441467, 5.302307, -614.861938
1733469469.053299, -25.179968, 18.769643, -17.177798, -4.980296, 0.391941, -2.652518, -54.746216, 4.611572, -613.209045
1733469469.063285, -24.746618, 19.214815, -18.333749, -4.600348, 0.709741, -2.855189, -56.382950, 3.719086, -612.241089
1733469469.073289, -24.613441, 19.624074, -19.371785, -4.137276, 0.862184, -3.195680, -57.949081, 2.599136, -609.850403
1733469469.083322, -23.968802, 19.208081, -20.430172, -3.611660, 0.808814, -3.596598, -59.871979, 1.594635, -609.354431
1733469469.093284, -23.049728, 18.875437, -21.291935, -3.052513, 0.692497, -3.986912, -61.355286, 0.187851, -608.239563
1733469469.103287, -22.079028, 19.064280, -22.366333, -2.549063, 0.774840, -4.322789, -63.405243, -1.193375, -607.462524
1733469469.113296, -20.998346, 19.107375, -23.061250, -2.101678, 1.025769, -4.606542, -65.586578, -2.797394, -607.714111
1733469469.123287, -19.410092, 18.941128, -23.524528, -1.645990, 1.362605, -4.837883, -67.264755, -4.731018, -607.594788
1733469469.133297, -17.550995, 18.987216, -23.705290, -1.158079, 1.664716, -5.020906, -69.536575, -6.877441, -608.040955
1733469469.143281, -15.438112, 19.090915, -23.727436, -0.601173, 1.894470, -5.138729, -71.657379, -8.865433, -608.427246
1733469469.153296, -13.367277, 19.059940, -23.678355, 0.075542, 2.010739, -5.200341, -73.711884, -11.134369, -609.467041
1733469469.163279, -11.269806, 19.169325, -23.084443, 0.850898, 2.010085, -5.206348, -75.491013, -13.399094, -611.032227
1733469469.173283, -9.036914, 18.895788, -21.835269, 1.582852, 1.822235, -5.187427, -77.325928, -15.603500, -612.150574
1733469469.183296, -6.893655, 18.470218, -19.843892, 2.262278, 1.435140, -5.076029, -78.583145, -17.972504, -613.706360
1733469469.193277, -5.351041, 18.438196, -18.081759, 2.865207, 1.145140, -4.926731, -79.721390, -20.216431, -614.799561
1733469469.203313, -4.217386, 17.837551, -16.649428, 3.279714, 1.071658, -4.762255, -80.796417, -22.614868, -615.984924
1733469469.213284, -3.140893, 17.067366, -15.003564, 3.524801, 1.168619, -4.552244, -81.752548, -24.947891, -617.485107
1733469469.223292, -2.210746, 16.450410, -13.614179, 3.703840, 1.423614, -4.306220, -82.508881, -27.148102, -618.334473
1733469469.233292, -1.160589, 15.766117, -12.237363, 3.873174, 1.666503, -4.004203, -83.011063, -29.592148, -619.077271
1733469469.243276, -0.030077, 15.049054, -10.327239, 4.052244, 1.721750, -3.685627, -83.011063, -29.592148, -619.077271
1733469469.252494, 0.942867, 14.374487, -8.540716, 4.230201, 1.647607, -3.360695, -83.535751, -31.663071, -621.119507
1733469469.263271, 1.883937, 13.565846, -7.238719, 4.375841, 1.590621, -3.029079, -83.719849, -33.846542, -622.254395
1733469469.272728, 2.683002, 12.698397, -5.976376, 4.456161, 1.569973, -2.674586, -83.976639, -35.481384, -623.159058
1733469469.283284, 3.211073, 11.770045, -4.888062, 4.465781, 1.636181, -2.324514, -83.967392, -37.307938, -624.341980
1733469469.293277, 3.514688, 10.683227, -4.088099, 4.414974, 1.827371, -1.990905, -84.087814, -38.803406, -625.178772
1733469469.303275, 3.927688, 9.726444, -3.240552, 4.347190, 2.033121, -1.664804, -83.840836, -40.164566, -626.269104
1733469469.313277, 4.624251, 9.056966, -2.128595, 4.266520, 2.168082, -1.298281, -83.660858, -41.588394, -627.499268
1733469469.323282, 5.427057, 8.416068, -1.008109, 4.135291, 2.233495, -0.898490, -83.416946, -42.633453, -628.126221
1733469469.333277, 6.148011, 7.902811, 0.024092, 3.958659, 2.264009, -0.440484, -83.063599, -43.672348, -629.042786
1733469469.343271, 6.603208, 7.427113, 0.704045, 3.773849, 2.347663, 0.067315, -82.964859, -44.363632, -629.577148
1733469469.353285, 6.588843, 6.944232, 1.290325, 3.586827, 2.442529, 0.581382, -82.671036, -44.623337, -630.950195
1733469469.363279, 6.339846, 6.578069, 2.096124, 3.381130, 2.509804, 1.103201, -82.435669, -44.826538, -632.092163
1733469469.373292, 6.083218, 5.800552, 2.787000, 3.172978, 2.538816, 1.595221, -81.724594, -44.672699, -632.816162
1733469469.383291, 5.593753, 4.950162, 3.354725, 2.938127, 2.548050, 2.015394, -81.282150, -44.497025, -634.294373
1733469469.393277, 4.797830, 4.208258, 3.612102, 2.696591, 2.494309, 2.340294, -81.088074, -43.893936, -635.342529
1733469469.403269, 4.096479, 3.592350, 3.494786, 2.611475, 2.403243, 2.630304, -80.697433, -43.319809, -636.308777
1733469469.413290, 3.746626, 3.673005, 3.536834, 2.735587, 2.191187, 2.945869, -80.061096, -42.644165, -637.436035
1733469469.423283, 3.514838, 3.822642, 4.110395, 2.931241, 1.875281, 3.299107, -79.600754, -41.694489, -638.161011
1733469469.432889, 2.813935, 3.739144, 5.059247, 3.075104, 1.635502, 3.653668, -78.873749, -40.702545, -638.955444
1733469469.443286, 1.641973, 3.734955, 6.093842, 3.051307, 1.553547, 3.964956, -78.378998, -39.798508, -638.791321
1733469469.453286, 0.061351, 3.449745, 7.369353, 2.744557, 1.606687, 4.144783, -77.948715, -38.265564, -639.876892
1733469469.463281, -1.449091, 2.851045, 8.631845, 2.223147, 1.784919, 4.258155, -77.330978, -37.167770, -640.825012
1733469469.473283, -2.018911, 2.870049, 9.490316, 1.685051, 1.950695, 4.447096, -76.174576, -35.542389, -642.077881
1733469469.483278, -2.592771, 3.152864, 10.367941, 1.187420, 2.046271, 4.660939, -75.140167, -34.072021, -642.825562
1733469469.493292, -3.388693, 3.245490, 11.455507, 0.655313, 2.004640, 4.869960, -74.054199, -32.176117, -643.446350
1733469469.503271, -4.142717, 3.314174, 12.596493, 0.018581, 1.864352, 5.053998, -72.960571, -30.219101, -644.160461
1733469469.513283, -5.319318, 3.161843, 12.726977, -0.655068, 1.847104, 5.155320, -71.716522, -27.921890, -645.124146
1733469469.523272, -6.751948, 2.758719, 12.478429, -1.318328, 1.908635, 5.186163, -70.038452, -25.659973, -645.533447
1733469469.533282, -7.577499, 2.765602, 12.268189, -1.923933, 1.951361, 5.239357, -68.533859, -22.950089, -645.929871
1733469469.543287, -8.780286, 3.008165, 11.625046, -2.411796, 2.031511, 5.280672, -66.597092, -20.739807, -646.016602
1733469469.553286, -10.596587, 3.513940, 11.465532, -2.872871, 2.070043, 5.294417, -64.771118, -17.588409, -646.013000
1733469469.563281, -12.686575, 4.112191, 11.852795, -3.422295, 2.065222, 5.197824, -62.280258, -14.870529, -645.921387
1733469469.573321, -15.183578, 4.358644, 12.000936, -4.045983, 1.990624, 4.944174, -60.114151, -12.149323, -645.972656
1733469469.583262, -17.332673, 5.146636, 11.585841, -4.632393, 1.827442, 4.591112, -57.836151, -9.416275, -644.616699
1733469469.593260, -19.264944, 6.572233, 10.742334, -5.117976, 1.596581, 4.181634, -55.576874, -6.808914, -643.105713
1733469469.603258, -21.399225, 8.142680, 9.892991, -5.615884, 1.427700, 3.689761, -53.771561, -4.338974, -641.712280
1733469469.613269, -24.146422, 9.507973, 9.051579, -6.301600, 1.414948, 2.996696, -51.990189, -1.838287, -639.696167
1733469469.623274, -26.200347, 11.483040, 7.497293, -7.030481, 1.434634, 2.247787, -50.431793, 0.517670, -636.929077
1733469469.632723, -26.878355, 13.419949, 4.746355, -7.579647, 1.362331, 1.549862, -49.268631, 2.328430, -633.882507
1733469469.643279, -27.083508, 15.092748, 1.336862, -7.878173, 1.237429, 0.955631, -48.182709, 4.057739, -630.113770
1733469469.652388, -27.659913, 16.469713, -2.309357, -7.981208, 1.210570, 0.385688, -47.836761, 5.644318, -627.437622
1733469469.663070, -28.988844, 17.465252, -5.530007, -8.003222, 1.297644, -0.267960, -47.529724, 6.422974, -624.324585
1733469469.673271, -30.188489, 18.395998, -8.386888, -7.947497, 1.520931, -1.016112, -47.878677, 7.011810, -620.746033
1733469469.683281, -30.286352, 19.807230, -10.994174, -7.795365, 1.662018, -1.749901, -48.585648, 7.025452, -617.397034
1733469469.693271, -29.157186, 21.236120, -13.276746, -7.461602, 1.667797, -2.348745, -49.578125, 6.737076, -614.234131
1733469469.703276, -27.862821, 22.268470, -15.678729, -6.966779, 1.621365, -2.849188, -50.952911, 6.232986, -611.383057
1733469469.713280, -26.650757, 22.633136, -17.519421, -6.382324, 1.461679, -3.252580, -52.505630, 5.424515, -608.816467
1733469469.723271, -25.345917, 22.293010, -19.499875, -5.714908, 1.449646, -3.617219, -54.402283, 4.216385, -606.888733
1733469469.733257, -24.324341, 22.455666, -21.438430, -5.036970, 1.658620, -3.929495, -56.457794, 3.043991, -604.851257
1733469469.743267, -23.014413, 22.626403, -22.730551, -4.372279, 2.000743, -4.160121, -58.518829, 1.423843, -603.080688
1733469469.753257, -21.377378, 22.771701, -23.718757, -3.649251, 2.373039, -4.349081, -60.396439, -0.226257, -603.462524
1733469469.763275, -19.543569, 23.144149, -24.064121, -2.832247, 2.630637, -4.450690, -62.902908, -1.905426, -603.324646
1733469469.773267, -17.664569, 23.202508, -23.948301, -1.966941, 2.753335, -4.540627, -64.971268, -3.837296, -603.663818
1733469469.783274, -16.030527, 22.659772, -23.847446, -1.055534, 2.859319, -4.631101, -67.444702, -5.246948, -604.142090
1733469469.793349, -14.324957, 22.181231, -23.293936, -0.132158, 2.898153, -4.720425, -69.663132, -7.262650, -605.605469
1733469469.803287, -12.465860, 21.627572, -21.758654, 0.704423, 2.797771, -4.819891, -71.857681, -9.104874, -606.854309
1733469469.813302, -10.681731, 21.355082, -19.630059, 1.416497, 2.586029, -4.890506, -73.788239, -11.058121, -608.734314
1733469469.823315, -8.987384, 21.385907, -17.481862, 1.968071, 2.376166, -4.926719, -75.490784, -12.990341, -610.421875
1733469469.833366, -7.461978, 21.143344, -15.668703, 2.353598, 2.246100, -4.914937, -77.319290, -15.064880, -612.299500
1733469469.843261, -5.928791, 20.662110, -14.250139, 2.653396, 2.165640, -4.847708, -78.506012, -17.440109, -613.302002
1733469469.853280, -4.433463, 20.097527, -13.073538, 2.918535, 2.117258, -4.700164, -79.730927, -19.602600, -615.994324
