SamplingTime, AccelerationX, AccelerationY, AccelerationZ, GyroX, GyroY, GyroZ, MagneticFieldX, MagneticFieldY, MagneticFieldZ
1733469405.060755, -6.880038, -2.993051, -7.306206, 0.007084, 0.347000, -0.076222, , , 
1733469405.070739, -6.565649, -2.819621, -7.152977, 0.110007, 0.288073, -0.119061, -68.988647, -24.824280, -645.204285
1733469405.080744, -6.160730, -2.581698, -6.900239, 0.173031, 0.220961, -0.135983, -69.019257, -24.877136, -645.293152
1733469405.090785, -5.824644, -2.361132, -6.710798, 0.190713, 0.169102, -0.141276, -69.222916, -24.944870, -645.454590
1733469405.100754, -5.643732, -2.163311, -6.740575, 0.190850, 0.250869, -0.154658, -69.309784, -24.905670, -645.400269
1733469405.110758, -5.219060, -2.073828, -6.649745, 0.141486, 0.215768, -0.071343, -68.939285, -25.244705, -645.636597
1733469405.120769, -4.626047, -2.457349, -6.462848, 0.071020, 0.063181, 0.031716, -68.898666, -25.298019, -645.315247
1733469405.130765, -4.709694, -2.473809, -6.948272, 0.057771, 0.084673, 0.123984, -69.279449, -25.036224, -645.809204
1733469405.140752, -4.799776, -2.097470, -7.199963, 0.074407, 0.222825, 0.197089, -68.869751, -25.252167, -645.470947
1733469405.150758, -5.175965, -2.264167, -6.944681, 0.066038, 0.292018, 0.240449, -68.762238, -25.321854, -646.138733
1733469405.160746, -5.272331, -2.400486, -6.709750, 0.035678, 0.326782, 0.269020, -68.775635, -25.259872, -645.546326
1733469405.170741, -5.372140, -2.534711, -6.710498, 0.007469, 0.396991, 0.297054, -68.795303, -24.877747, -645.640381
1733469405.180300, -5.475689, -2.505981, -6.929568, -0.012401, 0.503287, 0.319591, -68.546738, -24.713898, -646.466797
1733469405.190751, -5.747131, -2.386121, -7.049577, -0.010752, 0.576367, 0.313876, -68.496277, -24.683762, -645.772522
1733469405.200769, -6.034436, -2.295291, -7.258621, 0.049768, 0.638418, 0.279154, -68.002838, -24.688034, -647.107483
1733469405.210746, -6.105663, -2.236933, -7.587973, 0.161501, 0.754370, 0.265640, -67.580490, -24.568253, -646.555542
1733469405.220744, -5.841254, -2.223914, -7.844003, 0.275318, 0.909013, 0.282183, -67.363541, -24.393646, -646.611938
1733469405.230757, -5.450101, -2.292747, -7.462427, 0.328869, 0.907285, 0.273309, -67.360336, -24.605804, -647.630005
1733469405.240816, -4.999692, -2.219126, -6.600365, 0.348640, 0.798364, 0.297525, -66.868942, -24.636536, -647.286194
1733469405.250750, -4.644602, -2.008137, -5.956774, 0.289712, 0.711404, 0.319010, -66.664719, -24.625702, -648.392029
1733469405.260762, -4.572327, -1.822586, -5.676951, 0.159434, 0.632216, 0.275734, -66.355652, -24.547470, -648.322937
1733469405.270754, -4.536713, -1.620426, -5.580435, 0.035471, 0.588672, 0.224412, -66.387573, -24.503113, -648.455688
1733469405.280309, -4.216488, -1.645565, -6.174796, -0.043216, 0.672149, 0.167983, -66.147171, -24.290634, -649.150940
1733469405.290748, -3.578134, -1.662923, -6.825719, -0.077612, 0.795454, 0.215547, -65.733673, -24.334869, -648.765991
1733469405.300742, -2.757222, -1.387440, -7.013514, -0.077659, 0.929995, 0.366841, -65.265839, -24.200882, -650.211914
1733469405.310743, -1.962348, -1.222539, -7.023540, -0.070586, 1.051355, 0.570869, -64.714081, -24.081131, -649.763123
1733469405.320743, -1.508946, -0.952743, -6.143521, -0.089582, 1.023001, 0.811947, -64.392456, -23.601868, -649.286011
1733469405.330753, -1.206229, -0.592266, -5.359420, -0.172050, 1.067136, 1.062276, -63.931763, -23.109970, -650.635864
1733469405.340741, -1.392827, -0.254534, -4.759673, -0.307534, 0.939821, 1.277795, -63.511871, -22.787354, -649.988953
1733469405.350746, -2.280776, -0.218321, -3.342904, -0.450655, 0.608871, 1.360746, -62.990402, -22.068741, -650.892090
1733469405.360794, -2.998887, 0.008529, -2.977040, -0.635953, 0.329185, 1.362649, -62.587799, -21.395035, -650.819702
1733469405.370750, -3.445705, 0.345364, -3.328389, -0.850885, 0.181374, 1.366091, -62.079620, -20.505249, -649.887634
1733469405.380161, -3.887735, 0.444723, -4.024803, -1.025479, 0.203872, 1.373083, -61.678909, -19.789154, -650.585388
1733469405.390751, -3.943849, 0.773776, -5.033659, -1.142984, 0.430433, 1.443757, -61.204788, -18.881210, -650.000488
1733469405.400748, -3.664924, 1.403301, -6.000169, -1.219842, 0.796492, 1.612764, -60.300415, -17.941055, -650.488281
1733469405.410745, -3.460519, 1.554735, -6.483049, -1.263834, 1.174869, 1.816604, -59.574493, -16.875381, -650.000916
1733469405.420737, -3.667318, 1.565209, -6.231957, -1.256190, 1.366898, 2.010163, -58.763321, -16.195724, -649.598328
1733469405.430743, -4.194641, 1.520617, -5.109825, -1.234420, 1.275003, 2.120264, -57.907364, -15.127914, -650.331665
1733469405.440744, -5.351789, 0.884508, -3.197307, -1.254485, 0.810442, 2.085624, -57.195435, -14.316696, -649.654175
1733469405.450738, -6.698827, 0.376638, -1.247978, -1.322893, 0.151042, 1.927844, -56.412827, -13.278091, -650.123413
1733469405.460743, -7.650522, 0.388908, -0.144999, -1.428633, -0.473324, 1.755524, -56.069931, -12.354446, -649.553833
1733469405.470737, -8.684667, 0.327706, 0.379631, -1.596140, -0.901360, 1.577149, -55.852524, -11.265060, -648.041260
1733469405.480340, -10.132710, 0.054618, 0.373047, -1.884465, -0.991867, 1.369089, -55.657562, -10.207428, -648.192078
1733469405.490744, -11.491121, -0.047435, 0.197821, -2.325252, -0.766918, 1.139214, -55.491547, -8.965866, -646.083252
1733469405.500740, -12.323106, -0.142305, -0.243610, -2.839367, -0.380411, 0.946998, -54.890945, -7.822479, -646.572693
1733469405.510742, -12.741792, -0.003891, -0.839018, -3.281480, 0.026513, 0.829521, -54.575363, -6.695999, -645.228394
1733469405.520264, -13.207913, 0.367211, -1.439214, -3.585595, 0.338150, 0.720679, -53.999023, -5.481812, -643.174744
1733469405.530746, -13.781474, 0.631022, -1.680580, -3.812155, 0.451262, 0.585120, -53.654633, -4.403152, -642.737671
1733469405.540740, -14.563480, 0.902015, -1.625663, -3.987269, 0.350794, 0.406364, -53.426819, -3.219803, -640.389038
1733469405.550729, -15.554679, 0.821510, -1.648557, -4.174545, 0.080195, 0.128077, -53.303497, -1.961670, -639.767090
1733469405.560740, -16.921170, 1.196502, -1.805228, -4.410890, -0.287662, -0.205727, -53.253281, -0.825424, -638.055725
1733469405.570740, -18.386272, 2.053626, -2.929006, -4.632837, -0.582870, -0.570212, -53.496353, -0.026138, -635.530762
1733469405.580354, -19.645322, 2.684948, -4.734833, -4.766973, -0.820364, -0.938828, -53.904312, 0.590302, -634.144897
1733469405.590736, -20.714782, 3.805284, -6.772748, -4.813735, -1.074101, -1.292485, -54.502258, 1.113831, -630.896790
1733469405.600753, -21.873576, 5.159804, -9.253739, -4.772523, -1.254909, -1.650091, -55.464645, 1.486038, -629.025574
1733469405.610732, -22.899791, 6.105663, -12.162993, -4.668687, -1.251929, -2.034687, -56.349991, 1.737534, -627.117310
1733469405.620739, -23.779959, 7.265654, -14.801852, -4.554524, -1.158206, -2.473959, -57.506424, 1.475891, -624.434326
1733469405.629794, -24.307881, 8.402301, -17.387740, -4.357314, -0.983840, -2.954309, -58.634293, 0.889145, -623.471985
1733469405.640741, -24.167969, 9.241469, -20.335750, -4.002472, -0.655089, -3.436434, -60.377991, 0.192032, -621.151855
1733469405.650745, -23.323415, 10.134057, -23.024738, -3.515282, -0.288185, -3.869445, -61.861694, -0.916168, -619.471497
1733469405.660735, -22.014086, 11.429470, -24.813656, -2.934251, -0.060921, -4.229903, -63.930054, -2.047333, -619.165649
1733469405.670733, -20.413263, 12.630162, -25.978285, -2.268709, 0.042428, -4.511533, -65.333298, -3.518417, -617.832764
1733469405.680749, -18.630779, 13.550882, -26.727371, -1.565929, 0.124733, -4.700204, -67.094620, -5.146744, -617.964478
1733469405.690733, -16.933440, 14.474595, -26.896312, -0.910370, 0.239533, -4.795580, -69.104050, -6.806503, -617.696716
1733469405.700730, -15.391874, 15.327230, -26.699538, -0.339955, 0.451550, -4.826213, -70.560257, -8.750092, -617.898132
1733469405.710731, -13.870807, 15.721076, -26.241947, 0.160692, 0.773978, -4.814077, -72.356705, -10.739960, -619.163818
1733469405.720731, -12.441319, 15.904083, -25.416695, 0.592936, 1.156147, -4.761158, -73.921463, -12.887466, -619.274048
1733469405.730399, -10.965593, 15.994165, -24.245931, 0.981918, 1.512342, -4.693543, -75.489410, -14.975372, -620.804321
1733469405.740733, -9.588628, 15.903933, -23.014563, 1.357248, 1.838941, -4.646778, -76.692352, -17.187225, -621.261780
1733469405.750738, -8.339004, 15.779734, -21.615601, 1.717591, 2.131702, -4.607903, -77.400528, -19.553925, -623.079590
1733469405.760731, -7.042694, 15.846922, -20.011635, 2.057884, 2.373097, -4.540046, -78.587830, -21.836243, -625.903198
1733469405.770738, -5.629516, 15.909021, -18.270003, 2.376626, 2.529442, -4.427228, -79.341599, -24.228851, -626.462463
1733469405.780744, -4.301632, 15.917251, -16.338930, 2.698904, 2.549960, -4.275836, -79.596848, -26.785904, -629.353027
1733469405.790726, -2.989161, 15.950022, -14.320019, 3.044656, 2.409588, -4.058094, -80.009735, -29.154099, -630.320923
1733469405.800730, -1.575085, 15.724518, -12.488156, 3.355066, 2.203676, -3.777824, -80.296326, -31.522980, -631.097046
1733469405.810721, -0.269797, 15.146618, -10.928034, 3.573917, 2.035641, -3.461149, -80.399002, -33.585922, -633.428711
1733469405.820716, 0.766145, 14.292187, -9.767146, 3.704978, 2.001618, -3.115467, -80.000992, -35.868042, -634.260071
1733469405.830718, 1.704372, 13.401544, -8.953117, 3.775341, 2.142978, -2.699092, -79.886398, -37.749313, -635.382568
1733469405.840723, 2.563891, 12.725182, -7.909694, 3.778631, 2.379860, -2.224757, -79.682251, -39.539246, -636.550903
1733469405.850718, 3.115305, 11.966968, -6.608445, 3.727667, 2.634786, -1.737161, -79.088318, -41.023285, -637.662476
1733469405.860775, 3.523217, 11.225663, -5.394885, 3.642030, 2.886188, -1.250530, -78.592682, -42.599380, -638.880432
1733469405.870715, 3.717746, 10.456376, -4.212897, 3.522542, 3.118416, -0.779835, -77.814301, -43.724213, -641.053101
1733469405.880721, 3.599383, 9.548375, -3.032256, 3.352631, 3.335145, -0.348332, -76.992950, -44.647217, -642.487305
1733469405.890734, 3.343652, 8.821735, -1.871966, 3.149386, 3.497419, 0.028065, -76.222717, -45.323807, -643.091797
1733469405.900723, 3.287239, 8.074744, -0.886304, 2.954286, 3.555584, 0.369708, -75.455338, -46.084885, -643.645386
1733469405.910714, 3.361459, 7.412448, -0.012270, 2.804243, 3.495620, 0.693480, -74.429138, -46.621109, -645.738892
1733469405.920717, 3.395726, 6.766014, 0.662446, 2.704892, 3.335653, 0.980037, -73.933487, -46.994965, -646.949463
1733469405.930713, 3.329736, 6.030246, 1.278803, 2.633855, 3.088125, 1.221164, -73.038345, -47.370392, -647.876099
1733469405.940715, 3.272874, 5.295675, 1.904887, 2.576457, 2.776314, 1.433910, -72.338135, -47.619934, -647.872314
1733469405.950719, 3.202544, 4.651186, 2.357989, 2.512983, 2.479428, 1.636555, -71.678528, -47.697739, -649.197021
1733469405.960718, 3.081038, 4.159327, 2.681207, 2.437694, 2.213003, 1.851140, -71.007584, -47.908569, -649.597534
1733469405.970711, 3.007716, 3.825785, 2.892196, 2.363888, 2.001070, 2.100474, -70.468765, -47.782349, -649.985779
1733469405.980720, 2.818574, 3.439121, 3.106477, 2.315934, 1.843837, 2.374044, -70.087830, -47.485748, -650.302551
1733469405.990734, 2.455703, 3.107823, 3.419369, 2.266704, 1.753111, 2.660176, -69.369370, -47.397171, -650.245483
1733469406.000727, 1.743278, 2.932747, 4.155586, 2.177243, 1.670705, 2.920338, -69.019577, -46.701004, -651.168762
1733469406.010722, 0.835427, 2.705598, 4.966472, 2.020846, 1.611296, 3.115411, -68.972794, -46.333099, -651.654358
1733469406.020724, 0.051924, 2.300080, 5.774814, 1.793987, 1.465041, 3.216097, -68.394409, -45.601822, -651.999878
1733469406.030719, -0.472406, 1.977012, 6.791303, 1.527485, 1.188418, 3.292287, -68.127838, -44.841995, -651.829468
1733469406.040758, -0.628029, 1.925088, 7.395539, 1.257596, 0.889639, 3.429815, -68.121643, -43.971741, -651.729370
1733469406.050726, -0.962170, 1.827075, 7.541137, 1.007471, 0.661631, 3.625237, -67.942734, -42.747131, -651.819092
1733469406.060709, -1.510592, 1.428441, 7.669376, 0.742308, 0.526452, 3.828874, -67.407333, -41.762024, -652.441772
1733469406.070712, -2.256086, 1.189469, 7.831434, 0.425172, 0.504861, 4.036946, -67.407333, -41.762024, -652.441772
1733469406.080721, -3.214365, 1.108815, 7.872434, 0.042222, 0.607747, 4.218751, -66.983704, -38.561264, -652.952698
1733469406.090665, -4.295347, 0.730531, 7.873033, -0.395978, 0.779782, 4.310486, -66.560547, -36.775146, -653.468628
1733469406.100719, -5.371391, 0.303764, 8.581417, -0.908937, 0.834271, 4.279662, -65.995972, -34.690384, -653.716492
1733469406.110717, -6.089652, 0.144550, 9.775376, -1.475300, 0.624567, 4.187018, -65.527267, -32.636292, -652.575562
1733469406.120703, -6.441899, 0.116418, 10.337115, -2.013710, 0.252980, 4.098165, -64.874512, -30.149490, -652.646851
1733469406.130718, -6.727407, 0.191536, 10.192416, -2.479364, -0.178711, 4.063535, -64.874512, -30.149490, -652.646851
1733469406.140711, -7.249493, 0.782904, 9.682002, -2.835113, -0.578957, 4.135058, -64.179276, -27.735352, -652.585754
1733469406.150709, -8.147019, 1.530643, 8.871864, -3.126624, -0.823131, 4.247193, -63.805237, -25.138123, -651.522827
1733469406.160708, -9.731083, 2.335544, 8.186224, -3.471195, -0.862079, 4.331141, -62.902863, -22.365555, -650.723633
1733469406.170758, -11.486332, 2.933944, 7.647379, -3.917647, -0.767935, 4.406811, -62.278687, -19.543793, -649.344177
1733469406.180705, -13.568689, 3.488950, 7.079804, -4.407588, -0.555793, 4.416821, -60.983582, -16.665985, -648.384705
1733469406.190716, -16.057761, 4.186262, 6.958897, -4.948812, -0.362437, 4.302711, -59.867523, -13.541397, -646.639343
1733469406.200715, -18.292150, 4.894496, 7.178864, -5.570350, -0.375769, 4.118858, -58.584030, -10.540634, -644.576294
1733469406.210705, -20.564846, 6.125415, 6.728604, -6.159432, -0.526714, 3.884740, -56.991287, -7.579102, -643.225830
1733469406.220770, -22.959945, 7.860164, 4.812046, -6.599767, -0.641022, 3.618119, -55.802185, -4.897934, -640.558472
1733469406.230707, -25.088241, 9.294889, 2.303821, -6.882766, -0.724725, 3.259879, -54.985977, -2.303818, -638.061951
1733469406.240708, -26.957514, 10.229376, -0.225354, -7.047534, -0.759429, 2.791058, -53.673447, 0.167862, -634.926147
1733469406.250710, -28.909237, 10.897508, -3.183839, -7.128936, -0.570110, 2.205582, -52.739273, 1.988449, -632.107117
1733469406.260710, -30.693516, 11.505785, -6.166117, -7.146821, -0.202430, 1.511793, -51.932602, 3.410004, -628.614746
1733469406.270710, -31.586104, 12.094010, -8.287230, -7.139522, 0.117944, 0.791097, -51.621429, 4.683990, -626.081238
1733469406.280714, -32.092029, 13.005154, -10.355820, -7.024616, 0.341266, 0.051972, -51.579712, 5.483002, -622.591980
1733469406.290722, -32.443976, 13.701717, -12.823643, -6.708752, 0.488694, -0.717043, -51.709290, 5.707520, -619.742798
1733469406.300715, -32.288353, 14.094366, -15.296105, -6.219818, 0.552569, -1.474116, -52.525604, 5.564362, -617.210022
1733469406.310715, -31.660175, 14.714763, -17.275063, -5.607782, 0.506904, -2.169558, -53.311432, 5.035080, -614.749878
1733469406.320714, -30.833277, 15.733795, -19.011009, -4.902990, 0.461126, -2.786877, -54.433090, 4.452850, -612.936401
1733469406.330711, -29.594727, 16.747291, -20.335900, -4.191531, 0.420590, -3.275489, -56.108719, 3.413910, -611.544922
1733469406.340706, -27.909059, 17.362002, -20.982634, -3.569309, 0.429621, -3.649861, -57.848618, 2.480316, -609.894348
1733469406.350704, -26.780941, 17.668909, -21.574450, -3.062342, 0.647263, -3.996042, -59.620758, 1.076935, -609.290710
1733469406.360705, -25.686941, 18.021754, -22.038028, -2.633332, 0.946830, -4.341853, -61.435211, -0.575531, -609.117004
1733469406.370704, -24.116793, 18.406922, -22.255451, -2.201652, 1.201570, -4.651098, -63.383041, -2.189850, -608.703003
1733469406.380696, -22.042218, 18.904916, -22.703167, -1.697890, 1.418298, -4.861476, -65.339081, -4.088043, -608.356323
1733469406.390713, -19.832220, 19.431341, -23.026384, -1.151724, 1.606419, -4.966112, -67.717438, -5.948364, -608.941223
1733469406.400708, -17.815554, 19.857957, -22.994811, -0.602052, 1.783890, -4.994634, -69.406967, -7.611267, -609.579712
1733469406.410707, -16.173730, 20.187908, -22.705561, -0.077859, 1.977980, -5.012092, -71.606552, -9.719086, -610.404297
1733469406.420705, -14.811878, 20.348470, -22.213553, 0.433432, 2.173248, -5.061150, -73.301254, -11.857498, -611.861633
1733469406.430776, -13.423541, 20.246566, -21.588367, 0.898556, 2.389613, -5.067420, -75.214066, -13.924805, -613.100891
1733469406.440704, -11.631181, 20.849756, -20.653880, 1.381908, 2.484110, -4.989448, -76.656219, -16.058548, -614.953247
1733469406.450711, -10.239402, 20.620810, -19.626618, 1.915421, 2.531148, -4.936256, -77.719620, -18.795990, -616.429443
1733469406.460699, -8.899846, 20.377799, -18.536358, 2.440152, 2.500019, -4.859626, -79.148102, -20.975372, -618.421143
1733469406.470705, -7.678055, 20.152295, -17.083078, 2.918180, 2.404314, -4.793828, -80.153778, -23.487656, -619.783264
1733469406.480703, -6.776189, 19.541474, -15.699379, 3.334172, 2.345552, -4.753113, -81.022354, -25.967392, -620.818115
1733469406.490707, -5.781997, 18.869003, -14.419229, 3.664793, 2.370835, -4.704622, -81.706711, -28.470901, -623.218811
1733469406.500698, -4.619163, 18.312351, -13.065158, 3.906860, 2.457208, -4.612455, -81.922318, -31.283936, -624.915283
1733469406.510721, -3.393182, 17.873015, -11.654824, 4.102163, 2.565777, -4.441422, -82.082169, -33.928452, -626.457153
1733469406.520229, -1.956961, 17.384448, -10.319458, 4.265614, 2.695485, -4.180039, -82.128677, -36.701279, -628.372131
1733469406.530700, -0.411503, 16.827946, -8.991574, 4.388466, 2.852512, -3.810986, -82.096802, -39.128342, -629.653625
1733469406.540692, 1.008109, 16.196026, -7.610718, 4.477542, 2.960475, -3.379272, -81.785553, -41.582550, -631.174500
1733469406.550763, 2.157475, 15.257200, -6.161777, 4.535231, 3.008142, -2.926634, -81.537491, -43.902802, -632.603455
1733469406.560700, 2.973598, 14.110527, -4.931607, 4.549425, 3.051267, -2.493310, -81.004608, -45.868820, -633.909546
1733469406.570697, 3.391686, 12.964901, -3.678392, 4.511756, 3.051987, -2.096032, -80.366913, -47.642960, -635.099487
1733469406.580702, 3.659687, 11.919383, -2.539350, 4.426158, 3.048996, -1.729304, -79.890976, -49.430893, -635.535461
1733469406.590765, 3.920206, 11.000908, -1.638981, 4.296602, 3.088710, -1.390153, -79.096634, -51.021957, -636.983521
1733469406.600698, 4.121169, 10.201095, -0.823605, 4.134440, 3.151883, -1.055992, -78.415909, -52.256454, -638.042236
1733469406.610708, 4.538060, 9.380332, 0.130933, 3.943604, 3.203560, -0.720331, -77.636993, -53.398575, -638.848328
1733469406.620690, 5.073613, 8.630050, 1.324293, 3.710286, 3.173316, -0.358155, -76.995926, -54.408508, -639.095825
1733469406.630718, 5.559636, 8.044966, 2.429366, 3.439140, 3.092490, 0.033494, -76.571060, -55.112045, -640.159668
1733469406.640692, 5.768081, 7.429507, 3.178752, 3.143970, 3.044420, 0.423362, -75.855255, -55.665253, -640.922241
1733469406.650693, 5.789030, 6.647501, 3.574992, 2.846419, 3.004480, 0.787228, -75.014786, -56.213989, -641.838562
1733469406.660699, 5.664382, 5.916820, 3.917512, 2.588253, 2.935775, 1.137969, -74.391022, -56.375595, -642.851868
1733469406.670698, 5.543325, 5.581782, 4.071340, 2.278138, 2.680556, 1.850925, -74.062805, -56.090988, -643.010376
1733469406.680694, 5.422418, 5.152621, 4.283676, 2.209244, 2.493226, 2.220636, -73.559067, -56.010635, -643.093140
1733469406.690694, 5.280711, 4.737227, 4.525490, 2.197391, 2.272653, 2.627922, -73.016312, -55.645081, -644.263184
1733469406.700689, 4.647295, 4.521300, 5.157559, 2.203264, 2.055864, 3.041723, -72.749954, -55.307556, -644.680542
1733469406.710686, 3.899257, 4.316297, 5.921759, 2.147829, 1.854180, 3.420417, -72.823517, -54.631607, -645.133728
1733469406.720700, 3.032556, 4.113687, 6.853702, 1.965771, 1.714491, 3.747693, -72.564362, -53.716095, -645.515076
1733469406.730696, 2.143559, 3.921702, 7.731625, 1.644476, 1.633447, 4.030499, -72.489120, -52.600677, -645.671997
1733469406.740688, 1.227777, 3.748572, 8.622717, 1.196326, 1.556110, 4.255777, -72.320129, -51.323196, -646.169495
1733469406.750685, 0.471957, 3.604321, 9.204957, 0.710695, 1.465599, 4.492223, -72.138733, -49.889236, -646.591675
1733469406.760691, -0.130185, 3.771017, 9.150339, 0.308877, 1.396025, 4.797152, -71.563904, -48.291534, -647.056213
1733469406.770698, -0.855179, 3.904793, 9.308058, -0.025313, 1.253579, 5.120439, -71.457245, -46.244171, -647.714722
1733469406.780689, -1.643470, 3.983652, 9.677064, -0.362152, 1.088467, 5.473024, -70.987289, -44.104172, -647.578247
1733469406.790695, -2.720112, 4.184466, 9.752631, -0.719162, 1.013254, 5.809407, -70.851761, -41.569473, -648.488708
1733469406.800703, -4.447080, 4.120421, 9.941773, -1.150496, 1.059528, 6.055442, -70.253677, -38.805389, -648.864929
1733469406.810705, -6.430377, 3.918560, 10.641329, -1.697279, 1.101217, 6.187245, -69.737488, -35.844940, -649.207092
1733469406.820705, -8.374768, 3.633351, 11.564144, -2.353764, 1.079474, 6.214083, -68.536926, -32.723282, -649.485779
1733469406.830701, -10.270975, 3.522768, 12.412589, -3.062915, 0.933033, 6.175461, -67.454010, -29.390289, -649.565491
1733469406.840689, -11.962180, 3.777452, 12.713510, -3.739841, 0.695569, 6.131533, -65.899124, -25.999496, -649.247681
1733469406.850702, -13.920637, 4.115782, 12.101193, -4.315409, 0.466513, 6.033803, -64.528870, -22.427399, -648.783081
1733469406.860696, -16.144251, 4.356998, 11.069741, -4.786041, 0.288096, 5.855294, -62.915726, -19.016113, -648.405945
1733469406.870691, -18.629582, 4.640262, 10.130765, -5.240237, 0.175454, 5.546444, -61.269852, -15.261017, -647.041748
1733469406.880686, -21.260511, 5.049820, 9.460389, -5.712177, 0.050947, 5.105857, -59.859253, -11.778351, -644.759644
1733469406.890689, -23.574956, 5.741894, 8.713697, -6.194163, -0.033365, 4.604893, -58.020828, -8.581863, -643.440002
1733469406.900689, -25.508273, 6.914305, 8.133851, -6.693982, -0.135575, 4.125340, -56.236877, -5.527649, -640.989502
1733469406.910480, -27.750294, 8.645462, 7.003339, -7.196732, -0.179277, 3.586591, -54.596085, -2.544907, -638.441284
1733469406.920695, -30.195222, 10.238953, 4.968717, -7.664498, -0.138134, 2.913536, -53.312027, -0.107437, -635.430115
1733469406.930684, -31.795148, 11.609633, 2.546233, -8.030308, -0.136971, 2.170871, -52.108566, 1.839096, -632.177856
1733469406.940686, -32.720656, 13.252954, -0.254085, -8.213755, -0.163443, 1.426743, -51.483475, 3.661621, -628.588989
1733469406.950682, -33.204135, 15.391574, -3.265541, -8.215119, -0.214076, 0.760960, -50.600922, 5.116211, -624.854614
1733469406.960681, -33.803284, 17.507450, -6.145018, -8.079202, -0.232670, 0.128272, -50.486328, 5.806244, -620.801514
1733469406.970684, -34.506731, 18.909105, -9.406818, -7.784166, -0.074936, -0.539039, -50.655396, 6.206741, -617.648560
1733469406.980684, -34.714877, 19.749470, -12.826187, -7.291525, 0.291767, -1.196573, -51.300217, 5.862015, -613.997192
1733469406.990683, -33.865384, 20.011336, -15.628301, -6.655023, 0.779992, -1.805358, -52.236649, 5.480499, -611.599487
1733469407.000680, -31.942690, 19.465608, -17.526903, -5.918055, 1.257231, -2.280001, -53.466629, 4.798798, -609.493469
1733469407.010697, -29.609690, 18.910003, -18.328661, -5.155120, 1.658351, -2.637194, -54.845749, 3.703186, -607.525635
1733469407.020684, -27.657369, 18.775479, -18.068441, -4.497083, 1.901016, -2.921651, -56.379059, 2.633835, -606.203369
1733469407.030686, -26.253469, 19.092112, -17.255011, -4.006738, 1.960813, -3.225286, -58.096039, 1.218323, -605.659912
1733469407.040689, -25.251495, 19.541324, -16.880917, -3.643466, 1.953860, -3.583490, -60.110428, -0.075623, -604.905273
1733469407.050692, -24.085369, 20.020913, -17.279402, -3.293995, 1.938934, -3.936626, -61.933517, -1.563354, -604.379761
1733469407.060688, -22.725463, 20.513969, -18.186057, -2.872086, 1.941422, -4.263402, -63.800293, -3.154602, -603.677246
1733469407.070680, -20.995652, 20.578313, -19.586964, -2.333186, 2.028722, -4.501647, -65.735962, -5.008713, -603.716064
1733469407.080691, -19.097798, 20.615573, -20.934151, -1.674399, 2.209789, -4.638894, -67.806656, -6.794678, -603.684692
1733469407.090690, -17.207576, 20.554371, -21.656302, -0.937258, 2.432042, -4.677946, -69.480316, -8.514633, -604.952393
1733469407.100687, -15.449783, 20.740221, -21.613506, -0.190170, 2.681591, -4.661052, -71.584625, -10.217224, -605.904846
1733469407.110680, -13.951612, 21.111621, -20.674081, 0.451643, 2.833056, -4.637761, -73.421661, -12.264114, -607.131470
1733469407.120677, -12.497882, 21.553052, -19.128624, 0.966059, 2.848916, -4.626889, -75.266357, -13.995499, -608.847290
1733469407.130688, -11.215638, 21.668273, -17.981652, 1.420632, 2.811396, -4.645921, -76.905869, -16.223618, -610.469360
1733469407.140741, -9.950601, 21.424214, -17.262793, 1.880163, 2.730111, -4.657726, -78.193054, -18.293716, -612.387329
1733469407.150671, -8.573786, 21.169082, -16.490363, 2.351063, 2.598751, -4.616460, -79.404938, -20.508026, -613.923828
1733469407.160684, -7.270891, 20.810102, -15.724069, 2.842026, 2.458476, -4.521412, -80.353729, -22.738342, -615.716797
1733469407.170691, -6.131251, 20.142718, -14.862755, 3.300999, 2.382924, -4.388824, -81.255371, -25.005341, -618.092957
1733469407.180679, -5.182848, 19.484312, -13.870807, 3.670547, 2.411980, -4.225670, -81.689117, -27.434662, -619.151794
1733469407.190675, -4.364181, 18.827403, -12.777854, 3.936071, 2.552681, -4.037210, -82.453903, -29.662964, -620.855042
1733469407.200673, -3.461866, 18.027291, -11.654375, 4.129437, 2.747101, -3.816269, -82.801300, -31.829163, -623.258057
1733469407.210715, -2.541445, 17.153258, -10.457424, 4.285478, 2.969995, -3.584214, -82.880005, -34.136154, -624.856201
1733469407.220677, -1.675642, 16.236727, -9.154829, 4.415004, 3.120945, -3.339459, -82.784210, -36.459473, -626.718811
1733469407.230672, -0.661249, 15.352369, -7.773973, 4.532604, 3.216290, -3.071161, -82.724564, -38.703415, -628.473389
1733469407.240671, 0.482432, 14.482975, -6.459706, 4.634254, 3.249922, -2.781222, -82.722809, -40.691757, -629.860229
1733469407.249934, 1.479018, 13.608493, -5.146486, 4.690411, 3.249349, -2.473110, -82.299728, -42.875259, -631.420166
1733469407.260671, 2.492214, 12.747927, -3.845537, 4.695874, 3.202456, -2.130222, -81.596970, -44.861771, -632.600281
1733469407.270678, 3.453636, 12.059145, -2.689886, 4.637577, 3.161364, -1.742297, -80.978165, -46.574249, -633.790771
1733469407.280683, 4.107253, 11.377695, -1.893664, 4.552559, 3.156823, -1.328635, -80.439026, -48.077713, -634.535889
1733469407.290678, 4.599710, 10.602124, -1.025616, 4.428834, 3.192280, -0.903298, -79.970337, -49.347244, -636.008850
1733469407.300677, 5.057003, 9.789142, -0.151882, 4.273571, 3.195233, -0.478518, -79.352600, -50.412018, -637.329468
1733469407.310671, 5.331139, 9.001600, 0.997634, 4.112463, 3.119487, -0.080254, -78.676270, -51.481689, -638.214478
1733469407.320672, 5.487959, 8.102876, 2.058415, 3.952889, 2.969175, 0.303122, -77.978470, -52.349319, -639.089539
1733469407.330671, 5.430648, 7.315932, 3.185635, 3.779276, 2.813076, 0.656626, -77.367493, -53.005569, -639.973999
1733469407.340674, 5.140201, 6.434866, 4.420444, 3.516859, 2.618626, 0.950740, -77.037521, -53.281876, -640.683350
1733469407.350668, 4.999243, 5.490802, 5.508310, 3.168892, 2.413686, 1.228156, -76.334503, -53.702942, -641.244812
1733469407.360671, 4.717475, 4.735432, 5.887043, 2.795201, 2.330598, 1.461190, -75.946259, -53.800034, -641.674683
1733469407.370667, 4.195389, 4.103961, 5.944952, 2.417112, 2.326143, 1.638424, -75.822479, -53.703125, -641.745667
1733469407.380669, 3.917812, 3.735104, 6.263381, 2.056352, 2.226202, 1.803803, -75.296722, -53.554749, -641.960144
1733469407.390685, 3.865738, 3.713107, 6.541408, 1.796749, 1.986052, 1.993679, -75.152817, -52.926971, -643.096252
1733469407.400668, 3.866336, 3.631405, 6.420950, 1.681936, 1.681229, 2.231592, -75.054001, -52.370071, -643.770264
1733469407.410670, 3.760992, 3.435530, 6.033089, 1.690531, 1.430367, 2.541852, -74.688583, -51.732498, -643.942139
1733469407.420666, 3.377770, 3.194164, 5.557092, 1.747464, 1.324724, 2.875777, -74.387115, -50.986786, -644.458618
1733469407.430678, 2.809147, 2.912397, 5.610512, 1.773246, 1.320471, 3.211068, -74.349747, -49.942505, -644.313049
1733469407.440665, 2.206855, 2.807351, 6.329371, 1.730842, 1.350692, 3.543334, -74.191040, -48.868774, -645.084167
1733469407.450664, 1.512986, 2.760365, 7.541137, 1.566193, 1.365308, 3.834731, -74.019073, -47.702408, -645.347290
1733469407.460664, 0.797269, 2.721010, 9.283517, 1.242441, 1.247925, 4.092872, -73.729385, -46.448761, -645.877625
1733469407.470663, 0.244209, 2.817078, 10.976218, 0.786830, 1.028727, 4.348546, -73.712387, -44.874039, -645.944092
1733469407.480663, -0.515651, 2.921525, 12.063335, 0.226299, 0.819612, 4.569617, -73.360657, -42.783127, -645.830322
1733469407.490664, -1.379958, 3.218106, 12.532000, -0.368598, 0.627399, 4.815679, -73.051559, -40.389297, -646.565308
1733469407.500662, -2.326565, 3.450643, 12.398972, -0.912352, 0.499854, 5.076746, -72.832825, -37.801331, -646.211792
1733469407.510666, -3.367894, 3.481020, 12.043134, -1.392159, 0.385378, 5.349741, -72.048569, -35.221680, -646.419312
1733469407.520225, -4.797980, 3.489399, 11.805509, -1.806794, 0.292077, 5.586435, -71.384048, -32.312332, -646.285156
1733469407.530684, -6.621165, 3.562572, 11.778425, -2.216074, 0.217136, 5.753509, -70.428268, -29.279785, -646.772949
1733469407.540449, -8.529493, 3.664625, 12.152219, -2.676735, 0.166539, 5.863660, -69.301178, -26.018127, -646.179077
1733469407.550676, -10.694899, 3.487604, 12.969241, -3.243263, 0.074559, 5.913564, -67.847015, -22.690613, -645.573975
1733469407.560669, -13.227366, 3.437325, 13.612533, -3.884476, -0.037114, 5.880583, -66.293610, -19.190323, -644.529968
1733469407.570668, -16.034268, 3.534739, 13.744962, -4.538987, -0.102362, 5.746166, -64.794479, -15.581314, -643.514038
1733469407.580660, -19.101390, 3.829077, 13.890260, -5.256673, -0.220330, 5.502510, -63.112793, -12.111801, -641.615479
1733469407.590662, -22.681918, 4.637718, 13.999496, -6.020930, -0.459830, 5.079544, -61.366577, -8.813675, -639.727417
1733469407.600672, -26.515334, 6.199935, 13.173646, -6.727547, -0.757641, 4.520273, -61.366577, -8.813675, -639.727417
1733469407.610677, -29.660268, 7.794772, 11.078270, -7.296126, -1.067303, 3.896567, -59.818405, -5.781342, -636.725037
1733469407.620683, -32.746693, 9.348011, 8.184279, -7.711419, -1.375506, 3.172528, -58.423401, -3.028488, -633.861450
1733469407.630671, -35.552249, 10.747272, 4.132991, -7.915497, -1.419624, 2.410362, -57.112625, -0.841858, -630.285889
1733469407.640672, -37.863701, 11.966968, -0.617854, -7.959897, -1.101041, 1.548308, -56.468964, 1.020416, -626.627441
1733469407.650664, -39.215228, 13.521553, -4.353556, -7.987223, -0.678807, 0.665616, -55.853363, 2.318985, -623.006104
1733469407.660665, -38.692543, 15.003115, -7.421127, -7.899982, -0.369626, -0.069673, -55.822098, 2.977661, -619.515564
1733469407.670675, -37.652263, 16.010625, -10.833912, -7.555370, -0.056581, -0.675092, -55.908127, 3.257629, -616.488464
1733469407.680671, -36.619165, 16.503531, -14.271387, -6.950346, 0.286244, -1.170799, -56.474472, 2.742508, -613.181580
1733469407.690665, -35.342008, 16.565032, -16.737864, -6.186840, 0.640466, -1.585197, -57.088272, 2.237671, -610.654175
1733469407.700674, -34.062008, 16.385916, -17.902044, -5.435011, 0.881947, -1.997784, -58.097626, 1.443527, -608.747864
1733469407.710666, -32.993745, 16.012121, -18.213291, -4.778233, 1.092156, -2.457641, -59.310043, 0.338364, -607.289551
1733469407.720666, -31.887025, 16.501287, -18.145355, -4.298216, 1.247879, -2.937255, -60.583145, -0.792542, -605.970337
1733469407.730672, -30.243256, 17.060632, -17.850719, -3.934927, 1.326987, -3.395495, -62.044693, -2.328354, -604.697266
1733469407.740670, -28.476635, 17.442807, -18.249952, -3.523587, 1.366361, -3.834394, -63.894577, -3.838638, -604.230713
1733469407.750662, -26.594942, 17.685668, -19.026272, -3.045788, 1.404895, -4.225200, -65.588058, -5.815094, -603.742615
1733469407.760664, -24.558673, 18.063803, -19.922451, -2.495967, 1.477491, -4.517957, -67.210327, -7.810837, -604.056763
1733469407.770662, -22.319346, 18.780716, -20.913651, -1.877484, 1.645727, -4.678636, -69.115448, -9.635757, -603.825684
1733469407.780670, -20.147955, 19.379267, -21.612907, -1.222768, 1.873525, -4.743983, -70.957108, -11.557022, -603.990051
1733469407.790676, -18.170195, 19.423560, -21.703139, -0.541008, 2.081343, -4.785320, -72.956757, -13.843964, -604.897217
1733469407.800661, -16.314689, 19.362208, -21.287146, 0.175611, 2.217782, -4.824209, -74.690781, -15.972153, -605.912903
1733469407.810666, -14.514249, 19.495834, -20.436456, 0.863555, 2.276372, -4.837078, -76.232803, -17.989182, -607.345032
1733469407.820661, -12.888287, 19.703083, -19.260604, 1.493329, 2.303209, -4.820391, -77.646378, -20.340469, -608.625122
1733469407.830673, -11.533767, 19.826534, -18.036868, 2.050596, 2.344540, -4.781558, -79.008423, -22.381989, -609.919006
1733469407.840678, -10.036793, 19.860651, -16.736517, 2.515580, 2.412439, -4.704259, -80.160873, -24.579285, -611.289246
1733469407.850658, -8.535778, 19.676597, -15.421951, 2.883286, 2.509218, -4.591911, -80.935196, -26.765686, -613.285156
1733469407.860660, -7.065588, 19.299360, -14.285752, 3.195434, 2.617318, -4.436601, -81.792267, -29.183243, -615.106812
1733469407.870658, -5.637297, 18.674324, -13.250709, 3.494419, 2.688659, -4.260485, -82.466537, -31.262482, -617.125366
1733469407.880650, -4.307019, 17.875858, -12.043134, 3.796047, 2.649113, -4.073049, -82.908539, -33.664719, -618.619934
1733469407.890651, -3.004274, 17.110162, -10.876858, 4.092524, 2.562067, -3.847481, -83.222855, -35.926666, -620.155029
1733469407.900701, -1.859696, 16.272940, -9.826253, 4.370815, 2.499852, -3.603179, -83.741486, -38.064026, -621.537231
1733469407.910668, -0.877325, 15.360300, -8.771906, 4.584251, 2.519969, -3.346343, -83.848907, -40.333191, -622.424072
1733469407.920654, 0.006285, 14.443620, -7.641394, 4.717910, 2.569663, -3.088851, -83.470505, -42.465836, -623.709229
1733469407.930652, 0.796072, 13.573477, -6.322488, 4.807744, 2.620156, -2.837977, -83.327637, -44.437973, -625.148438
1733469407.940654, 1.678036, 12.728175, -5.340416, 4.846570, 2.739907, -2.559890, -83.221039, -46.195282, -626.619690
1733469407.950644, 2.600402, 12.012608, -4.325574, 4.817619, 2.878492, -2.230580, -82.635361, -48.011475, -627.588989
1733469407.960655, 3.242497, 11.512369, -3.272724, 4.735135, 3.035090, -1.879386, -82.213669, -49.599380, -628.669128
1733469407.970655, 3.583970, 10.969035, -2.393603, 4.630556, 3.176322, -1.521981, -81.528809, -51.068192, -629.782837
1733469407.980651, 3.932027, 10.506355, -1.364695, 4.537838, 3.256435, -1.134203, -81.156799, -52.397308, -629.865601
1733469407.990645, 4.320038, 10.135553, 0.030376, 4.450785, 3.211574, -0.734421, -80.699615, -53.322021, -631.147766
1733469408.000646, 4.576816, 9.519047, 1.552490, 4.325314, 3.040758, -0.338856, -80.012619, -54.483078, -632.314636
1733469408.010647, 4.709844, 8.865429, 2.782661, 4.162432, 2.817536, 0.038804, -79.492828, -55.163788, -632.981567
1733469408.020662, 4.767753, 8.092701, 3.452289, 3.993899, 2.672694, 0.403812, -79.497162, -55.600403, -633.625183
1733469408.030661, 4.655375, 7.381623, 3.976320, 3.819794, 2.682789, 0.760605, -78.927139, -55.796219, -634.180298
1733469408.040674, 4.562151, 6.806715, 4.914249, 3.563455, 2.716165, 1.100803, -78.659515, -56.169647, -634.629944
1733469408.050656, 4.660314, 6.316802, 6.222530, 3.232127, 2.673144, 1.434992, -78.379654, -56.167770, -635.503662
1733469408.060652, 5.087978, 5.897667, 7.373842, 2.911637, 2.503406, 1.817997, -78.213165, -55.926224, -636.169495
1733469408.070648, 5.423016, 5.677550, 8.203732, 2.678920, 2.219474, 2.271950, -77.883499, -55.410156, -636.221069
1733469408.080660, 5.352986, 5.305102, 8.552088, 2.544077, 1.954300, 2.767834, -77.733032, -54.799469, -635.921692
1733469408.090647, 4.866664, 4.817433, 9.044246, 2.384856, 1.780610, 3.262611, -77.761490, -53.690811, -637.711487
1733469408.100673, 3.951779, 4.228908, 10.007314, 2.073504, 1.724610, 3.705194, -77.610336, -52.483627, -637.861023
1733469408.110649, 2.917035, 3.724480, 10.899005, 1.587919, 1.798955, 4.099942, -77.560745, -50.882202, -638.619141
1733469408.120644, 1.705270, 3.521272, 11.799673, 0.983035, 1.924413, 4.440579, -77.570068, -49.073013, -639.143677
1733469408.130643, 0.307655, 3.061436, 12.730270, 0.335586, 1.997275, 4.721891, -77.278809, -46.850250, -639.741882
1733469408.140651, -1.165078, 2.494459, 13.310265, -0.301748, 2.004446, 4.914237, -77.113724, -44.598450, -640.886780
1733469408.150641, -2.519748, 2.118270, 13.647698, -0.896025, 1.907055, 5.039848, -76.328644, -42.201126, -642.036316
1733469408.160642, -3.531747, 2.049586, 14.074464, -1.439641, 1.613338, 5.133008, -76.163498, -39.385376, -642.520020
1733469408.170640, -4.402189, 2.320879, 14.192678, -1.886174, 1.208507, 5.251445, -75.120270, -36.643158, -642.831726
1733469408.180649, -5.407454, 2.433556, 14.217069, -2.258950, 0.711677, 5.366593, -74.340164, -33.880112, -642.311951
1733469408.190653, -6.709301, 2.560748, 14.503774, -2.619123, 0.207777, 5.481774, -73.510300, -30.537506, -642.819763
1733469408.200108, -8.504055, 2.782212, 14.629470, -2.992651, -0.162470, 5.582476, -72.641586, -27.098190, -641.973389
1733469408.210660, -10.643723, 2.902072, 14.613459, -3.398358, -0.366652, 5.706893, -71.643417, -23.791641, -641.450439
1733469408.220658, -12.783092, 2.935142, 14.369699, -3.883318, -0.312865, 5.830658, -70.284485, -20.414459, -640.860718
1733469408.230643, -15.429582, 2.825008, 14.581287, -4.555445, -0.043524, 5.856235, -68.376892, -16.700623, -639.414185
1733469408.240642, -18.269405, 3.090615, 15.387085, -5.477745, 0.203803, 5.749269, -66.730835, -13.155197, -638.178711
1733469408.250638, -21.518187, 4.215740, 15.760730, -6.468287, 0.295373, 5.464551, -64.864319, -9.765991, -636.089539
1733469408.260645, -25.180567, 5.976975, 14.665982, -7.284389, 0.207725, 4.992360, -62.963608, -6.606003, -633.737915
1733469408.270643, -28.644378, 7.317279, 12.249634, -7.814679, -0.081590, 4.335869, -61.322052, -3.690765, -631.086914
1733469408.280643, -32.180315, 8.015338, 9.561544, -8.097883, -0.531739, 3.495831, -59.976944, -1.542770, -627.023926
1733469408.290719, -35.479974, 8.464550, 6.256199, -8.199075, -0.850595, 2.492679, -58.915359, 0.135696, -623.989380
1733469408.300653, -38.218641, 9.538799, 2.222268, -8.200239, -0.743622, 1.422170, -58.188171, 1.310608, -620.281189
1733469408.310645, -39.345113, 11.399991, -1.486500, -8.187824, -0.393046, 0.444541, -57.979660, 1.848816, -616.740723
1733469408.320639, -38.864327, 13.533973, -4.207361, -8.056759, -0.149949, -0.382764, -58.122711, 1.692551, -613.446228
1733469408.330639, -38.122574, 15.592538, -6.560711, -7.750385, -0.047693, -1.091971, -58.553589, 1.177841, -610.418396
1733469408.340644, -37.188386, 17.094151, -9.009381, -7.350317, -0.008944, -1.693792, -59.475006, 0.181091, -607.527222
1733469408.350645, -36.258388, 18.331205, -11.596016, -6.915195, 0.123716, -2.243872, -60.317200, -0.999207, -605.204956
1733469408.360645, -35.229031, 19.474586, -14.118757, -6.485746, 0.356352, -2.764817, -61.699402, -2.588226, -602.841125
1733469408.370631, -34.067694, 20.918888, -16.103251, -6.035454, 0.549216, -3.229602, -62.733948, -4.427795, -601.376709
1733469408.380650, -32.093375, 21.593005, -18.649933, -5.401662, 0.841389, -3.564435, -64.295212, -6.412857, -599.316895
1733469408.390639, -29.569438, 21.206641, -21.500081, -4.536736, 1.236009, -3.745175, -65.704208, -8.318115, -599.642639
1733469408.400646, -27.027394, 20.371813, -23.560291, -3.536642, 1.654807, -3.784481, -67.325409, -10.170715, -599.116333
1733469408.410649, -24.650251, 19.272725, -24.278103, -2.554996, 2.088832, -3.765598, -69.237427, -11.948746, -599.754883
1733469408.420634, -22.776340, 18.223765, -23.420380, -1.764811, 2.484340, -3.790488, -71.182266, -13.797623, -600.176636
1733469408.430634, -21.563078, 17.872117, -21.209634, -1.238599, 2.753233, -3.900158, -72.795959, -15.493591, -601.314819
1733469408.440648, -20.466833, 17.950527, -19.198056, -0.883467, 2.930101, -4.064475, -74.405838, -17.501770, -602.724976
1733469408.450632, -19.315222, 18.164509, -18.482189, -0.506708, 3.109514, -4.240282, -76.119202, -19.379974, -603.730957
1733469408.460699, -18.015320, 18.152687, -18.602049, -0.010237, 3.298053, -4.422474, -77.615982, -21.599365, -605.750122
1733469408.470626, -16.461633, 17.937359, -18.517055, 0.626579, 3.401812, -4.613311, -79.277771, -23.801147, -607.518677
1733469408.480641, -14.800206, 18.034025, -17.717840, 1.361163, 3.361609, -4.778955, -80.136383, -26.070206, -608.924927
1733469408.490628, -13.112294, 18.394801, -16.253188, 2.083330, 3.174552, -4.911375, -81.417023, -28.563782, -611.778076
1733469408.500682, -11.452813, 18.640207, -14.346056, 2.705251, 2.915192, -4.993194, -82.027649, -31.082367, -613.302979
1733469408.510623, -9.797522, 18.736723, -12.602928, 3.192673, 2.707208, -5.013263, -82.753555, -33.483566, -614.881348
1733469408.520156, -8.111555, 18.563742, -11.170447, 3.518931, 2.608157, -4.940390, -83.261551, -35.905334, -616.129578
1733469408.530638, -6.445490, 18.274941, -9.917382, 3.728448, 2.593631, -4.765007, -83.213394, -38.802032, -617.807861
1733469408.540632, -4.814740, 17.842788, -8.976610, 3.884870, 2.685670, -4.497411, -83.138336, -40.879562, -619.157532
1733469408.550683, -3.280356, 17.258603, -8.398560, 4.010372, 2.925667, -4.107399, -83.276672, -43.359909, -620.630127
1733469408.560630, -1.851167, 16.607380, -7.869292, 4.099277, 3.297472, -3.630672, -83.015961, -45.612991, -622.893616
1733469408.570645, -0.699855, 15.805322, -7.040300, 4.147806, 3.688721, -3.113776, -82.921951, -47.273834, -624.195068
1733469408.580637, 0.201562, 14.806940, -5.896919, 4.201613, 3.996377, -2.610687, -82.786743, -49.063751, -625.536865
1733469408.590699, 0.777218, 13.675231, -4.750844, 4.268790, 4.207556, -2.163800, -82.153030, -50.553070, -627.415039
1733469408.600626, 1.284938, 12.655151, -3.566912, 4.336645, 4.282050, -1.752745, -81.700455, -52.101562, -628.682434
1733469408.610621, 1.881394, 11.825561, -2.139070, 4.395648, 4.184617, -1.369984, -81.113312, -53.262894, -630.339844
1733469408.620508, 2.421585, 11.141567, -0.488716, 4.400609, 3.967239, -1.030054, -80.662231, -54.424774, -631.551392
1733469408.630302, 2.803161, 10.362554, 0.964564, 4.302294, 3.735278, -0.718359, -80.028015, -55.549362, -632.466431
1733469408.640636, 3.061436, 9.443928, 2.346617, 4.093507, 3.478093, -0.447767, -79.138733, -56.560104, -633.170044
1733469408.650627, 3.544316, 8.507646, 3.483863, 3.806675, 3.197499, -0.177290, -78.650711, -57.022690, -634.367798
1733469408.660623, 4.092439, 7.773973, 3.792715, 3.515973, 3.041692, 0.127283, -78.117203, -57.596481, -635.085266
1733469408.670624, 4.489876, 7.030424, 3.760094, 3.277640, 2.966164, 0.454111, -77.587204, -57.771973, -635.767578
1733469408.680636, 4.900482, 6.148609, 3.830573, 3.072943, 2.956235, 0.796931, -77.436584, -58.156448, -636.076355
1733469408.690627, 5.307945, 5.599888, 4.100669, 2.902492, 2.943484, 1.187487, -76.940674, -58.025436, -637.246948
1733469408.700621, 5.709423, 5.271583, 4.619014, 2.751795, 2.887358, 1.613436, -76.658279, -57.688858, -637.747498
1733469408.710679, 5.891532, 4.831499, 5.301810, 2.591311, 2.767012, 2.076302, -76.442276, -57.240219, -638.631348
1733469408.720633, 5.918915, 4.712986, 5.957971, 2.409642, 2.622066, 2.572613, -76.066864, -56.409546, -638.907349
1733469408.730633, 5.765088, 4.794688, 6.729802, 2.195937, 2.406418, 3.095778, -75.978012, -55.476959, -639.346985
1733469408.740696, 5.351490, 4.800674, 7.435343, 1.943097, 2.125509, 3.592719, -76.226166, -54.069061, -639.947144
1733469408.750622, 4.660912, 4.780622, 7.786842, 1.686137, 1.846380, 4.069863, -76.170135, -52.596878, -640.788696
1733469408.760616, 3.805733, 4.751892, 7.768436, 1.472141, 1.634101, 4.526267, -76.015625, -50.617401, -641.170166
1733469408.770641, 2.676269, 4.689643, 7.857471, 1.245064, 1.524567, 4.939948, -75.638306, -48.735764, -641.277283
1733469408.780638, 1.213262, 4.313304, 8.199243, 0.949483, 1.505818, 5.289011, -75.668808, -46.442215, -641.243042
1733469408.790641, -0.374992, 3.679888, 8.511537, 0.554862, 1.584387, 5.542369, -75.474350, -43.995422, -642.640869
1733469408.800619, -1.759888, 3.433584, 8.949675, 0.085171, 1.692669, 5.746206, -75.009949, -41.175278, -643.309143
1733469408.810617, -2.879925, 3.352481, 9.493907, -0.405347, 1.713429, 5.920486, -74.245911, -38.391693, -643.800232
1733469408.820675, -4.232799, 3.310882, 10.303148, -0.892404, 1.614039, 6.036140, -73.494843, -35.528168, -644.423950
1733469408.830622, -5.941062, 3.103634, 11.488726, -1.413648, 1.339300, 6.074808, -72.424438, -32.362778, -644.555603
1733469408.840631, -7.619696, 2.783409, 12.523171, -1.930955, 0.988445, 6.092574, -71.122269, -29.100937, -644.783569
1733469408.850618, -9.415048, 2.908656, 12.831724, -2.421108, 0.695751, 6.104930, -70.005859, -25.532379, -644.112244
1733469408.860621, -11.365724, 3.088819, 12.856414, -2.919363, 0.470969, 6.120910, -68.499207, -22.265656, -644.020325
1733469408.870620, -13.278392, 3.024924, 12.510901, -3.411664, 0.408959, 6.153785, -66.945175, -18.763535, -643.309570
1733469408.880618, -15.482704, 2.645294, 12.134712, -3.943571, 0.513621, 6.134437, -65.279770, -15.356964, -642.368042
1733469408.890620, -18.553417, 2.218228, 12.349591, -4.606328, 0.669421, 5.897686, -63.347717, -11.863480, -641.929138
1733469408.900618, -21.733814, 2.268057, 12.696152, -5.407028, 0.761531, 5.444356, -61.057816, -8.546341, -639.823181
1733469408.910623, -24.019828, 2.917634, 12.710667, -6.218279, 0.689520, 4.886058, -59.337234, -5.431839, -637.693420
1733469408.920630, -25.893141, 4.191200, 12.215067, -6.914787, 0.412752, 4.318316, -57.813766, -2.945724, -635.065247
1733469408.930618, -28.042536, 5.780052, 10.810718, -7.453955, -0.018040, 3.687542, -56.292038, -0.503479, -631.928711
1733469408.940619, -30.673614, 7.385962, 8.328230, -7.816207, -0.403474, 2.957044, -55.284332, 1.597946, -628.466248
1733469408.950618, -32.504879, 8.393024, 4.882675, -8.011870, -0.562528, 2.237610, -54.456894, 3.249298, -624.623474
1733469408.960617, -33.925239, 9.701305, 1.457770, -8.129200, -0.414947, 1.531317, -53.825623, 4.092758, -621.138184
1733469408.970615, -35.590706, 11.929708, -1.204134, -8.250016, -0.208179, 0.736885, -54.051346, 4.312546, -617.408325
1733469408.980614, -36.659567, 14.269143, -3.650559, -8.240365, -0.053953, -0.082053, -54.314392, 4.376877, -612.916565
1733469408.990616, -36.868760, 15.921591, -6.642862, -8.040319, 0.120273, -0.892760, -55.117630, 3.946869, -610.771179
1733469409.000616, -36.677673, 17.550845, -9.898827, -7.651710, 0.332439, -1.683345, -56.291718, 2.915222, -607.780090
1733469409.010615, -35.848830, 19.141942, -12.906543, -7.094276, 0.624645, -2.404125, -57.936768, 1.616318, -605.707703
1733469409.020616, -34.047493, 20.238636, -15.215301, -6.454081, 0.834092, -2.987316, -59.739990, -0.009018, -603.821777
1733469409.030634, -31.718533, 20.640712, -16.908301, -5.741879, 1.006894, -3.467956, -61.409607, -1.880005, -602.460083
1733469409.040620, -29.466787, 21.023335, -18.309807, -4.994882, 1.110073, -3.868030, -63.029037, -3.632004, -601.470825
1733469409.050618, -27.209354, 21.843648, -19.056199, -4.265653, 1.055114, -4.119782, -64.853699, -5.417862, -600.267395
1733469409.060607, -24.801834, 22.309021, -20.115633, -3.527425, 1.059581, -4.215179, -66.766525, -7.317184, -600.270752
1733469409.070626, -22.840684, 22.252907, -21.663335, -2.803356, 1.256710, -4.237780, -66.766525, -7.317184, -600.270752
1733469409.080621, -21.235821, 21.981914, -22.812253, -2.104389, 1.634564, -4.231624, -68.529297, -9.261749, -600.456055
1733469409.090641, -19.724930, 21.601834, -23.303513, -1.423180, 2.076190, -4.236017, -70.047913, -11.114426, -600.618469
1733469409.100623, -18.141913, 21.256022, -23.022045, -0.730452, 2.410415, -4.270535, -72.402405, -12.766266, -602.117615
1733469409.110615, -16.380828, 20.902428, -22.349124, -0.009881, 2.619570, -4.328316, -73.917236, -14.659393, -603.194946
1733469409.120619, -14.564976, 20.672285, -21.551556, 0.686999, 2.768877, -4.377457, -75.861984, -16.733704, -604.923096
1733469409.130675, -12.724134, 20.529830, -20.541951, 1.334219, 2.893719, -4.386479, -77.459412, -18.506271, -606.507202
1733469409.140695, -10.960655, 20.477308, -19.176807, 1.925704, 2.984876, -4.336797, -78.648285, -20.545883, -608.500977
1733469409.150650, -9.261969, 20.407726, -17.255460, 2.462497, 2.908575, -4.229951, -80.115372, -22.259857, -610.320007
1733469409.159793, -7.623587, 20.093188, -15.260043, 2.945413, 2.738897, -4.070685, -80.956818, -24.249680, -612.256836
1733469409.170611, -5.330540, 18.706646, -12.053758, 3.606844, 2.478629, -3.718092, -81.780930, -26.397217, -614.033691
1733469409.180610, -4.397251, 17.955764, -11.055226, 3.796148, 2.540260, -3.503316, -82.289108, -28.153992, -615.882263
1733469409.190611, -3.438074, 17.149218, -10.333225, 3.951261, 2.694529, -3.247895, -82.910110, -29.958298, -617.174805
1733469409.200262, -3.438074, 17.149218, -10.333225, 3.951261, 2.694529, -3.247895, -83.214294, -31.775497, -619.032593
1733469409.210614, -1.966837, 15.297153, -9.041403, 4.283973, 3.151445, -2.693022, -83.485657, -33.567780, -621.112061
1733469409.220606, -1.288679, 14.460379, -8.242488, 4.489263, 3.356900, -2.410408, -83.635147, -35.377975, -622.672119
1733469409.230611, -0.680701, 13.774890, -6.910863, 4.708139, 3.422801, -2.134262, -83.654358, -37.083511, -624.840088
1733469409.240607, -0.174477, 13.006201, -5.500529, 4.900182, 3.399321, -1.899644, -83.591171, -38.656219, -626.096802
1733469409.250605, 0.249596, 12.126482, -3.953725, 5.050351, 3.283119, -1.688110, -83.185028, -40.265335, -627.999451
1733469409.260604, 0.757914, 11.454160, -2.274492, 5.102204, 3.116573, -1.489125, -83.178574, -42.003647, -630.011719
1733469409.270606, 1.335815, 10.725425, -0.927155, 5.031456, 2.964838, -1.276938, -82.669907, -43.578735, -631.775330
1733469409.280632, 1.980154, 10.182989, 0.202310, 4.907264, 2.813087, -1.016006, -81.953918, -44.932663, -632.613098
1733469409.290606, 2.603245, 9.551219, 1.106570, 4.745615, 2.715413, -0.709061, -81.031830, -46.235016, -633.560852
1733469409.300613, 3.199402, 8.785224, 1.824980, 4.527227, 2.687495, -0.357759, -80.888474, -47.403137, -634.351562
1733469409.310608, 3.629909, 8.126669, 2.576760, 4.278541, 2.710665, 0.037818, -80.144409, -48.495026, -635.044678
1733469409.320611, 3.903297, 7.488015, 3.479822, 3.989037, 2.705436, 0.436816, -79.675552, -49.427032, -636.442322
1733469409.330602, 3.862296, 6.655731, 4.353108, 3.669644, 2.679461, 0.812961, -79.206207, -49.804321, -637.136719
1733469409.340603, 3.596839, 5.901258, 4.866514, 3.345309, 2.689194, 1.141930, -79.029953, -50.165771, -637.804932
1733469409.350601, 3.408894, 5.262755, 5.372888, 3.003102, 2.686958, 1.451612, -78.313248, -50.229736, -638.318054
1733469409.360608, 3.359663, 4.811896, 5.774814, 2.694893, 2.667428, 1.766876, -77.739746, -50.324188, -639.444092
1733469409.370601, 3.271976, 4.433313, 6.266524, 2.431638, 2.587083, 2.083518, -77.334488, -50.178635, -640.224365
1733469409.380603, 3.233369, 3.878756, 7.129633, 2.183415, 2.341886, 2.397407, -76.951660, -49.621490, -640.983521
1733469409.390602, 3.258508, 3.462913, 7.865850, 1.983285, 1.974822, 2.739823, -76.804901, -49.117279, -641.967285
1733469409.400614, 3.169175, 3.181744, 8.296807, 1.830832, 1.585003, 3.099727, -76.430374, -48.276566, -642.086975
1733469409.410602, 2.739865, 2.944120, 8.501511, 1.672523, 1.274842, 3.469217, -75.919357, -47.492218, -642.558350
1733469409.420602, 2.100014, 2.569278, 8.427440, 1.472535, 1.111839, 3.833707, -75.611633, -46.288452, -643.333374
1733469409.430598, 1.458817, 2.356942, 8.584709, 1.212629, 1.037723, 4.184840, -75.683578, -44.709747, -643.430359
1733469409.440606, 0.686837, 2.260276, 9.110835, 0.870567, 0.992174, 4.485310, -75.427841, -43.159348, -643.989807
1733469409.450601, -0.273687, 2.067692, 9.894487, 0.453228, 0.903318, 4.723421, -75.095673, -41.464569, -644.414734
1733469409.460597, -1.339107, 1.937358, 10.642526, 0.005393, 0.743399, 4.907737, -74.870636, -39.566605, -644.916199
1733469409.470602, -2.518999, 2.004695, 11.039664, -0.421360, 0.558165, 5.069642, -74.234573, -37.264313, -644.880249
1733469409.480602, -3.696348, 2.110489, 11.316942, -0.801505, 0.345848, 5.261104, -73.653748, -35.056320, -644.580200
1733469409.490595, -4.752191, 2.200421, 11.400440, -1.134913, 0.203155, 5.491130, -73.111526, -32.267685, -645.288513
1733469409.500598, -6.142175, 2.432359, 11.420043, -1.466437, 0.164115, 5.710960, -72.316177, -29.530853, -645.116089
1733469409.510598, -7.564031, 2.689736, 11.957691, -1.874274, 0.118638, 5.894922, -71.252869, -26.774338, -644.542236
1733469409.520123, -9.084798, 3.192369, 12.820052, -2.367772, 0.035724, 6.038983, -70.115677, -23.617722, -644.745361
1733469409.530604, -10.916213, 3.718494, 13.635577, -2.931718, -0.126337, 6.111594, -68.967346, -20.555069, -644.276611
1733469409.540623, -13.171850, 4.004602, 14.306402, -3.577348, -0.305159, 6.078397, -67.475769, -17.201050, -642.963074
1733469409.550602, -15.856199, 4.509928, 14.324509, -4.250613, -0.438986, 5.913136, -65.554047, -13.883926, -641.962769
1733469409.560598, -18.525734, 5.130325, 13.747656, -4.878679, -0.525740, 5.667891, -63.874008, -10.686234, -640.356628
1733469409.570594, -21.146936, 5.930587, 12.809877, -5.426796, -0.609211, 5.325411, -61.862732, -7.702972, -639.120605
1733469409.580609, -23.726239, 6.944681, 11.350910, -5.858799, -0.621017, 4.875651, -60.134384, -4.604828, -636.234985
1733469409.590602, -26.047118, 7.886949, 9.513809, -6.212503, -0.611704, 4.320726, -58.165161, -2.043686, -634.369995
1733469409.600604, -28.429798, 8.966285, 8.250569, -6.511335, -0.712585, 3.636416, -56.420868, 0.132645, -631.845337
1733469409.610594, -30.886399, 9.893141, 6.799233, -6.721959, -0.833033, 2.841330, -55.309097, 1.986389, -628.838806
1733469409.620599, -32.669331, 10.699687, 5.103839, -6.921659, -0.887299, 1.994198, -54.116013, 3.609161, -625.334961
1733469409.630594, -33.694647, 12.149975, 3.352481, -7.112401, -0.852757, 1.175867, -53.421967, 4.580399, -622.166748
1733469409.640647, -33.859997, 13.820230, 1.249175, -7.257133, -0.745465, 0.480102, -52.977798, 5.270615, -618.461975
1733469409.650591, -33.269826, 15.914857, -0.937480, -7.355833, -0.641473, -0.059819, -53.073227, 5.310760, -615.239563
1733469409.660600, -32.722751, 18.149246, -3.330035, -7.329766, -0.539750, -0.463531, -53.017242, 5.180237, -611.632690
1733469409.670605, -32.416144, 19.596391, -6.175843, -7.118242, -0.381678, -0.796045, -53.213211, 4.743195, -608.342529
1733469409.680598, -32.456696, 20.194343, -9.107992, -6.760881, -0.118625, -1.147545, -53.859665, 3.900955, -604.917725
1733469409.690598, -32.445473, 20.072538, -12.054805, -6.285714, 0.269494, -1.558100, -54.881165, 2.973969, -602.988403
1733469409.700598, -31.941344, 19.767127, -14.747085, -5.688188, 0.760662, -1.978373, -55.760071, 1.463165, -600.870972
1733469409.710606, -30.787039, 19.392884, -16.859968, -4.986251, 1.220446, -2.381132, -56.906143, 0.215897, -599.486328
1733469409.720597, -29.376555, 18.913595, -17.992276, -4.214361, 1.578074, -2.762527, -58.425781, -1.276550, -597.929382
1733469409.730599, -27.926417, 18.763059, -18.084902, -3.521215, 1.720918, -3.121177, -60.120804, -2.810242, -597.406921
1733469409.740591, -26.429143, 18.865262, -17.625664, -2.942525, 1.750944, -3.435057, -61.734863, -4.228699, -597.307922
1733469409.750585, -25.060408, 18.968362, -17.697789, -2.416460, 1.841599, -3.704111, -63.656204, -5.992340, -597.067017
1733469409.760589, -23.703794, 18.761263, -18.288409, -1.911278, 2.049814, -3.953789, -65.449219, -7.595276, -597.363281
1733469409.770601, -22.329971, 18.504635, -18.576760, -1.410568, 2.283769, -4.213558, -67.266022, -9.305984, -597.802063
1733469409.780601, -20.917242, 18.522891, -18.602498, -0.872113, 2.501864, -4.456672, -69.462219, -11.114014, -597.411133
1733469409.790601, -19.218556, 18.606837, -18.498350, -0.293166, 2.659472, -4.685835, -71.595932, -13.202133, -599.569824
1733469409.800600, -17.404200, 18.469171, -18.201918, 0.305375, 2.782874, -4.905493, -73.427994, -15.178558, -600.451965
1733469409.810595, -15.452926, 18.531869, -17.364696, 0.874986, 2.837795, -5.075320, -75.465454, -17.304886, -602.097717
1733469409.820591, -13.613281, 18.759468, -16.056564, 1.405559, 2.826431, -5.165621, -76.958450, -19.612839, -603.473022
1733469409.830597, -11.796830, 18.874838, -14.769381, 1.886405, 2.793984, -5.189439, -78.614029, -21.876190, -605.457642
1733469409.840590, -10.271424, 18.855236, -13.345729, 2.302922, 2.706335, -5.169400, -79.863541, -24.260239, -607.249878
1733469409.850582, -8.752303, 18.718916, -11.924022, 2.648672, 2.586647, -5.082076, -80.789322, -26.472183, -609.076050
1733469409.860597, -7.217321, 18.371308, -10.919804, 2.942814, 2.516922, -4.929636, -82.006622, -28.837250, -611.007141
1733469409.870596, -5.859360, 17.792510, -10.421661, 3.215676, 2.596177, -4.693264, -82.578613, -30.890305, -611.897888
1733469409.880579, -4.608389, 17.139042, -10.015843, 3.467412, 2.821347, -4.390028, -83.274994, -33.193451, -613.189209
1733469409.890583, -3.657442, 16.254983, -9.444228, 3.698472, 3.145307, -4.080062, -83.606598, -35.363846, -615.635864
1733469409.900644, -2.881122, 15.331121, -8.507945, 3.910795, 3.455040, -3.781120, -84.051773, -37.568207, -617.390625
1733469409.910586, -2.078317, 14.409952, -7.184401, 4.103923, 3.672867, -3.492763, -84.210526, -39.587143, -619.341370
1733469409.920589, -1.342249, 13.318196, -5.954679, 4.269632, 3.841641, -3.242323, -84.322800, -41.374283, -621.574829
1733469409.930582, -0.756568, 12.228086, -4.980688, 4.414780, 4.022264, -3.040025, -84.175217, -43.395706, -623.253540
1733469409.940662, -0.098312, 11.488577, -3.523517, 4.526405, 4.109257, -2.837718, -83.828522, -45.401321, -624.853760
1733469409.950583, 0.605134, 11.163713, -1.686266, 4.546443, 4.093167, -2.616163, -83.283218, -47.306000, -626.698181
1733469409.960589, 1.338209, 10.796203, 0.228946, 4.457528, 3.938813, -2.355401, -82.725174, -48.851181, -628.155334
1733469409.970576, 2.365471, 10.451139, 2.055422, 4.296899, 3.619637, -2.036301, -82.027145, -50.585754, -629.663452
1733469409.980604, 3.378667, 9.964368, 3.361160, 4.135029, 3.206189, -1.656726, -81.313263, -52.046249, -629.877747
1733469409.990589, 4.395006, 9.396344, 4.037522, 3.958329, 2.841542, -1.212861, -80.709244, -53.152084, -631.303223
1733469410.000582, 5.193323, 8.739584, 4.144812, 3.766406, 2.635479, -0.702966, -80.521698, -54.073593, -632.411987
1733469410.010579, 5.745934, 7.806743, 3.945794, 3.542536, 2.662250, -0.164142, -79.990723, -54.800415, -632.778076
1733469410.020578, 5.964405, 7.111677, 3.890428, 3.272931, 2.857128, 0.390332, -79.509186, -55.089127, -633.434570
1733469410.030592, 5.808932, 6.570886, 4.092738, 2.972382, 3.077855, 0.911635, -79.045227, -55.399506, -634.574951
1733469410.040591, 5.584326, 5.878364, 4.482694, 2.686961, 3.243207, 1.394275, -78.683975, -54.997864, -635.581665
1733469410.050578, 5.268291, 5.428852, 5.279514, 2.435545, 3.262931, 1.858996, -78.583359, -54.748428, -636.502930
1733469410.060584, 4.871901, 5.113566, 6.315904, 2.197937, 3.096387, 2.290676, -78.009537, -53.969467, -637.818481
1733469410.070575, 4.474314, 4.541651, 7.117213, 2.013036, 2.806376, 2.702515, -77.766968, -53.432648, -638.765137
1733469410.080594, 4.025700, 3.873220, 7.529615, 1.895095, 2.476858, 3.102397, -77.424149, -52.441833, -638.893311
1733469410.090587, 3.472939, 3.588459, 7.995287, 1.820930, 2.144058, 3.507458, -77.255188, -51.142578, -640.082092
1733469410.100584, 2.933944, 3.361758, 8.720730, 1.719315, 1.790869, 3.910347, -76.978882, -49.699005, -640.475769
1733469410.110636, 2.179472, 3.163339, 9.428965, 1.561867, 1.465755, 4.296770, -76.932220, -48.064896, -641.130310
1733469410.120586, 1.139790, 3.144934, 9.917083, 1.338082, 1.291733, 4.658401, -76.762772, -46.205231, -641.708801
1733469410.130575, -0.008829, 3.036297, 10.462212, 1.010073, 1.224662, 4.994808, -76.175323, -44.340118, -641.840698
1733469410.140588, -1.638382, 2.833238, 11.496059, 0.564658, 1.213110, 5.257704, -76.285812, -41.985107, -642.259277
1733469410.150632, -3.803339, 2.528576, 12.699594, -0.075742, 1.281037, 5.383723, -75.650406, -39.477203, -642.804016
1733469410.160574, -5.705981, 1.826626, 13.880384, -0.919644, 1.316682, 5.373489, -74.775604, -36.813629, -643.721924
1733469410.170571, -7.044938, 1.447744, 14.318972, -1.763457, 1.269743, 5.328437, -74.329880, -34.033203, -643.635193
1733469410.180577, -7.833080, 1.735647, 13.866917, -2.433282, 1.113955, 5.304583, -73.594513, -31.054459, -643.376099
1733469410.190570, -8.376115, 2.153435, 13.186066, -2.876132, 0.750363, 5.324683, -72.248108, -27.934586, -643.974792
1733469410.200566, -8.967632, 2.859275, 12.549807, -3.114580, 0.285855, 5.456826, -71.122040, -24.652222, -643.578857
1733469410.210571, -9.858275, 3.723732, 11.883470, -3.235968, -0.142626, 5.673732, -69.873657, -21.416382, -642.673889
1733469410.220571, -11.801020, 4.412963, 11.733234, -3.361531, -0.467471, 5.861096, -68.288361, -18.222519, -641.838135
1733469410.230639, -14.355334, 5.235670, 12.097452, -3.618874, -0.648489, 6.011901, -66.423035, -14.959076, -640.489746
1733469410.240571, -17.313071, 6.330419, 12.758102, -4.124025, -0.700086, 6.061163, -65.002716, -11.563492, -639.134033
1733469410.250566, -21.248240, 7.313987, 13.026552, -4.912086, -0.643970, 5.858888, -63.053299, -8.304230, -637.268677
1733469410.260591, -25.087941, 7.870190, 12.195465, -5.845327, -0.420856, 5.398049, -61.401688, -5.169617, -634.949097
1733469410.270587, -28.393885, 7.949049, 9.742455, -6.699707, -0.124439, 4.668514, -59.625427, -2.839401, -632.555115
1733469410.280032, -31.391575, 8.260894, 6.748207, -7.309432, -0.051013, 3.680399, -58.117050, -0.772400, -629.072510
1733469410.290580, -33.764827, 8.679280, 3.595642, -7.564004, -0.295145, 2.547375, -57.298538, 1.137100, -626.024292
1733469410.300571, -34.820072, 9.317485, 0.027533, -7.441470, -0.663650, 1.457782, -56.467377, 2.043625, -622.892090
1733469410.310586, -34.950257, 10.464307, -3.303250, -7.062844, -0.976972, 0.587569, -55.851929, 2.680252, -619.454834
1733469410.320583, -34.475307, 11.908759, -6.142773, -6.627777, -1.038670, -0.022065, -55.914749, 2.874542, -616.621460
1733469410.330586, -33.788171, 13.514670, -8.369979, -6.255988, -0.841281, -0.423189, -56.018219, 2.832825, -614.129150
1733469410.340577, -32.920871, 14.292636, -10.042329, -5.949255, -0.418443, -0.686689, -56.757065, 2.370895, -611.165588
1733469410.350643, -32.080207, 13.948320, -11.121965, -5.721562, 0.071763, -0.993330, -57.488007, 1.745483, -609.547302
1733469410.360592, -31.973067, 14.065037, -11.137676, -5.668636, 0.412705, -1.446727, -58.777725, 1.037384, -607.473328
1733469410.370585, -31.521610, 14.385112, -11.303924, -5.657811, 0.528454, -1.974626, -59.767365, -0.067749, -605.687134
1733469410.380637, -30.606726, 14.899267, -12.651111, -5.519549, 0.543289, -2.507738, -60.801956, -1.347107, -603.209106
1733469410.390638, -29.417406, 15.890466, -14.474445, -5.233933, 0.482974, -2.987894, -62.006790, -3.003418, -602.126343
1733469410.400599, -28.171972, 16.914287, -16.521637, -4.763347, 0.470368, -3.345533, -63.835709, -4.737030, -601.063477
1733469410.410575, -26.875363, 17.310976, -19.175760, -4.081755, 0.680923, -3.618105, -65.390915, -6.563248, -600.151917
1733469410.420627, -25.452907, 16.930747, -21.439777, -3.270036, 1.030440, -3.853732, -67.330383, -8.307678, -599.897217
1733469410.430574, -23.879618, 16.704644, -22.263981, -2.461981, 1.366776, -4.080021, -68.867981, -10.281235, -599.973267
1733469410.440575, -22.291364, 16.962919, -21.997476, -1.718035, 1.583400, -4.311038, -70.755569, -12.113525, -600.082214
1733469410.450588, -20.535367, 17.275961, -21.007025, -1.064596, 1.642624, -4.536246, -72.409225, -14.112167, -600.588135
1733469410.460558, -18.614619, 17.332224, -20.170999, -0.470879, 1.650276, -4.694767, -73.826294, -16.195312, -601.654541
1733469410.470565, -16.748039, 17.178247, -19.844640, 0.122015, 1.735278, -4.779591, -75.627228, -18.118195, -602.412964
1733469410.480565, -15.067459, 16.836325, -19.589657, 0.719164, 1.936110, -4.765284, -77.442490, -20.267365, -603.043823
1733469410.490563, -13.415310, 16.490513, -18.941128, 1.289152, 2.250215, -4.691550, -78.787659, -22.128265, -604.839844
1733469410.500561, -12.215965, 16.381128, -17.646014, 1.771600, 2.583702, -4.627904, -79.943390, -24.363815, -606.658691
1733469410.510561, -11.038317, 16.465224, -15.902736, 2.177170, 2.805411, -4.565598, -81.098251, -26.401382, -608.544678
1733469410.520102, -9.714024, 16.437092, -13.906421, 2.528552, 2.845332, -4.516179, -81.098251, -26.401382, -608.544678
1733469410.530564, -8.457966, 16.325014, -12.065430, 2.851274, 2.684393, -4.470386, -83.190796, -30.905228, -611.903992
1733469410.540565, -7.116166, 15.909620, -10.496030, 3.173919, 2.358327, -4.428542, -83.190796, -30.905228, -611.903992
1733469410.550580, -5.832425, 15.268123, -9.325266, 3.476960, 1.978576, -4.375711, -83.422928, -33.109360, -612.925720
1733469410.560565, -4.679467, 14.468310, -8.609549, 3.760113, 1.668851, -4.298687, -83.916397, -35.186508, -614.224304
1733469410.570565, -3.755006, 13.689895, -8.176648, 4.012945, 1.510998, -4.197120, -84.304504, -37.573746, -615.021667
1733469410.580564, -2.983475, 13.179182, -7.681497, 4.216621, 1.500630, -4.043222, -84.247406, -39.632431, -616.021851
1733469410.590564, -2.160917, 12.813169, -7.017854, 4.340975, 1.657475, -3.842313, -84.224243, -41.900635, -616.333740
1733469410.600562, -1.351377, 12.358420, -6.283582, 4.366842, 1.978826, -3.599080, -84.391678, -43.867599, -617.514526
1733469410.610561, -0.454300, 11.855937, -5.385906, 4.309997, 2.386347, -3.296999, -84.223785, -45.574646, -618.466064
1733469410.620156, 0.378284, 11.443685, -4.529231, 4.222040, 2.830628, -2.938689, -83.639771, -47.731430, -620.000977
1733469410.630570, 0.934038, 11.050587, -3.581127, 4.167437, 3.200835, -2.553747, -83.630127, -49.208267, -621.063171
1733469410.640566, 1.593491, 10.718242, -2.533963, 4.154102, 3.472309, -2.147497, -83.219727, -50.610519, -622.474915
1733469410.649845, 2.164957, 10.147375, -1.303643, 4.154078, 3.660179, -1.739643, -83.126450, -51.849670, -623.677917
1733469410.660559, 2.721908, 9.394398, 0.155922, 4.089701, 3.770748, -1.329310, -82.455597, -52.885910, -624.801086
1733469410.670561, 3.287089, 8.832808, 1.472584, 3.952102, 3.754570, -0.891453, -81.961472, -53.894394, -625.979065
1733469410.680567, 3.697246, 8.438064, 2.427720, 3.849818, 3.684988, -0.406609, -81.557480, -54.539520, -627.332947
1733469410.690573, 4.010886, 8.194305, 3.176058, 3.809145, 3.578953, 0.125362, -80.998459, -54.966599, -627.871582
1733469410.700559, 4.289063, 7.929596, 4.356848, 3.789521, 3.409004, 0.686875, -80.807678, -55.242188, -629.233643
1733469410.710556, 4.590133, 7.321768, 5.868338, 3.690049, 3.208837, 1.220823, -80.681290, -55.272369, -629.927673
1733469410.720561, 4.559159, 6.291962, 7.393744, 3.442256, 2.990861, 1.681346, -80.491074, -55.092194, -630.973145
1733469410.730555, 4.328717, 5.175217, 8.779687, 3.030572, 2.803206, 2.031601, -80.139755, -54.558853, -631.969482
1733469410.740551, 4.132093, 4.339191, 9.563339, 2.534329, 2.658369, 2.345097, -80.033051, -53.911575, -632.945801
1733469410.750556, 3.889381, 3.661483, 10.037541, 2.092819, 2.517994, 2.679475, -79.928284, -52.787094, -633.898682
1733469410.760559, 3.478027, 3.119046, 10.384401, 1.713818, 2.374189, 3.014722, -79.937775, -51.745819, -634.522217
1733469410.770573, 2.830695, 2.761113, 10.651055, 1.335744, 2.204467, 3.314339, -79.436752, -50.423935, -635.080872
1733469410.780618, 2.289306, 2.540697, 10.944943, 0.976013, 1.974461, 3.610327, -79.586578, -48.888153, -636.005066
1733469410.789703, 1.839345, 2.374599, 11.084256, 0.642092, 1.742748, 3.904580, -79.351364, -47.164246, -636.627258
1733469410.800567, 1.354520, 2.390311, 11.039813, 0.289474, 1.549226, 4.213209, -79.075089, -45.313339, -637.589783
1733469410.810567, 0.825700, 2.615815, 10.954370, -0.075848, 1.409866, 4.565099, -78.664490, -43.108276, -638.238281
1733469410.820556, -0.094421, 2.571971, 10.811467, -0.417571, 1.316870, 4.904339, -78.049194, -40.729202, -639.081055
1733469410.830559, -1.469292, 2.344372, 10.637887, -0.716130, 1.287977, 5.204304, -77.486359, -38.210403, -639.520020
1733469410.840553, -3.073856, 2.104054, 11.025448, -1.040330, 1.288043, 5.485171, -76.637955, -35.430161, -640.240967
1733469410.850551, -5.044433, 1.963844, 12.164041, -1.465541, 1.265993, 5.699243, -75.783615, -32.422073, -640.160461
1733469410.860550, -7.315184, 2.266860, 13.631238, -2.029852, 1.200412, 5.847173, -74.573593, -29.545273, -640.656982
1733469410.870559, -9.525631, 2.518102, 14.795867, -2.694457, 1.066962, 5.935069, -73.450653, -26.185425, -640.891724
1733469410.880554, -11.632827, 3.028366, 15.336358, -3.369330, 0.887171, 6.001006, -71.526001, -22.833328, -640.428040
1733469410.890548, -14.041993, 3.812467, 15.129260, -4.018165, 0.634779, 6.013090, -70.056122, -19.261459, -640.126831
1733469410.900600, -17.446697, 3.804686, 14.807090, -4.660549, 0.286508, 5.797737, -68.665436, -16.074020, -638.983704
1733469410.910552, -21.550060, 3.684377, 14.051719, -5.294498, -0.066696, 5.323029, -66.780151, -12.681686, -637.725464
1733469410.920547, -25.141063, 3.864840, 12.641684, -5.887486, -0.394297, 4.698370, -65.185318, -9.621490, -635.826172
1733469410.930547, -28.207287, 4.335001, 10.754305, -6.400391, -0.663293, 3.993234, -63.624512, -6.826584, -633.413879
1733469410.940593, -30.645482, 5.210531, 8.450484, -6.820464, -0.812162, 3.292717, -62.494385, -4.519257, -630.612610
1733469410.950550, -32.562190, 6.336554, 5.621735, -7.113426, -0.845795, 2.593970, -61.554642, -2.833954, -627.752014
1733469410.960549, -34.448671, 7.564031, 2.851494, -7.254245, -0.867293, 1.822182, -60.805908, -1.406021, -624.598511
1733469410.970548, -35.739894, 8.807071, 0.283264, -7.243045, -0.858099, 1.061121, -60.147095, -0.366913, -621.301758
1733469410.980554, -35.770720, 10.316016, -2.390161, -7.162035, -0.751751, 0.405908, -59.880707, 0.145157, -617.498535
1733469410.990547, -35.340511, 11.830648, -4.905869, -7.079044, -0.569790, -0.161335, -59.915146, 0.238464, -615.105225
1733469411.000552, -34.690186, 12.973880, -7.356783, -6.982357, -0.290552, -0.654283, -60.310730, -0.183456, -612.302002
1733469411.010550, -33.926286, 13.747955, -9.867702, -6.818758, -0.025557, -1.132975, -60.762039, -0.711639, -609.657043
1733469411.020563, -33.491290, 14.234127, -12.307992, -6.458652, 0.114605, -1.646177, -61.872437, -1.497391, -607.890869
1733469411.030549, -33.181540, 14.676606, -14.773421, -5.852490, 0.168732, -2.184084, -62.851242, -2.981949, -605.736511
1733469411.040544, -32.277130, 14.904205, -16.702100, -5.099472, 0.155830, -2.694166, -63.966385, -4.400970, -604.440002
1733469411.050549, -30.511856, 14.810382, -18.026393, -4.345848, 0.128980, -3.110660, -65.216553, -5.960251, -603.391541
1733469411.060544, -28.427853, 14.563181, -19.052758, -3.639794, 0.248367, -3.406716, -66.298599, -7.629318, -602.008484
1733469411.070551, -26.429891, 14.455591, -19.757251, -3.037796, 0.558780, -3.636941, -67.923050, -9.259872, -601.524963
1733469411.080551, -24.449587, 14.301165, -19.725977, -2.514892, 0.948405, -3.783475, -69.377136, -11.177124, -600.559509
1733469411.090555, -22.499660, 14.411448, -19.177855, -2.064838, 1.328451, -3.864452, -71.121506, -12.868057, -601.201355
1733469411.100551, -20.641759, 14.368652, -18.384925, -1.659208, 1.621548, -3.934947, -72.777878, -14.749283, -602.103760
1733469411.110550, -18.919281, 14.111275, -17.791761, -1.267073, 1.852055, -4.011291, -74.188751, -16.691132, -602.468201
1733469411.120538, -17.346141, 14.080300, -17.466300, -0.850993, 2.020501, -4.107131, -75.636414, -18.629730, -603.316223
1733469411.130544, -15.835250, 14.122198, -17.227328, -0.412687, 2.170984, -4.210629, -77.161026, -20.797043, -604.650391
1733469411.140543, -14.457686, 14.087632, -17.000029, 0.044498, 2.292830, -4.323388, -78.447815, -22.807999, -605.653503
1733469411.150586, -13.120375, 14.097957, -16.556802, 0.518060, 2.395576, -4.451658, -79.890091, -24.864700, -606.883484
1733469411.160540, -11.567735, 14.230087, -15.704167, 1.008334, 2.394367, -4.548851, -80.794937, -27.073593, -608.271545
1733469411.170549, -9.790340, 14.585177, -14.459931, 1.487666, 2.259022, -4.569562, -81.925552, -29.378998, -609.747070
1733469411.180543, -7.931242, 14.965855, -13.203424, 1.945498, 2.014758, -4.488512, -82.640106, -31.476608, -609.890381
1733469411.190585, -6.168062, 14.924406, -12.300660, 2.367902, 1.796062, -4.338114, -83.056625, -33.491760, -611.830566
1733469411.200538, -4.711789, 14.484022, -11.679215, 2.736846, 1.703259, -4.130983, -83.240616, -35.583542, -612.789307
1733469411.210536, -3.473238, 13.922732, -11.388918, 3.048280, 1.865761, -3.842136, -83.680710, -37.534180, -614.244385
1733469411.220535, -2.419191, 13.539510, -10.919654, 3.296501, 2.204407, -3.479198, -83.884995, -39.208450, -615.270020
1733469411.230579, -1.506701, 13.187412, -9.925612, 3.469339, 2.594370, -3.083892, -84.074966, -40.885712, -616.687683
1733469411.240530, -0.846650, 12.751368, -8.756493, 3.591661, 2.977182, -2.694026, -84.115814, -42.359375, -618.293091
1733469411.250533, -0.244807, 12.004677, -7.571064, 3.707292, 3.276789, -2.328405, -83.671021, -43.924042, -620.087402
1733469411.260546, 0.350601, 11.130195, -6.356456, 3.831684, 3.501937, -1.999035, -84.055328, -44.999283, -621.799072
1733469411.270540, 0.653767, 10.499173, -5.062090, 3.945497, 3.603096, -1.717337, -83.853271, -46.161667, -623.030579
1733469411.280552, 0.964115, 10.003573, -3.612701, 4.053249, 3.565704, -1.477689, -83.960541, -47.181824, -624.193970
1733469411.289760, 1.375768, 9.636063, -2.122011, 4.127231, 3.390458, -1.254784, -83.280182, -48.166229, -625.906494
1733469411.300545, 1.914164, 9.352650, -0.726640, 4.158932, 3.104402, -1.014573, -83.025040, -49.125946, -626.587280
1733469411.310551, 2.643797, 9.059809, 0.512808, 4.155770, 2.784672, -0.724591, -82.667480, -49.743484, -627.743042
1733469411.320539, 3.240402, 8.589797, 1.390133, 4.113076, 2.555272, -0.386026, -82.322891, -50.331268, -628.209839
1733469411.330543, 3.639336, 8.082226, 1.780987, 4.023613, 2.508079, 0.004249, -82.127533, -50.802246, -629.140808
1733469411.340600, 3.916615, 7.574356, 2.085200, 3.898245, 2.606669, 0.408901, -81.795700, -51.142273, -630.240662
1733469411.350536, 3.876212, 6.915352, 2.502689, 3.772246, 2.775843, 0.783653, -81.480286, -51.083710, -631.094360
1733469411.360536, 3.731962, 6.274604, 3.459771, 3.648499, 2.951530, 1.139245, -80.794571, -51.048019, -632.262451
1733469411.370551, 3.645471, 5.757905, 5.054609, 3.449659, 3.001742, 1.477372, -80.901230, -50.764084, -632.998291
1733469411.379980, 3.387496, 5.298518, 6.987478, 3.152533, 2.836344, 1.795125, -80.610901, -50.480743, -633.428467
1733469411.390551, 3.164985, 4.730793, 8.622568, 2.821850, 2.522257, 2.103991, -80.125015, -49.754929, -635.040405
1733469411.400556, 3.133860, 4.239233, 9.869797, 2.484526, 2.131210, 2.452104, -80.083618, -48.795090, -635.133606
1733469411.410548, 2.931550, 3.774010, 10.664522, 2.117419, 1.754888, 2.813452, -79.515900, -47.759018, -635.906189
1733469411.420530, 2.414852, 3.476082, 10.641029, 1.720882, 1.566290, 3.176186, -79.480392, -46.471695, -636.432983
1733469411.430538, 1.760636, 3.084031, 10.210223, 1.321500, 1.532782, 3.523836, -79.451126, -44.780762, -637.063904
1733469411.440537, 1.014094, 2.453757, 9.976189, 0.938464, 1.554826, 3.831070, -78.886078, -43.238968, -637.888794
1733469411.450538, -0.048931, 1.966687, 9.842114, 0.561302, 1.649075, 4.068085, -78.375153, -41.364197, -638.449280
1733469411.460538, -1.414524, 1.413028, 10.359411, 0.132721, 1.706483, 4.212843, -78.032166, -39.256424, -639.386047
1733469411.470540, -2.536956, 0.706439, 11.238233, -0.319614, 1.611311, 4.312268, -77.153137, -36.861816, -640.246033
1733469411.480533, -3.624821, 0.677858, 11.876737, -0.737493, 1.422936, 4.403676, -76.357971, -34.819397, -639.770630
1733469411.490530, -4.947318, 0.835876, 12.165986, -1.146755, 1.200272, 4.479506, -75.585495, -32.353149, -640.982788
1733469411.500594, -6.265177, 0.832135, 12.424560, -1.529263, 0.925474, 4.550525, -74.624252, -29.871979, -640.830627
1733469411.510526, -7.425766, 1.095347, 12.624326, -1.883537, 0.630370, 4.642606, -73.792175, -27.114761, -640.727722
1733469411.520065, -8.553136, 1.439963, 12.877214, -2.250478, 0.309429, 4.770977, -72.546844, -24.334229, -640.330383
1733469411.530537, -9.896283, 1.290924, 13.219884, -2.681132, 0.001893, 4.916390, -71.710190, -21.460480, -639.735840
1733469411.540531, -12.343456, 1.431284, 13.483994, -3.180857, -0.275424, 4.966194, -70.211060, -18.597839, -638.973022
1733469411.550540, -15.446342, 1.900398, 13.344382, -3.726910, -0.492312, 4.917196, -68.819824, -15.562775, -637.799194
1733469411.560529, -18.365322, 2.161066, 12.542325, -4.241026, -0.691487, 4.806859, -67.057510, -12.750320, -636.078857
1733469411.570546, -21.587768, 2.692130, 11.199327, -4.667997, -0.817522, 4.637012, -65.694885, -9.962234, -634.003418
1733469411.580526, -24.906730, 3.385850, 9.636213, -5.103819, -0.821419, 4.385578, -64.202087, -7.555237, -631.569458
1733469411.590540, -28.342859, 3.301754, 8.170812, -5.645472, -0.774435, 3.949470, -62.994995, -5.346924, -629.800720
1733469411.600673, -31.690701, 3.537433, 6.090101, -6.150889, -0.690715, 3.321874, -61.986053, -3.572403, -627.340942
1733469411.610561, -34.145356, 4.189254, 3.075202, -6.450319, -0.635020, 2.559080, -61.383102, -2.132172, -624.469971
1733469411.620588, -35.347544, 4.746654, 0.126743, -6.520068, -0.716814, 1.771325, -60.770081, -1.363068, -621.812500
1733469411.630608, -35.966894, 5.974132, -2.225111, -6.502730, -0.864097, 1.004658, -60.779755, -0.869263, -619.267883
1733469411.640584, -36.150649, 7.120206, -4.467281, -6.468895, -0.988985, 0.289439, -60.768555, -0.862366, -616.848877
1733469411.650668, -35.737799, 9.238476, -9.776124, -6.071580, -1.062967, -1.021663, -61.132492, -1.175522, -614.244263
1733469411.660602, -35.263298, 10.460566, -12.167183, -6.071580, -1.062967, -1.021663, -61.714005, -1.996933, -611.778320
1733469411.670593, -35.263298, 10.460566, -12.167183, -5.618777, -1.101966, -1.580289, -62.546219, -2.830917, -609.053284
1733469411.680568, -32.672623, 11.231499, -17.041628, -5.039543, -1.025505, -2.023579, -63.394653, -3.930786, -607.070435
1733469411.690523, -30.736162, 11.114034, -18.482040, -4.405214, -0.766696, -2.354576, -64.748337, -5.012894, -605.915955
1733469411.700518, -28.833520, 11.040262, -18.662054, -3.807660, -0.377127, -2.569623, -65.667389, -6.367081, -604.746033
1733469411.710533, -27.415854, 11.550078, -18.109891, -3.082685, 0.398971, -2.941539, -66.870865, -7.614059, -604.079102
1733469411.719561, -27.415854, 11.550078, -18.109891, -3.082685, 0.398971, -2.941539, -68.173660, -9.181519, -603.511414
1733469411.730528, -24.835802, 12.657396, -18.279730, -2.569959, 0.860981, -3.337129, -69.428696, -10.849121, -603.468079
1733469411.740520, -23.564032, 12.624625, -19.484612, -2.061535, 0.979947, -3.573153, -71.032135, -12.523407, -603.110352
1733469411.750527, -22.118084, 12.546664, -20.370915, -1.409305, 1.026624, -3.824764, -72.395065, -14.382675, -603.115540
1733469411.760520, -20.683957, 12.689867, -20.432566, -0.722031, 1.029613, -4.073575, -73.891464, -16.324097, -603.683777
1733469411.770526, -18.948460, 12.744934, -20.077925, -0.070732, 1.089479, -4.261587, -75.162872, -18.123108, -604.550720
1733469411.780538, -17.460763, 13.104812, -19.222147, 0.453955, 1.209245, -4.432783, -76.465851, -20.110077, -604.843201
1733469411.790529, -15.931317, 13.452421, -18.029985, 0.848961, 1.366479, -4.559427, -77.849564, -22.079300, -606.100891
1733469411.800527, -14.207193, 13.757831, -16.886903, 1.175596, 1.532999, -4.626912, -79.069580, -24.294830, -606.693970
1733469411.810518, -12.502820, 13.938892, -15.714193, 1.478083, 1.610830, -4.661912, -80.003998, -26.428848, -607.770935
1733469411.820518, -10.917859, 14.048876, -14.519786, 1.793854, 1.603563, -4.656653, -80.952454, -28.797440, -609.080200
1733469411.830517, -9.361777, 14.099753, -13.558963, 2.111621, 1.580644, -4.604609, -82.107864, -31.043457, -609.892761
1733469411.840512, -7.969699, 14.069676, -12.391340, 2.401232, 1.533345, -4.509780, -82.580551, -33.137772, -610.725769
1733469411.850519, -6.720374, 14.137013, -11.322329, 2.655297, 1.535052, -4.366232, -83.226685, -35.247665, -611.642151
1733469411.860516, -5.597045, 13.958345, -10.603171, 2.865276, 1.645116, -4.182807, -83.404053, -37.482925, -612.557739
1733469411.870517, -4.508431, 13.440749, -10.082582, 3.033995, 1.880667, -3.962450, -83.603073, -39.623276, -613.982239
1733469411.880517, -3.434183, 12.996325, -9.496152, 3.196903, 2.201975, -3.694386, -83.548126, -41.525833, -614.269836
1733469411.890515, -2.364274, 12.509853, -8.863933, 3.376723, 2.585700, -3.384101, -83.875534, -43.199402, -615.825195
1733469411.900515, -1.325490, 12.043433, -7.952341, 3.568778, 2.956637, -3.049074, -84.038864, -45.020706, -617.693787
1733469411.910533, -0.317232, 11.493215, -6.455516, 3.741666, 3.202793, -2.718697, -83.929977, -46.531601, -619.001221
1733469411.920518, 0.660500, 10.785579, -4.733636, 3.872813, 3.286055, -2.413450, -83.887436, -47.846542, -620.273254
1733469411.930515, 1.528099, 9.989507, -3.063980, 3.968172, 3.250546, -2.129485, -83.745453, -49.294739, -621.647278
1733469411.940521, 2.270451, 9.393351, -1.515979, 3.989016, 3.167872, -1.860870, -83.414459, -50.487854, -622.823853
1733469411.950514, 2.895338, 8.836549, -0.085144, 3.922643, 3.071476, -1.583985, -83.053894, -51.553513, -623.775635
1733469411.960513, 3.500772, 8.390330, 1.277905, 3.767663, 2.966519, -1.265808, -82.708221, -52.474686, -624.685791
1733469411.970523, 3.985298, 7.985111, 2.453608, 3.520783, 2.848761, -0.926654, -82.507294, -53.196396, -625.482422
1733469411.980521, 4.395305, 7.512406, 3.137751, 3.254419, 2.746619, -0.566818, -82.021378, -53.763535, -625.584839
1733469411.990513, 4.689493, 6.848913, 3.025373, 3.042674, 2.736936, -0.210641, -82.021378, -53.763535, -625.584839
1733469412.000515, 4.941782, 5.921908, 2.487725, 2.970054, 2.841053, 0.162491, -81.991058, -53.951416, -627.440979
1733469412.010515, 5.138855, 5.318120, 2.445378, 2.978228, 2.997490, 0.557044, -81.737686, -54.279663, -628.336609
1733469412.020512, 5.180753, 4.994155, 3.343802, 2.974281, 3.050531, 0.969120, -81.101532, -54.260757, -629.419922
1733469412.030529, 5.132570, 4.704457, 5.001487, 2.910346, 2.972654, 1.393607, -80.949280, -54.099762, -630.381287
1733469412.040359, 4.908862, 4.446781, 6.813000, 2.754439, 2.778621, 1.814507, -80.445404, -53.746216, -631.151733
1733469412.050511, 4.504840, 3.954772, 8.521862, 2.483351, 2.505280, 2.213938, -80.308426, -53.207626, -632.151001
1733469412.060507, 4.087950, 3.583821, 9.960627, 2.070584, 2.200940, 2.594747, -80.208847, -52.692535, -633.172974
1733469412.070520, 3.461567, 3.280356, 10.763134, 1.566411, 1.969801, 2.942224, -79.749069, -51.541672, -633.381653
1733469412.080518, 2.333299, 2.639907, 10.638336, 1.080573, 1.864463, 3.237797, -79.605392, -50.440536, -634.025757
1733469412.090512, 1.474379, 2.333299, 10.020781, 0.741394, 1.849772, 3.588907, -79.265396, -48.986420, -634.629639
1733469412.100507, 0.520290, 2.191293, 9.578453, 0.520730, 1.838476, 3.942245, -79.297226, -47.346024, -636.047424
1733469412.110508, -0.652420, 1.653944, 9.538200, 0.356681, 1.779493, 4.244683, -78.799164, -45.379959, -637.009155
1733469412.120511, -1.793107, 1.296311, 9.876830, 0.192892, 1.701074, 4.524894, -78.656509, -43.405029, -637.576294
1733469412.130507, -3.101988, 1.022623, 11.077672, -0.069801, 1.556464, 4.738832, -77.909378, -41.437424, -637.897095
1733469412.140507, -4.597765, 0.808193, 12.788479, -0.492939, 1.334738, 4.878357, -77.558838, -38.969421, -638.623901
1733469412.150506, -6.211307, 0.681150, 14.270639, -1.052712, 1.058147, 4.958971, -76.819565, -36.637878, -639.545715
1733469412.160507, -7.789385, 0.565780, 15.329325, -1.674354, 0.759324, 5.035982, -76.052338, -34.134628, -640.061157
1733469412.170534, -9.700407, 0.422876, 15.920244, -2.321059, 0.436138, 5.043400, -75.373199, -31.257812, -639.908997
1733469412.180515, -11.935843, 0.573112, 15.907974, -2.920603, 0.124881, 4.986448, -74.289062, -28.290146, -639.954590
1733469412.190567, -13.955353, 0.712125, 15.101128, -3.397925, -0.118157, 4.917178, -73.301239, -25.364243, -639.221497
1733469412.200506, -15.963639, 0.878672, 14.116662, -3.814311, -0.252729, 4.822248, -71.878250, -22.422104, -638.498840
1733469412.210508, -18.345271, 1.426346, 13.400646, -4.275551, -0.251245, 4.691864, -70.833755, -19.387283, -637.704712
1733469412.220505, -20.719720, 1.733851, 12.968792, -4.857856, -0.184198, 4.516841, -69.683212, -16.541260, -636.858032
1733469412.230505, -23.375638, 2.441487, 12.784887, -5.590143, -0.131909, 4.236398, -68.033447, -13.630447, -635.342590
1733469412.240523, -26.599730, 3.157353, 12.123190, -6.398122, -0.206453, 3.774086, -66.883789, -10.692490, -633.727173
1733469412.250521, -29.724762, 3.943400, 9.809643, -7.048220, -0.314267, 3.164984, -65.701935, -8.383713, -631.355347
1733469412.260508, -32.055367, 5.213673, 6.258294, -7.470465, -0.465973, 2.484922, -64.689499, -6.332458, -628.692261
1733469412.270061, -33.816153, 6.544850, 2.768595, -7.679287, -0.787597, 1.759137, -63.579147, -4.626907, -625.515137
1733469412.280516, -35.771767, 7.945158, -0.648230, -7.692891, -1.198351, 0.957193, -63.078232, -3.315094, -622.607666
1733469412.290504, -37.253030, 8.928427, -4.866215, -7.491216, -1.433910, 0.129663, -62.963974, -2.950333, -619.826050
1733469412.300502, -37.809981, 9.302671, -9.255684, -7.080387, -1.484742, -0.690147, -63.059158, -2.964478, -615.577881
1733469412.310554, -37.730224, 9.864560, -13.002161, -6.505917, -1.450964, -1.444697, -63.198196, -3.179749, -613.132324
1733469412.320504, -36.820427, 10.346991, -16.344915, -5.819506, -1.208757, -2.067735, -63.998077, -3.886246, -610.367615
1733469412.330509, -35.090018, 10.951677, -18.794034, -5.121169, -0.823251, -2.516274, -64.627533, -5.127762, -608.548096
1733469412.340509, -33.002274, 11.775731, -19.748273, -4.509011, -0.421841, -2.831527, -65.661942, -6.310547, -606.398438
1733469412.350564, -31.150359, 12.321759, -19.822793, -4.005580, -0.081611, -3.114002, -66.893890, -8.058914, -605.270081
1733469412.360509, -29.590986, 12.898013, -19.762189, -3.614026, 0.230785, -3.382373, -68.333557, -9.608398, -604.077393
1733469412.370508, -27.889756, 13.598168, -19.932926, -3.266765, 0.503964, -3.611599, -69.364594, -11.257477, -603.380249
1733469412.380515, -25.944018, 14.161852, -20.668395, -2.859809, 0.806191, -3.772289, -70.890137, -13.108322, -602.499634
1733469412.390512, -23.977780, 14.277373, -21.754464, -2.352921, 1.137212, -3.914880, -72.286102, -15.098816, -602.754639
1733469412.400509, -21.982213, 14.139706, -22.508788, -1.731280, 1.425506, -4.047501, -73.729294, -17.186890, -603.343933
1733469412.410508, -19.937864, 13.917195, -22.722171, -1.021259, 1.661845, -4.158336, -75.190308, -18.911163, -603.676880
1733469412.420500, -17.905336, 13.701418, -22.527492, -0.264998, 1.880188, -4.233075, -76.467957, -21.086777, -604.577759
1733469412.430508, -16.067038, 13.639916, -21.777359, 0.467601, 2.061281, -4.291638, -78.054947, -23.130295, -605.584290
1733469412.440497, -14.452149, 13.643957, -20.412514, 1.118614, 2.189874, -4.347648, -78.946457, -25.241821, -606.732361
1733469412.450501, -12.875268, 13.731345, -18.537106, 1.667245, 2.239617, -4.371510, -80.020172, -27.256897, -608.182739
1733469412.460492, -11.300033, 13.884724, -16.402227, 2.115922, 2.223262, -4.356662, -80.860596, -29.475357, -609.803772
1733469412.470500, -9.825205, 13.980043, -14.537293, 2.458680, 2.199080, -4.319035, -81.765030, -31.500916, -610.539673
1733469412.480504, -8.355016, 13.911658, -12.934824, 2.714755, 2.192998, -4.222368, -82.328400, -33.776367, -611.628601
1733469412.490493, -6.816292, 13.734787, -11.784261, 2.913468, 2.323153, -4.026276, -82.634369, -35.622391, -613.407959
1733469412.500494, -5.279664, 13.349769, -11.039365, 3.072999, 2.577423, -3.755098, -83.162033, -37.778534, -614.875671
1733469412.510490, -3.956867, 12.807034, -10.182689, 3.229690, 2.901753, -3.430582, -83.279739, -39.528961, -616.458923
1733469412.520062, -2.709638, 12.386851, -9.413702, 3.379422, 3.291235, -3.052495, -83.770508, -41.257141, -618.117737
1733469412.530516, -1.496376, 11.769596, -8.549096, 3.520221, 3.655450, -2.654648, -83.746185, -42.895630, -619.794800
1733469412.540507, -0.455198, 10.993575, -7.346907, 3.671049, 3.926620, -2.274954, -83.689880, -44.406555, -621.512634
1733469412.550492, 0.518045, 10.550050, -5.988647, 3.803412, 4.095942, -1.881610, -83.356155, -45.812729, -623.403870
1733469412.560539, 1.447295, 10.460267, -4.496909, 3.895100, 4.152033, -1.445664, -82.865875, -46.953262, -625.242004
1733469412.570502, 2.236184, 10.535535, -3.306542, 3.946809, 4.223587, -0.957887, -82.441315, -47.914261, -626.828735
1733469412.580492, 2.749441, 10.521469, -2.272696, 3.947579, 4.287796, -0.459355, -82.054123, -48.817230, -628.086731
1733469412.590495, 3.224241, 10.110115, -1.172261, 3.904087, 4.317008, 0.048786, -81.264786, -49.332458, -630.556274
1733469412.600494, 3.807080, 9.415946, -0.432752, 3.865288, 4.349516, 0.569307, -80.850998, -49.782761, -632.036255
1733469412.610490, 4.250755, 8.859294, -0.054169, 3.870552, 4.436063, 1.087927, -80.171234, -50.040924, -634.162354
1733469412.620486, 4.562151, 8.320449, 0.392200, 3.900355, 4.571456, 1.598896, -79.686111, -50.101562, -635.761230
1733469412.630492, 4.887164, 8.107216, 1.496975, 3.916514, 4.603374, 2.123689, -78.936676, -49.876144, -637.178101
1733469412.640536, 4.962133, 8.182633, 3.166631, 3.899403, 4.536636, 2.694208, -77.953644, -49.756134, -638.626709
1733469412.650491, 4.359392, 8.158990, 5.191228, 3.793015, 4.375641, 3.223036, -77.460251, -49.058014, -640.427734
1733469412.660488, 3.400515, 7.660697, 7.775020, 3.488424, 4.075054, 3.637080, -76.540176, -48.384476, -641.968628
1733469412.670488, 2.502988, 6.997354, 10.105925, 2.984891, 3.621238, 3.952709, -76.006897, -47.398697, -643.064209
1733469412.680541, 1.600973, 6.373963, 11.694029, 2.408668, 3.102054, 4.192758, -75.052856, -46.266052, -643.574829
1733469412.690492, 0.772579, 5.854422, 12.414983, 1.853948, 2.599010, 4.423778, -74.157257, -44.921875, -644.766113
1733469412.700486, -0.031574, 5.523723, 12.394932, 1.360561, 2.206398, 4.690776, -73.436066, -43.383896, -645.607544
1733469412.710542, -1.332523, 4.906168, 12.025776, 0.911444, 1.975723, 4.918359, -73.023026, -41.442520, -646.827881
1733469412.720490, -3.254019, 3.575291, 11.609484, 0.446134, 1.917764, 5.000303, -72.200409, -39.545578, -647.216858
1733469412.730486, -5.066729, 2.248305, 11.355549, -0.037418, 1.963422, 4.992140, -71.058258, -37.355347, -648.242554
1733469412.740550, -6.490381, 1.477522, 11.473314, -0.540656, 1.956747, 4.918928, -70.332352, -35.464752, -648.614014
1733469412.750485, -7.815572, 0.651223, 11.812392, -1.062155, 1.861579, 4.759034, -69.172516, -33.240463, -649.705261
1733469412.760482, -8.853907, -0.018106, 12.029816, -1.568668, 1.694548, 4.581447, -67.934616, -30.795074, -649.981323
1733469412.770495, -9.614964, -0.167145, 12.316821, -2.069910, 1.413781, 4.442875, -66.557831, -28.633179, -650.108887
1733469412.780496, -10.595539, 0.122404, 12.935423, -2.603842, 1.006770, 4.324305, -65.462097, -26.038132, -649.344177
1733469412.790495, -11.890503, 0.478092, 13.508535, -3.154997, 0.432348, 4.227210, -64.413696, -23.410141, -649.357056
1733469412.800502, -13.580959, 1.002572, 13.182923, -3.614119, -0.127032, 4.145086, -63.404327, -20.793503, -648.499268
1733469412.810492, -15.897200, 1.662474, 11.801768, -3.975465, -0.455141, 4.037982, -62.342926, -17.697922, -646.959961
1733469412.820479, -18.324920, 2.131737, 10.511443, -4.365203, -0.576133, 3.864785, -61.301636, -15.049820, -646.117004
1733469412.830497, -20.796784, 2.660257, 9.684396, -4.847929, -0.602950, 3.618995, -60.502533, -12.348862, -644.359558
1733469412.840042, -23.275231, 3.317466, 8.694094, -5.422174, -0.525237, 3.293308, -59.233368, -9.889648, -642.807678
1733469412.850497, -25.734825, 4.153790, 7.463774, -6.106932, -0.394778, 2.843050, -58.013290, -7.270111, -640.406982
1733469412.860482, -28.150574, 5.180603, 5.761048, -6.790841, -0.368191, 2.230441, -57.515671, -4.969116, -637.586609
1733469412.870549, -30.063092, 5.959617, 3.058742, -7.254329, -0.534431, 1.511196, -56.661240, -2.915344, -634.868591
1733469412.880299, -31.590743, 7.105991, -0.478391, -7.402360, -0.807629, 0.772866, -56.648254, -1.229233, -632.411133
1733469412.890480, -32.496499, 8.265532, -4.162170, -7.283515, -1.047893, 0.088867, -56.439026, -0.223328, -628.350586
1733469412.900468, -32.683696, 9.248951, -7.685088, -7.013472, -1.086736, -0.459787, -56.893021, 0.972672, -625.873047
1733469412.910476, -32.411206, 10.458322, -10.773010, -6.744352, -0.836234, -0.869161, -57.051712, 1.458115, -623.061768
1733469412.920499, -31.706861, 11.267263, -13.310414, -6.530480, -0.299330, -1.189718, -58.012115, 1.299911, -619.933655
1733469412.930356, -31.330373, 12.048820, -15.052645, -6.347120, 0.223949, -1.631448, -59.232010, 1.094101, -618.171387
1733469412.940479, -31.302092, 12.610559, -15.898846, -6.077867, 0.352954, -2.247516, -60.158524, 0.474182, -615.796875
1733469412.950492, -30.581736, 12.882750, -16.857724, -5.598718, 0.272734, -2.839892, -61.267273, -0.411484, -613.939087
1733469412.960483, -29.324332, 13.550882, -18.011878, -5.038095, 0.205148, -3.307988, -62.876984, -1.482773, -612.384338
1733469412.970484, -27.760020, 14.278271, -18.684948, -4.540562, 0.202554, -3.650316, -64.410797, -3.051163, -610.305908
1733469412.980268, -26.227731, 14.727183, -19.503017, -4.095230, 0.325558, -3.950284, -66.432831, -4.553864, -609.951477
1733469412.990488, -24.601769, 14.839711, -20.506636, -3.604764, 0.598613, -4.218394, -68.078979, -6.486679, -608.336243
1733469413.000478, -22.689400, 15.111004, -21.429452, -2.994354, 0.910330, -4.403867, -69.712326, -8.286789, -608.557922
1733469413.010476, -20.726753, 15.374665, -21.531205, -2.303553, 1.112379, -4.529787, -71.353317, -10.279327, -609.015564
1733469413.020480, -18.848951, 15.531336, -20.968867, -1.634303, 1.235914, -4.633018, -73.354202, -12.354202, -608.209473
1733469413.030262, -17.180941, 15.802030, -20.064158, -1.049512, 1.316003, -4.732588, -74.881042, -14.452179, -609.189575
1733469413.040492, -15.545252, 15.860090, -19.054104, -0.555975, 1.386378, -4.845690, -76.326385, -16.724335, -609.506592
1733469413.050495, -13.942484, 15.770606, -18.274343, -0.150985, 1.527865, -4.950826, -77.645218, -18.964645, -611.302124
1733469413.060487, -12.336723, 15.925631, -17.578079, 0.206112, 1.706748, -4.990208, -77.645218, -18.964645, -611.302124
1733469413.070486, -10.560225, 16.136919, -17.191266, 0.593431, 1.941729, -4.958899, -80.029160, -23.692963, -612.563110
1733469413.080293, -8.659678, 16.142007, -16.923564, 1.032794, 2.172037, -4.852381, -81.155045, -26.081924, -614.658203
1733469413.090313, -6.788460, 16.188544, -16.254385, 1.524925, 2.322767, -4.668198, -81.811081, -28.456100, -615.258545
1733469413.099726, -4.910807, 16.170588, -15.004462, 2.016099, 2.391793, -4.398992, -82.308121, -30.618378, -617.207642
1733469413.110490, -3.130119, 16.092776, -13.686603, 2.464833, 2.416800, -4.064295, -83.163651, -32.761032, -618.517273
1733469413.120481, -1.490391, 15.715989, -12.288390, 2.868399, 2.410857, -3.667271, -83.384384, -34.721069, -620.375122
1733469413.130317, -0.096067, 15.039926, -11.054628, 3.211078, 2.443159, -3.242799, -83.494736, -36.627457, -621.529663
1733469413.140537, 0.900968, 14.200908, -9.913192, 3.474468, 2.549559, -2.815521, -83.658585, -38.412903, -622.504028
1733469413.149670, 1.717690, 13.212551, -8.929175, 3.683477, 2.722720, -2.391585, -83.494019, -39.586105, -624.378418
1733469413.160487, 2.302773, 12.297966, -7.877073, 3.850345, 2.940523, -1.995618, -83.143723, -41.232681, -625.623352
1733469413.170490, 2.711583, 11.487978, -6.873753, 3.986674, 3.165907, -1.633801, -83.210678, -42.593491, -627.132690
1733469413.180300, 3.051560, 10.662427, -5.613954, 4.121618, 3.330307, -1.293391, -82.888351, -43.789993, -629.116150
1733469413.190485, 3.382558, 10.104728, -3.920505, 4.218138, 3.369068, -0.975429, -82.353577, -44.935944, -630.431702
1733469413.200480, 3.591751, 9.695619, -1.936610, 4.235252, 3.214284, -0.685294, -82.224670, -45.680695, -631.327271
1733469413.210480, 3.955072, 9.174431, 0.059256, 4.166997, 2.898636, -0.403053, -81.604111, -46.547165, -632.933838
1733469413.220488, 4.338742, 8.746916, 1.511041, 4.012657, 2.549504, -0.106830, -81.076843, -47.306412, -633.480042
1733469413.230309, 4.632182, 8.291120, 2.009483, 3.813776, 2.350117, 0.224102, -80.436127, -47.784653, -634.831177
1733469413.240475, 4.675128, 7.728932, 1.870171, 3.624297, 2.357373, 0.564329, -80.058884, -47.933899, -634.545837
1733469413.250479, 4.603302, 7.106439, 1.851017, 3.447533, 2.454891, 0.911899, -79.724594, -48.225967, -635.370117
1733469413.260488, 4.650288, 6.525846, 2.078017, 3.311581, 2.536092, 1.271649, -79.270004, -48.202774, -637.099304
1733469413.270401, 4.753089, 6.139032, 2.530671, 3.242034, 2.563745, 1.656219, -78.899155, -48.017334, -637.512939
1733469413.280328, 4.763414, 5.958719, 3.272425, 3.202700, 2.519565, 2.068326, -78.389801, -47.427826, -639.015259
1733469413.290488, 4.523245, 5.873126, 4.196886, 3.162223, 2.449080, 2.509060, -77.906158, -47.079239, -638.896973
1733469413.300472, 4.044256, 5.811176, 5.324405, 3.084512, 2.333167, 2.974629, -77.542313, -46.160004, -639.089233
1733469413.310470, 3.563470, 5.879710, 6.656928, 2.971869, 2.135914, 3.491457, -77.066162, -45.251038, -640.762695
1733469413.320482, 2.908057, 6.020070, 8.010999, 2.802346, 1.931905, 3.995447, -76.713287, -44.009033, -640.955811
1733469413.330320, 2.008286, 5.858462, 9.418939, 2.523974, 1.692211, 4.454549, -76.263962, -42.419159, -642.612793
1733469413.340178, 1.007510, 5.436933, 10.630854, 2.132477, 1.459615, 4.855507, -75.757553, -40.432632, -642.421936
1733469413.350477, -0.200514, 5.229535, 11.374403, 1.696690, 1.289439, 5.216354, -75.132599, -38.727295, -642.011597
1733469413.360486, -1.361253, 5.279514, 11.566388, 1.279230, 1.262268, 5.600416, -74.405777, -36.298264, -643.481934
1733469413.370469, -2.609231, 5.226093, 11.403134, 0.857148, 1.415362, 5.965014, -73.450714, -33.792923, -643.336243
1733469413.380348, -4.268562, 5.058350, 11.888109, 0.329070, 1.603485, 6.254762, -72.434280, -31.185883, -644.909912
1733469413.390478, -5.906047, 4.811747, 12.949788, -0.358009, 1.705411, 6.454257, -70.769730, -28.019257, -645.311035
1733469413.400469, -7.761852, 4.357297, 13.785963, -1.143949, 1.701139, 6.517082, -69.545166, -24.992279, -645.060974
1733469413.410472, -9.548076, 3.919907, 14.216919, -1.925783, 1.570237, 6.469952, -67.636017, -21.918640, -645.575439
1733469413.420474, -11.163414, 3.925743, 14.387805, -2.650838, 1.352887, 6.366456, -65.544327, -18.610168, -644.998047
1733469413.430368, -12.877962, 4.125958, 14.177864, -3.320232, 1.072442, 6.203639, -65.544327, -18.610168, -644.998047
1733469413.439810, -14.811429, 4.688445, 13.702914, -3.934907, 0.770945, 5.998579, -63.631775, -15.373199, -645.036194
1733469413.450500, -16.792482, 5.480028, 12.593501, -4.466259, 0.543769, 5.784073, -61.443878, -11.984177, -643.032471
1733469413.460474, -19.016396, 6.351368, 11.226262, -4.984831, 0.452283, 5.529635, -59.343506, -8.757507, -642.482910
1733469413.470482, -22.074988, 7.652617, 10.501866, -5.631193, 0.444905, 5.107191, -57.226395, -6.012360, -640.554199
1733469413.480355, -25.620202, 8.901791, 9.863213, -6.441222, 0.538550, 4.473444, -55.240524, -3.041611, -638.354004
1733469413.490475, -28.717850, 10.400711, 8.314613, -7.354845, 0.661845, 3.676174, -53.169830, -0.242096, -635.496643
1733469413.500205, -31.131505, 12.423363, 5.762394, -8.172065, 0.683456, 2.784993, -51.499756, 1.982925, -631.956421
1733469413.510462, -32.534357, 14.146440, 2.095824, -8.710139, 0.529651, 1.880637, -50.416168, 4.125290, -629.008423
1733469413.520536, -33.350481, 15.863980, -2.136975, -8.915195, 0.218598, 1.024455, -49.907730, 5.360657, -624.657227
1733469413.530468, -34.199974, 17.745075, -6.492027, -8.841343, -0.176770, 0.194038, -49.573853, 6.245285, -620.907349
1733469413.540472, -34.721760, 18.669985, -11.339987, -8.413684, -0.344466, -0.552074, -49.659821, 6.523117, -616.649597
1733469413.550466, -34.757972, 18.609082, -16.508469, -7.635965, -0.103081, -1.223556, -50.147324, 6.268570, -613.407104
1733469413.560477, -33.890074, 18.227955, -19.944298, -6.716865, 0.332693, -1.772628, -50.876968, 6.097992, -610.610474
1733469413.570473, -32.077663, 17.618780, -21.464766, -5.795568, 0.753193, -2.177221, -52.405960, 4.995483, -607.799561
1733469413.580466, -30.248493, 17.275362, -21.566969, -4.946259, 1.092866, -2.479956, -53.703400, 4.167664, -606.643921
1733469413.590470, -28.714409, 17.424700, -20.765510, -4.239211, 1.320660, -2.742897, -55.210281, 3.281036, -605.280457
1733469413.600464, -27.545739, 17.758093, -19.475035, -3.724808, 1.410700, -3.015544, -57.181564, 1.842712, -603.851562
1733469413.610364, -26.545412, 17.799992, -18.580651, -3.331280, 1.451820, -3.337177, -58.559525, 0.614090, -603.418518
1733469413.620458, -25.616312, 17.615339, -18.399140, -2.980257, 1.543384, -3.732527, -60.485153, -0.850266, -602.516357
1733469413.630045, -24.576630, 17.766173, -18.528876, -2.619493, 1.645819, -4.148838, -62.767746, -2.285614, -601.962280
1733469413.640484, -23.060352, 18.024149, -19.066973, -2.148580, 1.769826, -4.487469, -64.665894, -3.970535, -601.949951
1733469413.650480, -21.307497, 17.840693, -19.964051, -1.552523, 2.017441, -4.769334, -66.752243, -6.087555, -602.619080
1733469413.660482, -19.458275, 17.727417, -20.233099, -0.901037, 2.287460, -4.981513, -68.944122, -8.107315, -603.593506
1733469413.670465, -17.446099, 18.141016, -19.562573, -0.228545, 2.437449, -5.132679, -71.255081, -10.100174, -604.269897
1733469413.680461, -15.525650, 18.285566, -18.552220, 0.471489, 2.434144, -5.235419, -73.281418, -12.352951, -605.473633
1733469413.690457, -13.982587, 18.446576, -17.477971, 1.168175, 2.360582, -5.317288, -75.103439, -14.443329, -606.792969
1733469413.700510, -12.520926, 18.609980, -15.875802, 1.757456, 2.221641, -5.378801, -76.609360, -16.828171, -608.416931
1733469413.710455, -11.087698, 18.675820, -14.128334, 2.219946, 2.063773, -5.395407, -78.150375, -19.257523, -610.096069
1733469413.720456, -9.701904, 18.789246, -12.983307, 2.600889, 1.990079, -5.357066, -79.721191, -21.539078, -610.825684
1733469413.730456, -8.290671, 18.613870, -12.228684, 2.925135, 2.026179, -5.258943, -80.810028, -23.943939, -613.124390
1733469413.740502, -6.906973, 18.296489, -11.661558, 3.218140, 2.169629, -5.105526, -81.696808, -26.581528, -615.004150
1733469413.750469, -5.450101, 17.782484, -11.166257, 3.495508, 2.415212, -4.878571, -82.063019, -29.139496, -616.388611
1733469413.760471, -3.806032, 17.170466, -10.666168, 3.745018, 2.767004, -4.560434, -82.767792, -31.510605, -618.028320
1733469413.770461, -2.140566, 16.514006, -9.887754, 3.966416, 3.098393, -4.155133, -83.631592, -33.861771, -620.012939
1733469413.780464, -0.701501, 15.877896, -8.766070, 4.178863, 3.365623, -3.697798, -83.705627, -35.889908, -622.019165
1733469413.790462, 0.428412, 15.103672, -7.646182, 4.384658, 3.564962, -3.230930, -83.699036, -38.097229, -623.528931
1733469413.800454, 1.364096, 14.274530, -6.567744, 4.574934, 3.751685, -2.754225, -83.528564, -40.026657, -625.874390
1733469413.810507, 2.087744, 13.506290, -5.537938, 4.716640, 3.943091, -2.288393, -83.488998, -41.612213, -627.917542
1733469413.820461, 2.477101, 12.603975, -4.301483, 4.812435, 4.092986, -1.856667, -82.837555, -43.116394, -629.803772
1733469413.830472, 2.960580, 11.793089, -2.664597, 4.855849, 4.093345, -1.451559, -82.542801, -44.589325, -631.424561
1733469413.840462, 3.522320, 11.178976, -0.652869, 4.852628, 3.874222, -1.058653, -81.814026, -46.193863, -633.511475
1733469413.850458, 4.125509, 10.484209, 1.473033, 4.776412, 3.432428, -0.691456, -81.096725, -47.311157, -634.106506
1733469413.860467, 4.676774, 9.519047, 3.190573, 4.622182, 2.922146, -0.374785, -80.938904, -48.401382, -634.464722
1733469413.870459, 4.978892, 8.569596, 4.245967, 4.378419, 2.475337, -0.122762, -80.393036, -49.234528, -636.016479
1733469413.880444, 5.204097, 7.648128, 4.570531, 4.083748, 2.185067, 0.116548, -80.014603, -49.799942, -636.437927
1733469413.890445, 5.450400, 7.115567, 4.585046, 3.824331, 2.047660, 0.389468, -79.821106, -50.210846, -637.132751
1733469413.900508, 5.769876, 6.714987, 4.917541, 3.600040, 1.972696, 0.701298, -79.150284, -50.868469, -637.823730
1733469413.910461, 6.135740, 6.242432, 5.662586, 3.369965, 1.866179, 1.076052, -78.874832, -51.004120, -637.604370
1733469413.920457, 6.440402, 6.086061, 6.275053, 3.142761, 1.768014, 1.533789, -78.666199, -50.770477, -638.317261
1733469413.930512, 6.423194, 5.798308, 6.650494, 2.926091, 1.701419, 2.011381, -78.566406, -50.494095, -638.463501
1733469413.940449, 6.161777, 5.348946, 6.855198, 2.720119, 1.711166, 2.509657, -78.221176, -49.820312, -639.104553
1733469413.949440, 5.757307, 5.094412, 7.214029, 2.503872, 1.760153, 3.027536, -77.763443, -48.991440, -639.073242
1733469413.960459, 5.249138, 5.133468, 8.049306, 2.249052, 1.771970, 3.572612, -77.419250, -47.796814, -639.940979
1733469413.970454, 4.461894, 5.174169, 9.065794, 1.944426, 1.728838, 4.116936, -77.388184, -46.247452, -640.569763
1733469413.980457, 3.358017, 4.999392, 9.980978, 1.566720, 1.676790, 4.615766, -76.814087, -44.388687, -641.420044
1733469413.990449, 2.097021, 4.705354, 10.729016, 1.092867, 1.641384, 5.038545, -76.628357, -42.344070, -642.111328
1733469414.000450, 0.722899, 4.393360, 11.011532, 0.561846, 1.646407, 5.392773, -76.010330, -39.946014, -643.195068
1733469414.010500, -0.789189, 4.033781, 10.845135, 0.032068, 1.754592, 5.666339, -75.268265, -37.363556, -644.032471
1733469414.020459, -2.534861, 3.441515, 10.644471, -0.488989, 1.902721, 5.833558, -74.353455, -34.587769, -644.610229
1733469414.030454, -4.378845, 2.912397, 11.016620, -1.045943, 1.947454, 5.871195, -73.266937, -31.771515, -645.098755
1733469414.040454, -6.211307, 2.578555, 11.619809, -1.609030, 1.882541, 5.822690, -71.807907, -28.857437, -645.705261
1733469414.050453, -8.007707, 2.267159, 11.825710, -2.151996, 1.819054, 5.712940, -70.175339, -26.038834, -645.352173
1733469414.060448, -9.654768, 2.114080, 11.993304, -2.689829, 1.694646, 5.589308, -68.565094, -22.937241, -646.098511
1733469414.070447, -11.157429, 2.241122, 12.477382, -3.741765, 1.005718, 5.343338, -66.726837, -19.801636, -646.046570
1733469414.080445, -12.733262, 2.589928, 13.053038, -4.255615, 0.523647, 5.200917, -65.126678, -16.567123, -644.764099
1733469414.090076, -14.699949, 3.563171, 13.272855, -4.255615, 0.523647, 5.200917, -63.532639, -13.621201, -644.217529
1733469414.100460, -19.927539, 5.196465, 12.427104, -5.241738, -0.348331, 4.626114, -61.717239, -10.637589, -642.447327
1733469414.110451, -19.927539, 5.196465, 12.427104, -5.733008, -0.636955, 4.252146, -59.977310, -7.702545, -640.580200
1733469414.120518, -22.511481, 6.288670, 11.578359, -5.733008, -0.636955, 4.252146, -58.300629, -4.928406, -638.023560
1733469414.130461, -27.853843, 9.293992, 8.957756, -6.267286, -0.777225, 3.807275, -56.753357, -2.415421, -635.109497
1733469414.140439, -29.862877, 10.572495, 6.762872, -6.819894, -0.673764, 3.307967, -55.604370, -0.081497, -632.460938
1733469414.150467, -31.051748, 11.943026, 4.352509, -7.920956, -0.033364, 2.204541, -54.166382, 1.928497, -628.786743
1733469414.160466, -32.105047, 13.559561, 1.618331, -7.920956, -0.033364, 2.204541, -53.671844, 3.183716, -626.072510
1733469414.170446, -33.420960, 14.804995, -1.212663, -8.389009, 0.225654, 0.917512, -53.099762, 4.372528, -622.338257
1733469414.179869, -33.420960, 14.804995, -1.212663, -8.389009, 0.225654, 0.917512, -52.798157, 5.207626, -618.589050
1733469414.190450, -34.974049, 17.640328, -6.636128, -8.196318, 0.183515, -0.646281, -53.155029, 5.135849, -615.076111
1733469414.200177, -34.974049, 17.640328, -6.636128, -8.196318, 0.183515, -0.646281, -53.645233, 4.917740, -611.645203
1733469414.210446, -34.233343, 19.624074, -12.891579, -7.376633, 0.192717, -2.064870, -54.359131, 4.066513, -608.125916
1733469414.220445, -33.257257, 20.127156, -15.986533, -6.681220, 0.320205, -2.620842, -55.473343, 2.917282, -606.036133
1733469414.230438, -32.002845, 20.556765, -18.507328, -5.897090, 0.509524, -3.066065, -57.000275, 1.711578, -603.417786
1733469414.240438, -30.370747, 21.287296, -20.219332, -5.133117, 0.725784, -3.422714, -58.550781, -0.006668, -601.361633
1733469414.250437, -28.509405, 22.093244, -21.340866, -4.433702, 0.930493, -3.692837, -60.224854, -1.695648, -599.278198
1733469414.259947, -26.443508, 22.181829, -22.395811, -4.433702, 0.930493, -3.692837, -62.015030, -3.442535, -598.865417
1733469414.270439, -24.611645, 22.145916, -23.561787, -2.943470, 1.508533, -4.057761, -63.553329, -5.295197, -598.609131
1733469414.280445, -22.769007, 21.805641, -24.261343, -2.081132, 1.826444, -4.151648, -65.784027, -6.987152, -598.696655
1733469414.290440, -20.978145, 21.284902, -24.274661, -1.177829, 2.107909, -4.217353, -67.768112, -8.689667, -599.270630
1733469414.300445, -19.329138, 20.728100, -23.547273, -0.311929, 2.300234, -4.297986, -69.853989, -10.482498, -599.773682
1733469414.310435, -17.770812, 20.269910, -22.087259, 0.463718, 2.374876, -4.413738, -72.195099, -12.227051, -600.722717
1733469414.320479, -16.190789, 19.775657, -20.337696, 1.132324, 2.413313, -4.530732, -73.587006, -14.146423, -602.058594
1733469414.330443, -14.685584, 19.244743, -18.510022, 1.669465, 2.459217, -4.659572, -75.183929, -15.913483, -604.312561
1733469414.340445, -13.354857, 19.005771, -16.636410, 2.103086, 2.492191, -4.792896, -77.086075, -17.905411, -605.864197
1733469414.350427, -12.082339, 18.992154, -14.877719, 2.462276, 2.503009, -4.910532, -78.533066, -20.011612, -606.576050
1733469414.360449, -10.738443, 18.930204, -13.311163, 2.782987, 2.458091, -4.994789, -79.629730, -22.076981, -608.894287
1733469414.370435, -9.324368, 18.747646, -11.910555, 3.110128, 2.350059, -5.041376, -80.975632, -24.675110, -610.648804
1733469414.380441, -7.805546, 18.516307, -10.621876, 3.437850, 2.206646, -5.016896, -81.859833, -27.222153, -613.319153
1733469414.390440, -6.136040, 18.183363, -9.569325, 3.711513, 2.137961, -4.897645, -82.647293, -29.403412, -613.978149
1733469414.400451, -4.517859, 17.673548, -8.860791, 3.914295, 2.244287, -4.683435, -83.245270, -31.692673, -615.319946
1733469414.410437, -2.984223, 16.988956, -8.328380, 4.042628, 2.538640, -4.383515, -83.845352, -34.344391, -616.548645
1733469414.420444, -1.562516, 16.332496, -7.675511, 4.136754, 2.889817, -4.015352, -84.189941, -36.516205, -618.305237
1733469414.430449, -0.272340, 15.439758, -6.641066, 4.252083, 3.144785, -3.628846, -84.357498, -38.678543, -620.434021
1733469414.440432, 0.986860, 14.320468, -5.504569, 4.418207, 3.274509, -3.243103, -84.492676, -40.815979, -621.951843
1733469414.450438, 2.114828, 13.421296, -3.942053, 4.585044, 3.208147, -2.863050, -84.504440, -42.692886, -622.972412
1733469414.460241, 3.128922, 12.513744, -2.315043, 4.690477, 3.039087, -2.487062, -84.350906, -44.260864, -625.111267
1733469414.470450, 4.061165, 11.627141, -1.161936, 4.684889, 2.989141, -2.089962, -83.958313, -45.958298, -626.406250
1733469414.480433, 4.759972, 10.903494, -0.251092, 4.576484, 3.031796, -1.662814, -83.239395, -47.432190, -627.462952
1733469414.490437, 5.304204, 10.422109, 1.115249, 4.377099, 3.071448, -1.205849, -83.143448, -48.389297, -628.190552
1733469414.500444, 5.826739, 10.003872, 2.356194, 4.086809, 3.052644, -0.716132, -82.681717, -49.459595, -629.723511
1733469414.510436, 6.230311, 9.568726, 3.198653, 3.800975, 2.922305, -0.226971, -82.399582, -50.184067, -630.244873
1733469414.519983, 6.335507, 8.919299, 3.236362, 3.633756, 2.801538, 0.224838, -81.973862, -50.736542, -631.357544
1733469414.530433, 6.218490, 8.220192, 3.066374, 3.563961, 2.714923, 0.625816, -81.643188, -50.906677, -632.089111
1733469414.540434, 6.022016, 7.326407, 3.532794, 3.476208, 2.593216, 0.963100, -81.319672, -51.140045, -633.053467
1733469414.550435, 5.872827, 6.844424, 4.198831, 3.362934, 2.478930, 1.298651, -81.071701, -51.108505, -632.943848
1733469414.560439, 5.766584, 6.715287, 4.622904, 3.267015, 2.394630, 1.662680, -80.621292, -50.668762, -634.216431
1733469414.570434, 5.615001, 6.534674, 5.175366, 3.171354, 2.319340, 2.052795, -80.553192, -50.377335, -634.914307
1733469414.580425, 5.578490, 6.531232, 5.977124, 3.061579, 2.241626, 2.523369, -79.619278, -49.798553, -635.812378
1733469414.590483, 5.557391, 6.677877, 7.004985, 2.930769, 2.139158, 3.070507, -79.535568, -48.789398, -636.588440
1733469414.600429, 5.244499, 6.677578, 8.334964, 2.735236, 2.034679, 3.687742, -79.207260, -47.631485, -637.036499
1733469414.610434, 4.377498, 6.431275, 9.794679, 2.396570, 1.933404, 4.291693, -79.082642, -45.717285, -637.544312
1733469414.619597, 2.951452, 5.852327, 10.835857, 1.939958, 1.868421, 4.839861, -78.535294, -44.095169, -638.636292
1733469414.630430, 1.264587, 5.115361, 11.220576, 1.477116, 1.883276, 5.315485, -77.898911, -41.840057, -639.114258
1733469414.640425, -0.712275, 4.341137, 11.188853, 1.058080, 1.981911, 5.701099, -77.249878, -39.459946, -640.076538
1733469414.649575, -3.063231, 3.358466, 11.322778, 0.612433, 2.098125, 5.926533, -76.574280, -36.864258, -640.854126
1733469414.660426, -5.685331, 2.354548, 11.761216, 0.187430, 2.215004, 6.022030, -75.519577, -34.294342, -642.202271
1733469414.670425, -8.153005, 1.569549, 12.865841, -0.320442, 2.231418, 5.972150, -74.154297, -31.748001, -643.174133
1733469414.680433, -10.207828, 1.234660, 14.423419, -0.951732, 1.985794, 5.824810, -72.859009, -28.937164, -643.656555
1733469414.690423, -12.019491, 1.397166, 15.379903, -1.583855, 1.599174, 5.619610, -71.317123, -26.079483, -644.031067
1733469414.700422, -13.795989, 1.481263, 15.455320, -2.155495, 1.151193, 5.349678, -70.012772, -23.257217, -643.827209
1733469414.710383, -15.357756, 1.617134, 15.159935, -2.686334, 0.633567, 5.053164, -68.517563, -20.781265, -644.206177
1733469414.720437, -16.265757, 1.899200, 14.780005, -3.160199, 0.038838, 4.830907, -67.248520, -17.868515, -643.024292
1733469414.730440, -17.120188, 2.483685, 13.612234, -3.518899, -0.392491, 4.690095, -65.950134, -15.132126, -641.922852
1733469414.740427, -18.471565, 3.299210, 12.363807, -3.875307, -0.597760, 4.589907, -64.450089, -12.185104, -640.481750
1733469414.750423, -20.494815, 4.182521, 11.827805, -4.387980, -0.563998, 4.421235, -62.811905, -9.674622, -639.137756
1733469414.760423, -22.933609, 5.167884, 11.141268, -5.042982, -0.285193, 4.154724, -61.486389, -6.916473, -637.404785
1733469414.770419, -25.251196, 6.177938, 10.163087, -5.807815, 0.062938, 3.758512, -60.198776, -4.649628, -635.084961
1733469414.780430, -27.143962, 6.991518, 8.885930, -6.514559, 0.245199, 3.257200, -58.633133, -2.493118, -632.970764
1733469414.790436, -28.651112, 8.131008, 6.904728, -7.057230, 0.218754, 2.698748, -57.786789, -0.440399, -630.002380
1733469414.800423, -30.356681, 9.767445, 4.758177, -7.481697, -0.100440, 2.048095, -56.814377, 1.012909, -626.907532
1733469414.810426, -32.285959, 11.736676, 1.990629, -7.762838, -0.510783, 1.307915, -56.344803, 2.240463, -623.550293
1733469414.820429, -33.831117, 13.426683, -1.879598, -7.836746, -0.758966, 0.560292, -55.974213, 2.900543, -619.415405
1733469414.830435, -34.850598, 14.718355, -6.053889, -7.725601, -0.863283, -0.188779, -56.367569, 3.015350, -616.333313
1733469414.840425, -35.687072, 15.266926, -10.043526, -7.413202, -0.837371, -0.968855, -56.845505, 2.689621, -613.302185
1733469414.850425, -35.677495, 15.083022, -14.048278, -6.879267, -0.613882, -1.712041, -57.501389, 2.163193, -610.345825
1733469414.860426, -34.268358, 14.845846, -17.320104, -6.214894, -0.325039, -2.276680, -58.510208, 0.931473, -607.687500
1733469414.870422, -32.176873, 15.297752, -19.383756, -5.547019, 0.016518, -2.641421, -59.846603, -0.145172, -605.596069
1733469414.880422, -30.262260, 16.137518, -20.361039, -4.993408, 0.380260, -2.873573, -61.203476, -1.531235, -604.025391
1733469414.890419, -28.857911, 16.762704, -20.735582, -4.548641, 0.749047, -3.045397, -62.409378, -2.978638, -603.142151
1733469414.900417, -27.882873, 17.455975, -21.520731, -4.087000, 1.112191, -3.193669, -62.409378, -2.978638, -603.142151
1733469414.910417, -26.844388, 17.538126, -22.534076, -3.476848, 1.386867, -3.354041, -64.034698, -4.546814, -602.478455
1733469414.920427, -25.806800, 16.859818, -23.664588, -2.670855, 1.648014, -3.584734, -65.984726, -6.253891, -601.979553
1733469414.930424, -24.733151, 15.887773, -24.248923, -1.778981, 1.914030, -3.893148, -67.513321, -7.929916, -601.868408
1733469414.940426, -23.583485, 15.530588, -23.646333, -0.948474, 2.134145, -4.259012, -69.493027, -9.857178, -602.436951
1733469414.950422, -21.930887, 15.552285, -22.103868, -0.225696, 2.218484, -4.626676, -71.700409, -11.696350, -602.581177
1733469414.960431, -19.922900, 15.618724, -20.196438, 0.403558, 2.176833, -4.951413, -73.199203, -13.605713, -604.346924
1733469414.970419, -17.960253, 16.038907, -18.332103, 0.949583, 2.094118, -5.214088, -75.209152, -15.826691, -605.815674
1733469414.980472, -16.106094, 16.390854, -16.683695, 1.384885, 2.040694, -5.411359, -76.798523, -18.070023, -606.680298
1733469414.990409, -14.250737, 16.549320, -15.139734, 1.742443, 2.000026, -5.531699, -78.305664, -20.629013, -608.075195
1733469415.000409, -12.533795, 16.748189, -13.835493, 2.076823, 2.035612, -5.549848, -79.663406, -23.008865, -609.332214
1733469415.010420, -10.836007, 16.995091, -12.930036, 2.391383, 2.146567, -5.490434, -80.560287, -25.814255, -610.577637
1733469415.020424, -9.087941, 16.979977, -11.814338, 2.690396, 2.232175, -5.376794, -81.834763, -28.757416, -612.899475
1733469415.030416, -7.310994, 16.745944, -10.746524, 2.977954, 2.305553, -5.205990, -82.469391, -31.335587, -614.068604
1733469415.040415, -5.394436, 16.434848, -10.118794, 3.250175, 2.473903, -4.929756, -83.236801, -33.690231, -614.963318
1733469415.050488, -3.459621, 15.801132, -9.550022, 3.508140, 2.697613, -4.584281, -83.707657, -36.329285, -616.297241
1733469415.060418, -1.788618, 15.074343, -8.514978, 3.749235, 2.886383, -4.198614, -83.846481, -38.889694, -618.083618
1733469415.070420, -0.274585, 14.264354, -7.410353, 3.960462, 3.052375, -3.801764, -84.144867, -40.956436, -620.054810
1733469415.080406, 1.062427, 13.463793, -6.190957, 4.131410, 3.180868, -3.381408, -84.156418, -43.081406, -621.492065
1733469415.090464, 2.307262, 12.682984, -5.009119, 4.247805, 3.312251, -2.937117, -84.075378, -44.962921, -622.554688
1733469415.100420, 3.278111, 11.952004, -3.789123, 4.305717, 3.426064, -2.485977, -83.779984, -46.764954, -624.512878
1733469415.110412, 4.132841, 11.321431, -2.578705, 4.295321, 3.485346, -2.026009, -83.564117, -48.334106, -626.160950
1733469415.120409, 4.890606, 10.787524, -1.252317, 4.262091, 3.450512, -1.554682, -83.111252, -49.771118, -627.073364
1733469415.130466, 5.566818, 10.106673, 0.238522, 4.158248, 3.297289, -1.098276, -82.329498, -50.989746, -628.299683
1733469415.140411, 6.059425, 9.445425, 1.602020, 3.990448, 3.054366, -0.647685, -82.035049, -51.841400, -628.770386
1733469415.150406, 6.214150, 8.817396, 2.521094, 3.809898, 2.801493, -0.229895, -81.577591, -52.651413, -629.318848
1733469415.160405, 6.328623, 8.038083, 3.204938, 3.613865, 2.552835, 0.161795, -81.386459, -53.111191, -630.854797
