SamplingTime, AccelerationX, AccelerationY, AccelerationZ, GyroX, GyroY, GyroZ, MagneticFieldX, MagneticFieldY, MagneticFieldZ
1733469493.985932, -7.951892, -1.824531, -6.171653, 0.072967, -0.222185, -0.068002, , , 
1733469493.995925, -7.751527, -1.809418, -6.352565, 0.131587, -0.294374, -0.116115, -72.261353, -21.346451, -639.232910
1733469494.005932, -7.564929, -1.717840, -6.634632, 0.153543, -0.262605, -0.128357, -72.182068, -21.337143, -639.065918
1733469494.015965, -7.380426, -1.686416, -6.952013, 0.184195, -0.176603, -0.119652, -72.188477, -21.299316, -638.994751
1733469494.025962, -7.287351, -1.731606, -7.273136, 0.250068, -0.089394, -0.094002, -72.187317, -21.522659, -639.274170
1733469494.035662, -7.284508, -1.748216, -7.630321, 0.362035, 0.046531, -0.034038, -72.383743, -21.533798, -638.945801
1733469494.045956, -7.383568, -1.834258, -7.585130, 0.456296, 0.201003, 0.033723, -72.345825, -21.592270, -639.286011
1733469494.055989, -7.599795, -2.159720, -7.126491, 0.486913, 0.334252, 0.089815, -72.442444, -21.714905, -639.192017
1733469494.065949, -7.735815, -2.396147, -6.504896, 0.442500, 0.413755, 0.129162, -72.321930, -21.957748, -638.951965
1733469494.075256, -7.957728, -2.567033, -5.989544, 0.343798, 0.458154, 0.130141, -71.930450, -21.990555, -639.878296
1733469494.085951, -8.067562, -2.605041, -5.735011, 0.229540, 0.449266, 0.099002, -72.070740, -22.101685, -639.313110
1733469494.095940, -8.206575, -2.617012, -5.588665, 0.127606, 0.356528, 0.038736, -71.963943, -21.981293, -640.162964
1733469494.105940, -8.381053, -2.751237, -6.246622, 0.060746, 0.354478, -0.057023, -71.994034, -21.843018, -640.330872
1733469494.115937, -8.691999, -2.773383, -6.894553, 0.063044, 0.315061, -0.142753, -71.863647, -21.989563, -639.825012
1733469494.125945, -9.001899, -2.731335, -7.064092, 0.131741, 0.248178, -0.230787, -71.721771, -22.024429, -640.539307
1733469494.135206, -8.984391, -2.864363, -7.774571, 0.185611, 0.319499, -0.328798, -71.297058, -22.243805, -639.950562
1733469494.145934, -8.609998, -2.746897, -8.082077, 0.234552, 0.446392, -0.349640, -71.539337, -22.293320, -640.845337
1733469494.155930, -8.293814, -2.754080, -8.274810, 0.291168, 0.615654, -0.334061, -71.552368, -22.567825, -640.940613
1733469494.165928, -8.051850, -2.890999, -8.211663, 0.359639, 0.732956, -0.320085, -71.345581, -22.593216, -640.692505
1733469494.175932, -7.845799, -2.955043, -7.969699, 0.454195, 0.755308, -0.306860, -71.160873, -23.148697, -641.687439
1733469494.185935, -7.668927, -3.045873, -7.746140, 0.532300, 0.734883, -0.311105, -71.168686, -23.461502, -641.606689
1733469494.195928, -7.630321, -3.145682, -7.322067, 0.556475, 0.668894, -0.335982, -71.152008, -23.700592, -642.700195
1733469494.205653, -7.670573, -3.191471, -6.863129, 0.507484, 0.582993, -0.374558, -70.996216, -23.976456, -642.284607
1733469494.215987, -7.522881, -3.233070, -6.599318, 0.409812, 0.472173, -0.426049, -71.102524, -24.300659, -643.154663
1733469494.225942, -7.439982, -3.361908, -6.794445, 0.319980, 0.387712, -0.485567, -71.016098, -24.529922, -643.462341
1733469494.235925, -7.254281, -3.320907, -7.375637, 0.273257, 0.421868, -0.538975, -70.880219, -24.769699, -642.960754
1733469494.245926, -7.237672, -3.093009, -7.950246, 0.263008, 0.596723, -0.633002, -71.162201, -24.870148, -643.601257
1733469494.255924, -7.137564, -2.768296, -8.273463, 0.275745, 0.741838, -0.715227, -70.758759, -25.329987, -644.380554
1733469494.266001, -6.227169, -3.133711, -8.233360, 0.269923, 0.674773, -0.693401, -70.631943, -25.855881, -643.903503
1733469494.275930, -5.624279, -3.014450, -8.894160, 0.314918, 0.737509, -0.650114, -70.439774, -26.063721, -645.198242
1733469494.285921, -5.236568, -2.209549, -9.485827, 0.432508, 0.951970, -0.571465, -70.353149, -26.557190, -644.657471
1733469494.295953, -4.739621, -1.698237, -9.185355, 0.567133, 1.101176, -0.483590, -70.409561, -26.823730, -644.707031
1733469494.305927, -4.248212, -1.663671, -8.854506, 0.684198, 1.176382, -0.383055, -69.809494, -27.488541, -646.141541
1733469494.315987, -3.861249, -1.599776, -8.630798, 0.823690, 1.179306, -0.292934, -70.052368, -27.808975, -646.052734
1733469494.325929, -3.646369, -1.420510, -8.227225, 0.982264, 1.103178, -0.233342, -69.775436, -28.254486, -647.369019
1733469494.335916, -3.149123, -1.154005, -7.583334, 1.137340, 1.010565, -0.175493, -69.400589, -28.524170, -647.061401
1733469494.345929, -2.544438, -0.825401, -6.595726, 1.192757, 0.901454, -0.077319, -69.499771, -28.972275, -647.516968
1733469494.355924, -2.328660, -0.568024, -5.388600, 1.125372, 0.767316, 0.004408, -68.992233, -29.264114, -648.330811
1733469494.365964, -2.007688, -0.202011, -4.094833, 0.956965, 0.691950, 0.143640, -68.817368, -29.591507, -648.538025
1733469494.375938, -1.621473, -0.119560, -4.199280, 0.696532, 0.973947, 0.287919, -68.448196, -29.574692, -649.410706
1733469494.385919, -1.032948, 0.242563, -4.064756, 0.464060, 1.234242, 0.537555, -67.795120, -29.807205, -649.198669
1733469494.395939, -0.447716, 0.713622, -3.279757, 0.289882, 1.452888, 0.818435, -67.783005, -29.443680, -649.656372
1733469494.405938, -0.027982, 1.025616, -2.964022, 0.155729, 1.584080, 1.110120, -66.817352, -29.296082, -651.126648
1733469494.415926, 0.156072, 1.264887, -2.082058, 0.069850, 1.545825, 1.368536, -66.140411, -29.074783, -651.212891
1733469494.425932, 0.201412, 1.091906, -1.085621, -0.011367, 1.335135, 1.556997, -65.906448, -28.436829, -652.142761
1733469494.435945, 0.278476, 0.646285, -0.207098, -0.086244, 0.950911, 1.712922, -65.095001, -27.714355, -651.970642
1733469494.445921, -0.106692, 0.401029, -0.755520, -0.105446, 0.585490, 1.859497, -64.521301, -27.140427, -651.946655
1733469494.455409, -0.354791, 0.772729, 0.505925, 0.000912, -0.001684, 2.057900, -64.188553, -26.504028, -652.455566
1733469494.465927, -1.463007, 0.947356, 0.527173, 0.096476, -0.311322, 2.248779, -63.538879, -25.940384, -651.681763
1733469494.475921, -3.019388, 0.895282, 1.015740, 0.068324, -0.378460, 2.408729, -63.319489, -24.970520, -652.312439
1733469494.485921, -5.112369, 0.427964, 2.450316, -0.147333, -0.313013, 2.441734, -62.975037, -24.197678, -651.774536
1733469494.495921, -7.252935, -0.333093, 4.487482, -0.661568, -0.240533, 2.257071, -62.414459, -22.975662, -651.255127
1733469494.505666, -8.351424, -0.818368, 5.857863, -1.429638, -0.134591, 2.036905, -62.197556, -21.685059, -651.454224
1733469494.515921, -8.718485, -1.332074, 6.117784, -2.228346, 0.019399, 1.886937, -61.239410, -20.546692, -651.026306
1733469494.525924, -9.050980, -1.455076, 5.524022, -2.895791, 0.178723, 1.816826, -60.882080, -18.820343, -650.665527
1733469494.535918, -9.664644, -1.415572, 4.374356, -3.435786, 0.251885, 1.749159, -60.380310, -16.841293, -649.573486
1733469494.545917, -10.360010, -1.383100, 2.865111, -3.730094, 0.231119, 1.716388, -59.822540, -15.107834, -649.175659
1733469494.555423, -11.190947, -1.479916, 1.471237, -3.826231, 0.261000, 1.673276, -59.001770, -13.383560, -647.604248
1733469494.565380, -13.136236, -1.552041, 1.227328, -3.897577, 0.179969, 1.546770, -58.747528, -11.439789, -647.159790
1733469494.575386, -15.678130, -1.045069, 1.537526, -4.052055, 0.116741, 1.270317, -58.449020, -9.880295, -645.156067
1733469494.585917, -18.264616, -0.468665, 1.951125, -4.427404, -0.053477, 0.769038, -58.029129, -8.325180, -644.118408
1733469494.595923, -19.488353, 0.475997, 1.374122, -4.852602, -0.374568, 0.210432, -57.829346, -6.761078, -642.494873
1733469494.605932, -19.479225, 1.835305, -0.575057, -5.067540, -0.747152, -0.239338, -58.129837, -5.622528, -639.858154
1733469494.615922, -19.314324, 3.097648, -2.817975, -5.079043, -1.139311, -0.538885, -58.369125, -4.432373, -638.449707
1733469494.625920, -19.429395, 3.854066, -5.158158, -4.940452, -1.404237, -0.711094, -58.627350, -3.369736, -636.026794
1733469494.635922, -19.983204, 4.389769, -6.996456, -4.766847, -1.495544, -0.793397, -58.923782, -2.751663, -633.335938
1733469494.645921, -20.989667, 4.988768, -8.126818, -4.682720, -1.412786, -0.878144, -59.098312, -1.868225, -631.898193
1733469494.655920, -22.588544, 5.893178, -9.012673, -4.755052, -1.131205, -1.024958, -59.608429, -1.646484, -629.854187
1733469494.665910, -24.020277, 7.001992, -10.095451, -4.946431, -0.730203, -1.254145, -60.050842, -1.422318, -628.023926
1733469494.675922, -25.067142, 7.862858, -11.487080, -5.132949, -0.445917, -1.600503, -61.040634, -1.558594, -624.900513
1733469494.685912, -25.916634, 8.665963, -13.659369, -5.192294, -0.297335, -2.085580, -61.782318, -1.513992, -623.813904
1733469494.695912, -25.946861, 9.747244, -16.338930, -5.003799, -0.310051, -2.623231, -62.845215, -2.086243, -621.828186
1733469494.705921, -25.490766, 10.830919, -19.066973, -4.564833, -0.418497, -3.152089, -64.365707, -2.949615, -620.269348
1733469494.715919, -24.872314, 11.891850, -21.594951, -3.960263, -0.479518, -3.644364, -65.641159, -4.038071, -618.405212
1733469494.725911, -23.632267, 12.817658, -23.599047, -3.282697, -0.384573, -4.028773, -66.914871, -5.327087, -617.693481
1733469494.735921, -22.078430, 13.459304, -25.006090, -2.581172, -0.116200, -4.301858, -68.628403, -6.929047, -617.033691
1733469494.745914, -20.399047, 13.778631, -25.623345, -1.926653, 0.266210, -4.498537, -70.399857, -8.675797, -616.948059
1733469494.755919, -18.562545, 14.057854, -25.274988, -1.341002, 0.655959, -4.628235, -71.805405, -10.714706, -617.154297
1733469494.765928, -16.788292, 14.204798, -24.677037, -0.771577, 1.028807, -4.710859, -73.491318, -12.644043, -616.791504
1733469494.775923, -15.116540, 14.192079, -23.653216, -0.206736, 1.306090, -4.783473, -74.949234, -14.747559, -618.419006
1733469494.785917, -13.456910, 14.278420, -22.082470, 0.292944, 1.463278, -4.844362, -76.430206, -16.920181, -618.899353
1733469494.795923, -11.783512, 14.516494, -20.411168, 0.682807, 1.542142, -4.873415, -77.701080, -19.094666, -619.865051
1733469494.805916, -10.208577, 14.443919, -18.967763, 1.016220, 1.556642, -4.864707, -78.850754, -21.474319, -621.156738
1733469494.815906, -8.803480, 14.222905, -17.775601, 1.335706, 1.526762, -4.822207, -80.005280, -24.143463, -622.767639
1733469494.825908, -7.805546, 14.090475, -16.922068, 1.635058, 1.501837, -4.792517, -80.805588, -26.564621, -622.577698
1733469494.835902, -6.929568, 14.060697, -16.331897, 1.940829, 1.528446, -4.772882, -81.551117, -28.931168, -624.512756
1733469494.845911, -5.932084, 14.051420, -15.680524, 2.256811, 1.571342, -4.733393, -81.867096, -31.500488, -625.901489
1733469494.855913, -4.779425, 13.875895, -14.906898, 2.587311, 1.641891, -4.648862, -82.220505, -34.225540, -626.603699
1733469494.865907, -3.455282, 13.464242, -14.031668, 2.918710, 1.737779, -4.500904, -82.351105, -36.732391, -627.649414
1733469494.875902, -2.167950, 12.927342, -12.941109, 3.220783, 1.917017, -4.298769, -82.215485, -39.332321, -628.688599
1733469494.885898, -1.035492, 12.495638, -11.301081, 3.407100, 2.102137, -4.047577, -82.124786, -41.758057, -629.920654
1733469494.895947, 0.112378, 12.131869, -9.505729, 3.485528, 2.244696, -3.747068, -81.674057, -44.158356, -630.671509
1733469494.905903, 1.135151, 11.875839, -8.051401, 3.483139, 2.363307, -3.405717, -81.033920, -46.539093, -631.988037
1733469494.915916, 2.125901, 11.643900, -6.881235, 3.451914, 2.459545, -2.986463, -80.668427, -48.243652, -632.847534
1733469494.925903, 3.177555, 11.434408, -6.223278, 3.441607, 2.596488, -2.493336, -80.302063, -49.959351, -633.319092
1733469494.935904, 4.073136, 11.068095, -5.755810, 3.465187, 2.747301, -1.964543, -79.801910, -51.619995, -634.451172
1733469494.945899, 4.755483, 10.491541, -5.320664, 3.523360, 2.928655, -1.440131, -79.207321, -52.781067, -635.157532
1733469494.955916, 5.180603, 9.829694, -4.534169, 3.581624, 3.104865, -0.933875, -78.437576, -54.046524, -636.561340
1733469494.965968, 5.305551, 9.102156, -3.294721, 3.602901, 3.263013, -0.475354, -77.831345, -54.913177, -636.598022
1733469494.975902, 5.151873, 8.368782, -1.826926, 3.524036, 3.453441, -0.066841, -77.336044, -55.450867, -638.132202
1733469494.985900, 4.827459, 7.481282, -0.013617, 3.291789, 3.537556, 0.276745, -76.408340, -56.220200, -639.129272
1733469494.995896, 4.509180, 6.535273, 1.333570, 2.971863, 3.511474, 0.557806, -75.778946, -56.546432, -640.136230
1733469495.005951, 4.123563, 5.812822, 1.858649, 2.688260, 3.415651, 0.803405, -74.984695, -56.936188, -641.319214
1733469495.015862, 3.681684, 5.013758, 2.026392, 2.525738, 3.254190, 1.001585, -74.382523, -57.066315, -641.931030
1733469495.025896, 3.479224, 4.463390, 2.137573, 2.493594, 3.009600, 1.189087, -74.078461, -57.188873, -642.615723
1733469495.035899, 3.581127, 4.144513, 2.352752, 2.574455, 2.663423, 1.392566, -73.616653, -57.300629, -642.872192
1733469495.045898, 3.737050, 3.955969, 2.750040, 2.723494, 2.245449, 1.609501, -73.343979, -57.287689, -642.841248
1733469495.055955, 3.753510, 3.857358, 2.926912, 2.856016, 1.926391, 1.843636, -72.858368, -57.290375, -642.931519
1733469495.065901, 3.774459, 3.932626, 2.896236, 2.944865, 1.801301, 2.149718, -72.821548, -57.031128, -643.082764
1733469495.075906, 3.692757, 3.905841, 3.147178, 2.995348, 1.864839, 2.535821, -72.507309, -56.520813, -643.409119
1733469495.085900, 3.307290, 3.958812, 3.951929, 2.991193, 2.071856, 3.009130, -72.319397, -56.028992, -643.518616
1733469495.095897, 2.418144, 3.841646, 5.147534, 2.821443, 2.450444, 3.489134, -72.155579, -55.265366, -644.313110
1733469495.105895, 1.281796, 3.416376, 6.859238, 2.426682, 2.793072, 3.910812, -71.667450, -54.244461, -645.130127
1733469495.115906, 0.102053, 3.115156, 9.103503, 1.833362, 2.890287, 4.233969, -71.462631, -52.780441, -645.854614
1733469495.125936, -0.761805, 2.770690, 10.973374, 1.113610, 2.689883, 4.456370, -71.047607, -51.210190, -646.712158
1733469495.135893, -1.173308, 2.660257, 11.935843, 0.369299, 2.240094, 4.681759, -70.925232, -49.073486, -647.134521
1733469495.145892, -1.763778, 2.520945, 11.498453, -0.225781, 1.732968, 4.944671, -70.332458, -46.789017, -647.822998
1733469495.155890, -3.106776, 2.379537, 10.292823, -0.646554, 1.377227, 5.205065, -69.993958, -44.511490, -648.261230
1733469495.165908, -5.239860, 2.005443, 9.191191, -0.994648, 1.272136, 5.408154, -69.609863, -41.765167, -649.100281
1733469495.175893, -7.783400, 1.364845, 8.690952, -1.372357, 1.348624, 5.470814, -69.072037, -39.219910, -649.666992
1733469495.185902, -10.231920, 0.981772, 8.821885, -1.813969, 1.462494, 5.374062, -68.521011, -36.417511, -650.304626
1733469495.195897, -12.479327, 0.354791, 9.689484, -2.348953, 1.374919, 5.078094, -67.549637, -33.684570, -650.749146
1733469495.205891, -13.859435, -0.234033, 10.402058, -2.866850, 1.013599, 4.714118, -66.843414, -30.821793, -650.560669
1733469495.215892, -15.243882, -0.258723, 10.560973, -3.272482, 0.436751, 4.330124, -65.918839, -28.097046, -649.873047
1733469495.225907, -16.631322, -0.025438, 10.308235, -3.563313, -0.238071, 3.983770, -65.070847, -25.311951, -649.661804
1733469495.235895, -17.638533, 0.117166, 9.819220, -3.753641, -0.895291, 3.791414, -64.324142, -22.716431, -648.110596
1733469495.245891, -19.621979, 0.240917, 9.188796, -3.949584, -1.338375, 3.651943, -63.632462, -19.910583, -646.866699
1733469495.255894, -21.865196, 0.273238, 8.287679, -4.274964, -1.384244, 3.512550, -63.040329, -17.201248, -644.503418
1733469495.265902, -23.419781, 0.846949, 7.522731, -4.824630, -1.100968, 3.406811, -62.077728, -14.171448, -643.161316
1733469495.275907, -25.259276, 1.618031, 6.970269, -5.589549, -0.653316, 3.266673, -61.313904, -11.416702, -641.622742
1733469495.285894, -27.631631, 2.397045, 5.819257, -6.419034, -0.136741, 2.988544, -61.313904, -11.416702, -641.622742
1733469495.295891, -29.626300, 3.390190, 4.095731, -7.132459, 0.272602, 2.589963, -60.272156, -8.725372, -639.969849
1733469495.305908, -31.414769, 4.751892, 2.290353, -7.715538, 0.412439, 2.056801, -59.578094, -6.195343, -637.434082
1733469495.315919, -32.945262, 5.675605, -0.307206, -8.159797, 0.304307, 1.370169, -58.868744, -4.012512, -634.875732
1733469495.325905, -34.095527, 6.387880, -4.130896, -8.345927, 0.121436, 0.586402, -58.611588, -2.271500, -631.671753
1733469495.335899, -34.898332, 8.350227, -7.980772, -8.217046, -0.172402, -0.165284, -58.582535, -1.081940, -628.324829
1733469495.345903, -35.312380, 10.416872, -11.865963, -7.869440, -0.486646, -0.859342, -58.815231, -0.464661, -625.394043
1733469495.355895, -35.428498, 11.944522, -15.920244, -7.326495, -0.685392, -1.483254, -59.219650, -0.214264, -622.292664
1733469495.365898, -35.101241, 13.276596, -19.633800, -6.625287, -0.695712, -1.995484, -60.373260, -0.365204, -619.306946
1733469495.375899, -34.703953, 13.907169, -22.274006, -5.878200, -0.548431, -2.469023, -61.379776, -1.158661, -617.135132
1733469495.385895, -34.298884, 13.893253, -23.791631, -5.238146, -0.309136, -2.963076, -62.736023, -2.075699, -615.429810
1733469495.395689, -33.965940, 14.239365, -25.276634, -4.689446, 0.085497, -3.513714, -63.904266, -2.960739, -613.789490
1733469495.405896, -33.136649, 15.189713, -26.849176, -4.163921, 0.600710, -4.082360, -65.650879, -4.801193, -612.662170
1733469495.415896, -31.592239, 16.549171, -28.097154, -3.585217, 1.118021, -4.661565, -67.453827, -6.509277, -611.939392
1733469495.425888, -29.264327, 18.391509, -28.713810, -2.901262, 1.471919, -5.198359, -69.344727, -8.704910, -611.926086
1733469495.435894, -26.102484, 20.227712, -29.107058, -2.066916, 1.636604, -5.604102, -71.459717, -11.055573, -612.182922
1733469495.445892, -22.996157, 21.606623, -29.350069, -1.117532, 1.720245, -5.892827, -73.464218, -13.729126, -613.036743
1733469495.455899, -19.813665, 22.378154, -28.960413, -0.129637, 1.768367, -6.056836, -75.223846, -16.473923, -613.478943
1733469495.465899, -16.740557, 23.127389, -27.762265, 0.785806, 1.817379, -6.101234, -77.036026, -19.150467, -614.419922
1733469495.475891, -13.772346, 23.537696, -26.138547, 1.568926, 1.913775, -6.020206, -78.536179, -22.007202, -616.093384
1733469495.485889, -11.048193, 24.047062, -24.291121, 2.223980, 2.100387, -5.821254, -79.642624, -24.819229, -617.555420
1733469495.495892, -8.577826, 24.066515, -22.057780, 2.741623, 2.337459, -5.515287, -80.496704, -27.784256, -619.192139
1733469495.505886, -6.541707, 23.776667, -19.760244, 3.108048, 2.639063, -5.135275, -81.577988, -30.393433, -620.772583
1733469495.515954, -4.748450, 22.868367, -17.917158, 3.365218, 3.109509, -4.692537, -81.940140, -33.243240, -623.157043
1733469495.525896, -3.223194, 21.700745, -15.898546, 3.571949, 3.573428, -4.256931, -82.359955, -35.733765, -624.908752
1733469495.535900, -2.114230, 20.249858, -13.398551, 3.794485, 3.794423, -3.895364, -82.630905, -38.285538, -627.682617
1733469495.545894, -1.114800, 18.823064, -11.102661, 4.076652, 3.772163, -3.613768, -82.510452, -40.752975, -629.235474
1733469495.555889, -0.266804, 17.513136, -8.888025, 4.374834, 3.527248, -3.399756, -82.181503, -43.375626, -630.853149
1733469495.565887, 0.508618, 16.151883, -7.053019, 4.649420, 3.211184, -3.250005, -81.667221, -45.706696, -632.023193
1733469495.575886, 1.457021, 15.073145, -5.621137, 4.847152, 2.996996, -3.089902, -81.137924, -48.042404, -632.883057
1733469495.585946, 2.716222, 14.368652, -4.199579, 4.946729, 2.909051, -2.862734, -80.427689, -50.459961, -634.269287
1733469495.595888, 3.995923, 13.636026, -2.706495, 4.939707, 2.936630, -2.570769, -79.408997, -52.502945, -635.068665
1733469495.605893, 5.180603, 12.965500, -1.091457, 4.822615, 3.025084, -2.198751, -78.826706, -54.470642, -635.480347
1733469495.615936, 6.114492, 12.332682, 0.480935, 4.598048, 3.154974, -1.770298, -77.882278, -56.290726, -636.505798
1733469495.625899, 6.712743, 11.617415, 1.714548, 4.297010, 3.351900, -1.315329, -76.817108, -57.740692, -637.311890
1733469495.635892, 7.132626, 10.979061, 2.759916, 3.938669, 3.561700, -0.825561, -76.289825, -58.773697, -637.855591
1733469495.645888, 7.416339, 10.206033, 3.873818, 3.563299, 3.679251, -0.325145, -75.519699, -59.730087, -638.792358
1733469495.655910, 7.682843, 9.253589, 4.859032, 3.204313, 3.674615, 0.146832, -74.966888, -60.550919, -638.889648
1733469495.665909, 7.927950, 8.149862, 5.373037, 2.903589, 3.615761, 0.570690, -74.452850, -60.860138, -640.196350
1733469495.675924, 8.291719, 7.268347, 5.741296, 2.681203, 3.475994, 0.992989, -73.585388, -60.997147, -641.122253
1733469495.685885, 8.670601, 6.934955, 6.026355, 2.513026, 3.322803, 1.460477, -72.914688, -60.810562, -642.187012
1733469495.695875, 8.915558, 6.908319, 6.125565, 2.229213, 3.185304, 2.614276, -72.507446, -60.745529, -642.204651
1733469495.705887, 8.356811, 6.634034, 7.365163, 2.011380, 3.143187, 3.238165, -72.160446, -59.931686, -642.870728
1733469495.715871, 7.278523, 6.503400, 7.649774, 1.728865, 3.217185, 3.831353, -71.906769, -59.185532, -643.595398
1733469495.725883, 6.030246, 6.167613, 8.206425, 1.370514, 3.302296, 4.345404, -71.482452, -58.129456, -644.304565
1733469495.735871, 6.030246, 6.167613, 8.206425, 1.370514, 3.302296, 4.345404, -71.222504, -56.916412, -645.109741
1733469495.745901, 3.414281, 5.390695, 10.019435, 0.393076, 3.111444, 5.055155, -70.937592, -54.946533, -646.060303
1733469495.755878, 2.196081, 5.234473, 10.355670, -0.070562, 2.807261, 5.348228, -70.517075, -53.226562, -647.182373
1733469495.765874, 0.970849, 5.139004, 9.998336, -0.426885, 2.511255, 5.644938, -69.748291, -50.949417, -648.777893
1733469495.775894, -0.576554, 5.245397, 9.526229, -0.712511, 2.245820, 5.937358, -69.319260, -48.676086, -649.478088
1733469495.785884, -2.256834, 5.229086, 9.506028, -0.953071, 1.975702, 6.204978, -68.703964, -45.905975, -650.117737
1733469495.795878, -4.233846, 5.224597, 10.227581, -1.188523, 1.663800, 6.420083, -68.306824, -43.094543, -650.553833
1733469495.805875, -6.716035, 5.244349, 11.407922, -1.526803, 1.329299, 6.552516, -67.390182, -40.198685, -651.489258
1733469495.815876, -9.727641, 5.095909, 12.809278, -2.062020, 0.995888, 6.531037, -66.629135, -37.080307, -651.849854
1733469495.825508, -12.857611, 4.837484, 13.813646, -2.790645, 0.724585, 6.384868, -65.620148, -33.941345, -651.834473
1733469495.835871, -15.779435, 4.429123, 14.097359, -3.617210, 0.471449, 6.182753, -64.157562, -30.458786, -651.917664
1733469495.845871, -18.807053, 4.295647, 13.331813, -4.395122, 0.309114, 5.922808, -62.982071, -27.003433, -651.453613
1733469495.855889, -21.954979, 4.414908, 11.914894, -5.048048, 0.267377, 5.572138, -61.636261, -23.210632, -650.056702
1733469495.865880, -24.707114, 4.734983, 10.939706, -5.597538, 0.209177, 5.205569, -60.134293, -19.576492, -649.826965
1733469495.875877, -27.808503, 5.060594, 10.477176, -6.156117, 0.037058, 4.692720, -58.739517, -15.761887, -648.315491
1733469495.885874, -30.678552, 5.430947, 9.565584, -6.707388, -0.225616, 4.056488, -57.140030, -12.484848, -646.692139
1733469495.895878, -33.283294, 5.761197, 7.929297, -7.192570, -0.509393, 3.316331, -56.204819, -9.150940, -644.491211
1733469495.905871, -35.849728, 6.832303, 5.893477, -7.605657, -0.765147, 2.465989, -55.237366, -6.142166, -641.711670
1733469495.915871, -37.215770, 8.537424, 3.377171, -7.916788, -0.914171, 1.638070, -54.786163, -3.489273, -638.382751
1733469495.925875, -37.049822, 10.498574, 0.849044, -8.131358, -0.966040, 0.982088, -54.276169, -1.310257, -635.345337
1733469495.935873, -36.299389, 12.586617, -1.345242, -8.373405, -0.953807, 0.480197, -53.959564, 0.374191, -631.773010
1733469495.945869, -36.473567, 15.254057, -3.828179, -8.716224, -0.924880, -0.064108, -54.106216, 2.086777, -627.825745
1733469495.955060, -36.473567, 15.254057, -3.828179, -8.716224, -0.924880, -0.064108, -54.365829, 2.926819, -623.360291
1733469495.965877, -37.160105, 19.355774, -11.945720, -8.906300, -0.401486, -1.373622, -55.044708, 3.407333, -620.424255
1733469495.975878, -36.789602, 21.350593, -16.289998, -8.557722, -0.159021, -2.006674, -55.909973, 3.302521, -616.734070
1733469495.985878, -36.244771, 21.811177, -21.327997, -7.822316, 0.196966, -2.630283, -57.013718, 2.895782, -613.258484
1733469495.995880, -35.130420, 21.078551, -25.433006, -6.783092, 0.544876, -3.234366, -58.308792, 1.783295, -610.804626
1733469496.005876, -33.864187, 20.516513, -27.757327, -5.614776, 0.820235, -3.837585, -60.340652, 0.310577, -608.450439
1733469496.015877, -32.309302, 20.714184, -28.616396, -4.480319, 1.050270, -4.382056, -62.193481, -1.157944, -607.134766
1733469496.025893, -30.256125, 21.228189, -28.306497, -3.537683, 1.248900, -4.871697, -64.038025, -3.163010, -606.300476
1733469496.035875, -27.904271, 22.189461, -27.480497, -2.799127, 1.444748, -5.255272, -66.150192, -5.240189, -606.130249
1733469496.045874, -25.360581, 23.085641, -26.856957, -2.157985, 1.676322, -5.549890, -68.422302, -7.370651, -605.974548
1733469496.055879, -22.791303, 23.703943, -26.333226, -1.540917, 1.882384, -5.780707, -70.567444, -9.901886, -606.092896
1733469496.065867, -20.091243, 24.002919, -25.945814, -0.867255, 2.059112, -5.954538, -72.997269, -12.430893, -607.234863
1733469496.075873, -17.413627, 24.072052, -25.536405, -0.098749, 2.194953, -6.087198, -75.130768, -15.117432, -608.253479
1733469496.085876, -14.735413, 24.221390, -24.517972, 0.690889, 2.294094, -6.152323, -77.109207, -17.833923, -609.711853
1733469496.095874, -12.112865, 24.420408, -22.821231, 1.408187, 2.371815, -6.135843, -78.717194, -20.725433, -611.272644
1733469496.105872, -9.718663, 24.568250, -20.980988, 2.028855, 2.485855, -6.015800, -80.290298, -23.473984, -612.627319
1733469496.115859, -7.334487, 24.466496, -19.362358, 2.548894, 2.705277, -5.799820, -81.710281, -26.511566, -614.615845
1733469496.125864, -4.933402, 24.176499, -17.861193, 2.988835, 3.055456, -5.461561, -82.367706, -29.404053, -616.527710
1733469496.135866, -2.476652, 23.735666, -16.197223, 3.378835, 3.464918, -4.990048, -83.100449, -32.076233, -618.456787
1733469496.145858, -0.225953, 22.805818, -13.911958, 3.749636, 3.704009, -4.449408, -83.649200, -34.751465, -620.829468
1733469496.155873, 1.460014, 21.515643, -11.477354, 4.123931, 3.742994, -3.904116, -83.972946, -37.293671, -622.400269
1733469496.165870, 2.707543, 20.130148, -9.169493, 4.445134, 3.631343, -3.386594, -83.816925, -39.542801, -625.185425
1733469496.175870, 3.584868, 18.727745, -6.867019, 4.706563, 3.367490, -2.923687, -83.757004, -41.831314, -627.022095
1733469496.185864, 4.153042, 17.202788, -4.961534, 4.883115, 3.086235, -2.539176, -83.595566, -43.692200, -628.311890
1733469496.195870, 4.583549, 15.628151, -3.475333, 4.903806, 2.971132, -2.216351, -83.410553, -45.343964, -629.258911
1733469496.205878, 5.196914, 14.434791, -2.285116, 4.795012, 3.034553, -1.905118, -82.756088, -47.405441, -630.439880
1733469496.215870, 6.035184, 13.682114, -1.152808, 4.634647, 3.172654, -1.563260, -82.040756, -48.916519, -631.534058
1733469496.225888, 6.896498, 13.058724, -0.312892, 4.444255, 3.405728, -1.155616, -81.512100, -50.219162, -632.722351
1733469496.235871, 7.540987, 12.399121, 0.624587, 4.224579, 3.668804, -0.697898, -80.854385, -51.535309, -633.602905
1733469496.245858, 7.952939, 11.930756, 2.104653, 4.029166, 3.768851, -0.183524, -79.965134, -52.309830, -634.929321
1733469496.255861, 8.109760, 11.319935, 3.739144, 3.856299, 3.656891, 0.343552, -79.270782, -53.175217, -636.007263
1733469496.265860, 8.060978, 10.574441, 5.421819, 3.653986, 3.329505, 0.844954, -78.774170, -53.495819, -637.612915
1733469496.275864, 7.781455, 9.866655, 6.565200, 3.380810, 2.893619, 1.312947, -78.214935, -53.694717, -638.130188
1733469496.284884, 7.075764, 9.122657, 6.084564, 3.134198, 2.694603, 1.738384, -77.897003, -53.484650, -638.876099
1733469496.295020, 6.405687, 8.355913, 4.963629, 2.996207, 2.751389, 2.165030, -77.453476, -53.325195, -639.269714
1733469496.305865, 5.992687, 7.922264, 4.696975, 2.930382, 2.880032, 2.623482, -76.725708, -53.013397, -640.590149
1733469496.315866, 5.578939, 7.677905, 5.009867, 2.890832, 3.007244, 3.111839, -76.226868, -52.203613, -641.066284
1733469496.325858, 5.113566, 7.653215, 6.054188, 2.845485, 3.041036, 3.642799, -75.863388, -51.107849, -641.819946
1733469496.335863, 4.447828, 7.764246, 7.735965, 2.727488, 2.933819, 4.206074, -75.227798, -50.129883, -642.821899
1733469496.345857, 3.281104, 7.863606, 9.333795, 2.469260, 2.821425, 4.747822, -74.740723, -48.656647, -643.595825
1733469496.355856, 1.700033, 7.807192, 10.906935, 2.074336, 2.704447, 5.256392, -74.041138, -46.977722, -644.074829
1733469496.365854, -0.054917, 7.624634, 12.712762, 1.507965, 2.492960, 5.701429, -73.761398, -45.157684, -645.633057
1733469496.375853, -2.002899, 6.951116, 13.910910, 0.780905, 2.233583, 6.007359, -73.295654, -42.661819, -646.127686
1733469496.385856, -3.831770, 6.231359, 14.095713, 0.029221, 1.993321, 6.207081, -72.003281, -39.955414, -647.059204
1733469496.395863, -5.674408, 5.602282, 13.526042, -0.651365, 1.796888, 6.320836, -71.280670, -37.206390, -647.624756
1733469496.405885, -7.420678, 5.001338, 12.867637, -1.180151, 1.550917, 6.362828, -70.254288, -34.294815, -647.789795
1733469496.415860, -9.282619, 4.400243, 12.666075, -1.589915, 1.256781, 6.358640, -68.779022, -31.469437, -648.646729
1733469496.425853, -11.528081, 3.501071, 13.016227, -2.002270, 0.921117, 6.308678, -67.753403, -28.074127, -648.450012
1733469496.435854, -14.363863, 2.646042, 13.371616, -2.484267, 0.688564, 6.175810, -65.998535, -24.995255, -648.154053
1733469496.445859, -17.381306, 2.601899, 13.521104, -3.064241, 0.615348, 5.991006, -64.456497, -21.870300, -648.415161
1733469496.455860, -20.569185, 2.349909, 13.948619, -3.767096, 0.562421, 5.718359, -62.600067, -18.531021, -646.634521
1733469496.465858, -24.328082, 2.054225, 14.003536, -4.521742, 0.538182, 5.301358, -60.965179, -15.217026, -646.419006
1733469496.475856, -27.927315, 2.094926, 13.483096, -5.293241, 0.486464, 4.697163, -59.579330, -11.884933, -644.743958
1733469496.485862, -30.577247, 1.905785, 12.667272, -6.080064, 0.302438, 3.941009, -58.313416, -9.167892, -643.652161
1733469496.495865, -32.678758, 2.381183, 11.141866, -6.801574, -0.034575, 3.081017, -57.044525, -6.546829, -640.633545
1733469496.505855, -34.459894, 4.141819, 8.826524, -7.364221, -0.505049, 2.189376, -56.213959, -3.945953, -638.008911
1733469496.515864, -35.293076, 6.319346, 5.531953, -7.724759, -0.923369, 1.413476, -55.413712, -1.705383, -634.625916
1733469496.525856, -35.643976, 8.956259, 1.885583, -7.952331, -1.154593, 0.804877, -55.206055, 0.323624, -630.493103
1733469496.535861, -35.756354, 11.994801, -1.723077, -8.109174, -1.141899, 0.389105, -54.762848, 1.686218, -626.847290
1733469496.545850, -35.763088, 14.957326, -5.438429, -8.243383, -0.796553, 0.114439, -54.848541, 2.550354, -623.468201
1733469496.555849, -35.642929, 17.058687, -8.922441, -8.405793, -0.331336, -0.177249, -55.082138, 3.120468, -619.258911
1733469496.565855, -35.959413, 18.353202, -13.086706, -8.403345, 0.192313, -0.615426, -55.913300, 3.252228, -616.863525
1733469496.575856, -36.483144, 18.935142, -17.848624, -8.043633, 0.709955, -1.285163, -56.849197, 2.896744, -613.840637
1733469496.585847, -36.056527, 18.751088, -21.720646, -7.257553, 0.968910, -2.104833, -58.436737, 1.904953, -611.911499
1733469496.595849, -34.758122, 18.703803, -24.526351, -6.115074, 0.985448, -2.963200, -59.988693, 0.748566, -609.900635
1733469496.605859, -32.523584, 18.634221, -26.013450, -4.787507, 0.822327, -3.704432, -61.510422, -0.648773, -608.900635
1733469496.615859, -30.091673, 18.638561, -26.058192, -3.519082, 0.612746, -4.279351, -63.331009, -2.287643, -608.014404
1733469496.625847, -28.044631, 18.975245, -24.743326, -2.567562, 0.457381, -4.736835, -65.479752, -3.952316, -607.154480
1733469496.635859, -26.068517, 19.307291, -23.108685, -1.963186, 0.418079, -5.095071, -67.255844, -5.984894, -606.838257
1733469496.645845, -24.075044, 19.899108, -22.037878, -1.611794, 0.545588, -5.331714, -69.248276, -8.174591, -606.938354
1733469496.655848, -22.206370, 20.157083, -21.775414, -1.392742, 0.862561, -5.503796, -71.422668, -10.540054, -606.664795
1733469496.665850, -20.211551, 20.350415, -21.953782, -1.121689, 1.280643, -5.614562, -73.492889, -12.831238, -607.348999
1733469496.675862, -17.939154, 20.639215, -22.174198, -0.717919, 1.694855, -5.668402, -75.492493, -15.414124, -608.455383
1733469496.685847, -15.589246, 20.768353, -21.997626, -0.193420, 2.018722, -5.682479, -76.929810, -18.125290, -609.776611
1733469496.695851, -13.409774, 20.770897, -21.639842, 0.413183, 2.310071, -5.658758, -78.739624, -20.645096, -610.529053
1733469496.705852, -11.467328, 20.603003, -20.985776, 1.034835, 2.628479, -5.617186, -80.406738, -23.334213, -612.314575
1733469496.715844, -9.521141, 20.700716, -19.746777, 1.618562, 2.905099, -5.529448, -81.566757, -25.951492, -614.142395
1733469496.725850, -7.369053, 20.787955, -18.076223, 2.185142, 3.052360, -5.386817, -82.435211, -28.759949, -615.906433
1733469496.735848, -5.103540, 20.620660, -16.360178, 2.736193, 3.077165, -5.157235, -83.291061, -31.769501, -617.849915
1733469496.745382, -2.931700, 19.978266, -14.625130, 3.235294, 3.004884, -4.889002, -83.291061, -31.769501, -617.849915
1733469496.755547, -1.233313, 19.040038, -12.713660, 3.644638, 2.822393, -4.619214, -83.811539, -34.270081, -619.692871
1733469496.765844, 0.369306, 18.193838, -11.157578, 3.982234, 2.649596, -4.307611, -84.103851, -39.238800, -622.810730
1733469496.775859, 1.953369, 17.429938, -9.882367, 4.243059, 2.542113, -3.924100, -84.150986, -41.664688, -624.040894
1733469496.785856, 3.211971, 16.416442, -8.548946, 4.416048, 2.504843, -3.504320, -84.150986, -41.664688, -624.040894
1733469496.795854, 4.303129, 15.458013, -7.471256, 4.482501, 2.643920, -3.023105, -83.781281, -45.588852, -626.432190
1733469496.805847, 5.218462, 14.460080, -6.414066, 4.453246, 2.917069, -2.504103, -83.781281, -45.588852, -626.432190
1733469496.815851, 5.865196, 13.291261, -5.202151, 4.384885, 3.243478, -1.996003, -83.209000, -47.487686, -627.570190
1733469496.825847, 6.380547, 12.289587, -3.733757, 4.301526, 3.481648, -1.496025, -82.731369, -49.067764, -629.058350
1733469496.835907, 6.702717, 11.489026, -2.094178, 4.194366, 3.577282, -1.033414, -82.389832, -50.441605, -630.876953
1733469496.845852, 6.944083, 10.788123, -0.269497, 4.076818, 3.501341, -0.602821, -81.706390, -51.432098, -631.702881
1733469496.855846, 7.138462, 10.105476, 1.549348, 3.871337, 3.271676, -0.193330, -80.997650, -52.520889, -632.642090
1733469496.865846, 6.906224, 9.519495, 2.705298, 3.620167, 3.022702, 0.187133, -80.466248, -53.040085, -633.479858
1733469496.875854, 6.386533, 8.981399, 3.746477, 3.351246, 2.699971, 0.522159, -80.046463, -53.574249, -634.592834
1733469496.885843, 6.015432, 8.183531, 4.236241, 3.015727, 2.417866, 0.814868, -79.471512, -53.836853, -634.922852
1733469496.895842, 5.483320, 7.447164, 3.381211, 2.713364, 2.412165, 1.085511, -79.212326, -53.889008, -635.735474
1733469496.905850, 5.138705, 6.820632, 2.341679, 2.557911, 2.578839, 1.342991, -78.921341, -53.783478, -636.407471
1733469496.915869, 5.418228, 6.575076, 2.119467, 2.552115, 2.687882, 1.670171, -78.664642, -53.488266, -636.464722
1733469496.925859, 5.784690, 6.697779, 2.646640, 2.661715, 2.683536, 2.100086, -78.035736, -53.411041, -637.707214
1733469496.935844, 5.793519, 6.889166, 3.846435, 2.757582, 2.612205, 2.591258, -77.584503, -52.880936, -638.606445
1733469496.945841, 5.486912, 7.103746, 5.813122, 2.713955, 2.466478, 3.124269, -77.111771, -52.242798, -638.912354
1733469496.955841, 5.001188, 7.490110, 7.664288, 2.545842, 2.285071, 3.724812, -76.748428, -51.299286, -639.483032
1733469496.965829, 4.111443, 7.839963, 9.309404, 2.284608, 2.088731, 4.383991, -76.547287, -49.812378, -640.032959
1733469496.975840, 2.795380, 7.999926, 10.731261, 1.921451, 1.956575, 5.062205, -76.200562, -48.020340, -641.095032
1733469496.985844, 1.044470, 7.756016, 11.809250, 1.385980, 1.885698, 5.654194, -75.621628, -46.188339, -641.570312
1733469496.995831, -0.922067, 7.209689, 11.935395, 0.710276, 2.005076, 6.099714, -75.712631, -43.699600, -642.247986
1733469497.005833, -2.927959, 6.391321, 11.280431, 0.033984, 2.275342, 6.370147, -74.922913, -40.933243, -643.522400
1733469497.015836, -4.726304, 5.855469, 11.169849, -0.515761, 2.480067, 6.545031, -74.236801, -37.917267, -644.337891
1733469497.025831, -6.529886, 5.218611, 12.508058, -1.030938, 2.359543, 6.588739, -73.314377, -34.998505, -645.291748
1733469497.035831, -8.525602, 4.346823, 14.410101, -1.573562, 1.854780, 6.474061, -71.928345, -31.959732, -645.930359
1733469497.045835, -10.358513, 3.971382, 15.543756, -2.097857, 1.136857, 6.320014, -70.372192, -28.770950, -646.141296
1733469497.055831, -12.673856, 3.701885, 15.457265, -2.580750, 0.488365, 6.104892, -68.971954, -25.499161, -646.195801
1733469497.065830, -15.045612, 3.347692, 14.421773, -3.041368, 0.127849, 5.861460, -67.387054, -22.225098, -645.342224
1733469497.075829, -16.997934, 3.382708, 13.424588, -3.448200, 0.023008, 5.721726, -65.672943, -19.109772, -644.582642
1733469497.085829, -19.675400, 3.645022, 13.204022, -3.877601, 0.023425, 5.579966, -64.034470, -16.008835, -643.846558
1733469497.095829, -22.948872, 3.884443, 13.605350, -4.410709, 0.018154, 5.312871, -62.494400, -12.697388, -642.711914
1733469497.105839, -26.344448, 4.305672, 14.189236, -5.091263, -0.122996, 4.857557, -60.864807, -9.810104, -641.036499
1733469497.115834, -29.817238, 5.138555, 14.116662, -5.866405, -0.423723, 4.200572, -58.839447, -6.938477, -639.104797
1733469497.125837, -32.851140, 6.142923, 12.303054, -6.569704, -0.714307, 3.411757, -57.740021, -4.461349, -636.489014
1733469497.135835, -35.226488, 7.086388, 9.634567, -7.142555, -1.012768, 2.560434, -56.659134, -2.066910, -633.919861
1733469497.145829, -37.115662, 8.176498, 6.557120, -7.559698, -1.380626, 1.703832, -56.179718, -0.083847, -630.199097
1733469497.155829, -38.488887, 9.766547, 2.600103, -7.758380, -1.634921, 0.902511, -55.251846, 1.340851, -625.826050
1733469497.165839, -39.169588, 11.837532, -1.867777, -7.760046, -1.624040, 0.234703, -54.990295, 2.344666, -622.932678
1733469497.175882, -39.342420, 14.073866, -6.146065, -7.634706, -1.324780, -0.288149, -55.031464, 2.925735, -619.235596
1733469497.185837, -39.387460, 16.119861, -9.889549, -7.398904, -0.796605, -0.741106, -55.358002, 2.886063, -615.712036
1733469497.195841, -38.891861, 17.234661, -13.118878, -7.036833, -0.159129, -1.163970, -55.895599, 2.688156, -612.514404
1733469497.205835, -37.822999, 17.414824, -15.486744, -6.598814, 0.470512, -1.595858, -57.070160, 2.015121, -610.532715
1733469497.215869, -36.638169, 17.644219, -16.554408, -6.197483, 0.903539, -2.077969, -58.163116, 1.233307, -608.049133
1733469497.225825, -35.578884, 18.097321, -17.539921, -5.830577, 1.161317, -2.629504, -59.412643, -0.061661, -606.765564
1733469497.235825, -34.439693, 18.606389, -19.157953, -5.400846, 1.318642, -3.222983, -61.229980, -1.483734, -605.226685
1733469497.245835, -33.182288, 19.111715, -21.299267, -4.831399, 1.526970, -3.841280, -63.073669, -3.085114, -604.403198
1733469497.255829, -31.370925, 19.643377, -23.032519, -4.126662, 1.714896, -4.465107, -64.906403, -5.296738, -603.036743
1733469497.265843, -28.885444, 20.295049, -23.947703, -3.260362, 1.799890, -4.984850, -67.288757, -7.270950, -603.295410
1733469497.275835, -25.957037, 20.815489, -24.303840, -2.305191, 1.784236, -5.380405, -69.420181, -9.610214, -603.347961
1733469497.285834, -23.140408, 21.081544, -23.848493, -1.364308, 1.691660, -5.667333, -71.445679, -12.001877, -604.199219
1733469497.295843, -20.420894, 21.235821, -22.895451, -0.541586, 1.596584, -5.867367, -73.332443, -14.676743, -604.869507
1733469497.305844, -17.846678, 21.149480, -21.720347, 0.121835, 1.621450, -5.943061, -75.444916, -17.108978, -605.602783
1733469497.315832, -15.598523, 21.254376, -20.584747, 0.637083, 1.821167, -5.918413, -77.359116, -19.679489, -606.834106
1733469497.325835, -13.502549, 21.208138, -19.173066, 1.010827, 2.074865, -5.828671, -78.500015, -22.636749, -608.019287
1733469497.335834, -11.440842, 20.949564, -18.056620, 1.325504, 2.376695, -5.697686, -79.931824, -25.285370, -609.485718
1733469497.345825, -9.492112, 20.586094, -17.123779, 1.644074, 2.669253, -5.540688, -81.378967, -27.920273, -611.072693
1733469497.355884, -7.645284, 19.913922, -16.205902, 1.990167, 2.909828, -5.361120, -82.237946, -30.661850, -612.081909
1733469497.365823, -5.966650, 19.162143, -15.723620, 2.379462, 3.192595, -5.157165, -83.021500, -33.402313, -615.166260
1733469497.375817, -4.427178, 18.462587, -14.922161, 2.834915, 3.434647, -4.921119, -83.540070, -36.131378, -616.825562
1733469497.385821, -2.736423, 18.072182, -13.292458, 3.353990, 3.479851, -4.621874, -83.843628, -38.658890, -618.778442
1733469497.395819, -1.111658, 17.761535, -11.145458, 3.822740, 3.313277, -4.281177, -84.092636, -41.053665, -620.514282
1733469497.405823, 0.011522, 17.029807, -9.163956, 4.185224, 3.064729, -3.959685, -84.032379, -43.366196, -621.627441
1733469497.415817, 0.983718, 16.056115, -7.571663, 4.410118, 2.870117, -3.652578, -83.939880, -45.647919, -623.277100
1733469497.425831, 2.011578, 14.888642, -6.602909, 4.510462, 2.854820, -3.338983, -83.606934, -47.804306, -624.426270
1733469497.435814, 2.938134, 13.828161, -5.592556, 4.534684, 2.954490, -3.017201, -82.981812, -49.761551, -625.352356
1733469497.445879, 3.751115, 12.856564, -4.439299, 4.495121, 3.097510, -2.668756, -82.942062, -51.635132, -626.401733
1733469497.455814, 4.673631, 12.126931, -3.310133, 4.462934, 3.225417, -2.268097, -82.110870, -53.390762, -626.660034
1733469497.465819, 5.559187, 11.637765, -1.755698, 4.407762, 3.264742, -1.823167, -81.378204, -54.670837, -627.974060
1733469497.475817, 6.283582, 11.064803, 0.086341, 4.244405, 3.173854, -1.346617, -81.314972, -55.803741, -628.841187
1733469497.485855, 6.698228, 10.267534, 1.108964, 4.014753, 3.104531, -0.864666, -80.839935, -56.673203, -629.233459
1733469497.495830, 6.614730, 9.346065, 1.236605, 3.815207, 3.162795, -0.409011, -80.272354, -57.429550, -630.330444
1733469497.505817, 6.383540, 8.516923, 1.415572, 3.655575, 3.296663, 0.024902, -79.686737, -57.882874, -631.215027
1733469497.515823, 6.131550, 7.881862, 1.683872, 3.514897, 3.488881, 0.435877, -79.151886, -58.288483, -632.271484
1733469497.525872, 5.922357, 7.536049, 2.239476, 3.395479, 3.655400, 0.840663, -78.895477, -58.478348, -633.283936
1733469497.535825, 6.007351, 7.252336, 3.252972, 3.325888, 3.664001, 1.264339, -78.408844, -58.384979, -634.441833
1733469497.545836, 6.185869, 7.226000, 4.525041, 3.290765, 3.505300, 1.746420, -77.960236, -58.065399, -635.062866
1733469497.555819, 6.221034, 7.343316, 5.588665, 3.267390, 3.281857, 2.282801, -77.314621, -57.627609, -635.007385
1733469497.565853, 5.950489, 7.400477, 6.394464, 3.232786, 3.086879, 2.877141, -76.974396, -56.924896, -636.363403
1733469497.575820, 5.418827, 7.541735, 7.099257, 3.146445, 3.007107, 3.526546, -76.908966, -55.803070, -637.335571
1733469497.585820, 4.645948, 7.583783, 7.915231, 2.981070, 3.021234, 4.227197, -76.569778, -54.506454, -638.144653
1733469497.595812, 3.733458, 7.770980, 8.832659, 2.760123, 3.071953, 4.984381, -76.330551, -52.662292, -638.883972
1733469497.605862, 2.220323, 7.637503, 10.023176, 2.478868, 3.148596, 5.698925, -75.991714, -50.695480, -639.872559
1733469497.615819, 0.297779, 7.428609, 11.558457, 1.985583, 3.228209, 6.297778, -75.503738, -48.141800, -641.396606
1733469497.625809, -1.551592, 7.328202, 13.205967, 1.245942, 3.234507, 6.766960, -75.069229, -45.357162, -642.879333
1733469497.635805, -3.491345, 7.102848, 14.376882, 0.339321, 3.169323, 7.086939, -74.540298, -42.436646, -643.848572
1733469497.645822, -5.475390, 6.628796, 14.852580, -0.660353, 3.103546, 7.238859, -73.292023, -38.592926, -645.315247
1733469497.655810, -7.483377, 6.222231, 14.875474, -1.652575, 2.932249, 7.244632, -72.072983, -35.191437, -645.698242
1733469497.665839, -8.908824, 6.190807, 13.887716, -2.488903, 2.719178, 7.167006, -70.780090, -31.438110, -647.241455
1733469497.675836, -10.059837, 5.976825, 12.505963, -3.108595, 2.417583, 7.029941, -69.209961, -27.711380, -647.667297
1733469497.685823, -11.321431, 5.682787, 10.958111, -3.505950, 2.099511, 6.822499, -67.055054, -24.159103, -647.374512
1733469497.695824, -12.964752, 5.235221, 9.489418, -3.689395, 1.799001, 6.552493, -65.371582, -20.804337, -648.057373
1733469497.705820, -15.097387, 4.951359, 8.815750, -3.726054, 1.512739, 6.234112, -63.047653, -17.577957, -647.271362
1733469497.715879, -17.624167, 5.209783, 9.392004, -3.811961, 1.170017, 5.872118, -60.888458, -14.477417, -646.518555
1733469497.725807, -20.450522, 5.649568, 10.423007, -4.071211, 0.823854, 5.445344, -58.654617, -11.616623, -645.375610
1733469497.735809, -23.534104, 6.306477, 11.313800, -4.543942, 0.512000, 4.940855, -56.955505, -8.492218, -643.367920
1733469497.745812, -26.971879, 7.546973, 11.698668, -5.249992, 0.323170, 4.339945, -55.262466, -5.666031, -641.777710
1733469497.755811, -30.794222, 8.691999, 11.292402, -6.204686, 0.251451, 3.549998, -53.767975, -3.354202, -638.664917
1733469497.765813, -33.950378, 9.328707, 9.683798, -7.271097, 0.212348, 2.566533, -52.647675, -0.843613, -636.096558
1733469497.775818, -35.726277, 11.729643, 6.330868, -8.138632, 0.135803, 1.590759, -52.153458, 1.235321, -632.632751
1733469497.785825, -36.746656, 13.959842, 1.865981, -8.680440, 0.064114, 0.655650, -51.918701, 2.762268, -628.850159
1733469497.795818, -37.311688, 16.189292, -2.934094, -8.843629, -0.024371, -0.220145, -52.232254, 3.751892, -625.058533
1733469497.805814, -37.610364, 17.819295, -7.539640, -8.673316, -0.175979, -1.070636, -52.682236, 4.302628, -621.209534
1733469497.815823, -36.892403, 18.726099, -12.332383, -8.153097, -0.203240, -1.779844, -53.436981, 4.189392, -617.816162
1733469497.825817, -35.725978, 19.885940, -15.953613, -7.472621, -0.038060, -2.319785, -54.693726, 3.922440, -615.187683
1733469497.835812, -34.420689, 20.995353, -18.051083, -6.855674, 0.235922, -2.736153, -56.343674, 3.016739, -612.479492
1733469497.845808, -32.946310, 21.183148, -19.391387, -6.332151, 0.492116, -3.132519, -57.985306, 2.064529, -610.491394
1733469497.855815, -31.579819, 21.641638, -20.850953, -5.798254, 0.729278, -3.509315, -59.791565, 0.618729, -608.018982
1733469497.865810, -30.005482, 21.784841, -22.262484, -5.210296, 0.929696, -3.861874, -61.656708, -0.775269, -607.025757
1733469497.875815, -28.619688, 21.523723, -23.405117, -4.558544, 1.078741, -4.224766, -63.788651, -2.560074, -606.231873
1733469497.885813, -27.289709, 21.250186, -24.568100, -3.852399, 1.348255, -4.605474, -65.889725, -4.582657, -605.927734
1733469497.895814, -25.486576, 20.779575, -24.950724, -3.138374, 1.634054, -4.975332, -68.255951, -6.613480, -606.038452
1733469497.905808, -23.021446, 20.204817, -24.857051, -2.365595, 1.905621, -5.280446, -70.398544, -9.151581, -606.175415
1733469497.915813, -20.350864, 19.571401, -24.221689, -1.568257, 2.128661, -5.514469, -72.776581, -11.262894, -607.083252
1733469497.925816, -17.820043, 19.194764, -22.938696, -0.837625, 2.324470, -5.687548, -75.066589, -13.837494, -608.431763
1733469497.935808, -15.441104, 18.824411, -21.253178, -0.226967, 2.442613, -5.858988, -76.871826, -16.714783, -609.362244
1733469497.945817, -13.171700, 18.595615, -19.486108, 0.313786, 2.442424, -6.012449, -78.686111, -19.499939, -611.233582
1733469497.955806, -11.040711, 18.602049, -17.883639, 0.791778, 2.320307, -6.122334, -80.328964, -22.593536, -611.691284
1733469497.965815, -9.128642, 18.582147, -16.618303, 1.225370, 2.154532, -6.193933, -81.357361, -25.599976, -613.677673
1733469497.975810, -7.206697, 18.736573, -15.730354, 1.649459, 2.008778, -6.183092, -82.634567, -28.529037, -614.861694
1733469497.985865, -5.157559, 18.827703, -14.993538, 2.089833, 1.882613, -6.049984, -83.081055, -31.760284, -615.797668
1733469497.995797, -3.161543, 18.712781, -14.365809, 2.547803, 1.833394, -5.801292, -83.598022, -34.562103, -617.076904
1733469498.005793, -1.329680, 18.117971, -13.443293, 2.970954, 1.870194, -5.452981, -83.900528, -37.394531, -618.651733
1733469498.015800, 0.421529, 17.412430, -12.333730, 3.299976, 2.035206, -4.984004, -84.098831, -39.860840, -619.950317
1733469498.025800, 1.851017, 16.450260, -11.113136, 3.516198, 2.324219, -4.459097, -84.331787, -42.172272, -620.966614
1733469498.035822, 3.041085, 15.224878, -9.538350, 3.636277, 2.627270, -3.923243, -84.459335, -44.237442, -622.516052
1733469498.045811, 4.025850, 13.884724, -8.094796, 3.722064, 2.920945, -3.396632, -84.151520, -46.141937, -624.399414
1733469498.055805, 4.740220, 12.653356, -6.835296, 3.761179, 3.238686, -2.884151, -83.732132, -47.969620, -624.955444
1733469498.065798, 5.267094, 11.391163, -5.242853, 3.714692, 3.477194, -2.411822, -83.433838, -49.310181, -627.197266
1733469498.075796, 5.434838, 10.320206, -3.760243, 3.630714, 3.645099, -2.004344, -82.937241, -50.613113, -628.578125
1733469498.085806, 5.615001, 9.566033, -2.373252, 3.536247, 3.671894, -1.627743, -82.243973, -51.961411, -629.819458
1733469498.095796, 5.987449, 9.045444, -1.085621, 3.465956, 3.510784, -1.255752, -81.587479, -52.784592, -630.721680
1733469498.105814, 6.325182, 8.646809, -0.271742, 3.469143, 3.211980, -0.886567, -81.150894, -53.675125, -631.881470
1733469498.115832, 6.662016, 8.075792, 0.344615, 3.520134, 2.891790, -0.524744, -80.917404, -54.321396, -632.104126
1733469498.125597, 6.751499, 7.701249, 1.190666, 3.532317, 2.578053, -0.192507, -80.626801, -54.824280, -632.433838
1733469498.135802, 6.725761, 7.406912, 1.905934, 3.477933, 2.303500, 0.125316, -79.892380, -55.118851, -632.763245
1733469498.145810, 6.666954, 7.159411, 2.283769, 3.392810, 2.114472, 0.448298, -79.578384, -55.464844, -633.368591
1733469498.155807, 6.419752, 6.916400, 2.405574, 3.336169, 1.988839, 0.775060, -79.357422, -55.602570, -632.955261
1733469498.165793, 5.889138, 6.641964, 2.206406, 3.410823, 2.038639, 1.492718, -79.418320, -55.356812, -633.989197
1733469498.175794, 5.841553, 6.968025, 3.083432, 3.461556, 2.071527, 1.928193, -78.970016, -55.210556, -634.491089
1733469498.185789, 5.801151, 7.381922, 4.641160, 3.414214, 1.999552, 2.407814, -78.730011, -54.648743, -634.681458
1733469498.195804, 5.596895, 7.895030, 6.415263, 3.253352, 1.782885, 2.930309, -78.742325, -53.980576, -635.018860
1733469498.205816, 5.182100, 8.459612, 8.041076, 3.068813, 1.454550, 3.493674, -78.607590, -52.941330, -635.349976
1733469498.215799, 4.468777, 8.977059, 9.257929, 2.860258, 1.129076, 4.078601, -79.097809, -51.309601, -635.009766
1733469498.225799, 3.548955, 9.125949, 10.189872, 2.574154, 0.883233, 4.653023, -79.133652, -49.558624, -635.183472
1733469498.235814, 2.469020, 9.081805, 11.033678, 2.198294, 0.725940, 5.195632, -79.309250, -47.748734, -635.603760
1733469498.245801, 1.104774, 8.990227, 11.581502, 1.733378, 0.682284, 5.679328, -79.240768, -45.004837, -635.690735
1733469498.255797, -0.353444, 8.700828, 11.968315, 1.236006, 0.716773, 6.114923, -79.112656, -42.451462, -635.519104
1733469498.265797, -2.069189, 7.914782, 12.173917, 0.764286, 0.869819, 6.490366, -79.009171, -39.449173, -636.354126
1733469498.275796, -4.216189, 7.234080, 12.848782, 0.277212, 1.033446, 6.747370, -78.017029, -36.502747, -637.222534
1733469498.285785, -6.307375, 6.745514, 14.133870, -0.212296, 1.099654, 6.940633, -77.099579, -33.134750, -637.762817
1733469498.295795, -8.262240, 6.414665, 15.585205, -0.738019, 1.061021, 7.121839, -77.099579, -33.134750, -637.762817
1733469498.305784, -10.875362, 6.068852, 16.831387, -1.337366, 1.037877, 7.254247, -74.444946, -26.031891, -638.237183
1733469498.315798, -14.435091, 5.476138, 18.638710, -2.076370, 0.914788, 7.213296, -74.444946, -26.031891, -638.237183
1733469498.325797, -17.875858, 5.024083, 19.937864, -2.949675, 0.789147, 6.991416, -72.544479, -22.350937, -638.355164
1733469498.335830, -20.713885, 4.561702, 20.509629, -3.927603, 0.654282, 6.626328, -70.995041, -18.708023, -637.838623
1733469498.345790, -23.039403, 4.830003, 20.383934, -4.910875, 0.457084, 6.183600, -68.805588, -15.238556, -637.130493
1733469498.355775, -24.888923, 5.882404, 19.233071, -5.778852, 0.163184, 5.702457, -66.770309, -11.792282, -636.021179
1733469498.365796, -26.300904, 7.438336, 17.244986, -6.416663, -0.213068, 5.315048, -64.787018, -8.523453, -633.417664
1733469498.375797, -28.307694, 9.398588, 14.816816, -6.828655, -0.581746, 4.962754, -62.407501, -5.530380, -631.604431
1733469498.385776, -31.039029, 11.402236, 12.484565, -7.225176, -0.747729, 4.602513, -60.586472, -2.677536, -628.930359
1733469498.395795, -33.828573, 14.375685, 10.004172, -7.780496, -0.597891, 4.217255, -58.111877, -0.406479, -625.808655
1733469498.405810, -36.405931, 17.926136, 6.780529, -8.457004, -0.168300, 3.798061, -56.252625, 1.720612, -622.365234
1733469498.415795, -39.117365, 20.912903, 2.744054, -9.107220, 0.141685, 3.216635, -54.471283, 3.413956, -618.597717
1733469498.425784, -42.389191, 21.344009, -3.551349, -9.321170, 0.275840, 2.299741, -53.498489, 4.293701, -614.873047
1733469498.435785, -45.033736, 19.833716, -11.263821, -8.898914, 0.424044, 1.048491, -52.984222, 4.707016, -610.990356
1733469498.445792, -45.387479, 18.305018, -17.662774, -7.924080, 0.526694, -0.263847, -52.785965, 4.195694, -607.590210
1733469498.455787, -43.690888, 17.493085, -21.911434, -6.587157, 0.530328, -1.434531, -53.292343, 3.540039, -603.979248
1733469498.465784, -40.883836, 17.881394, -23.693319, -5.187258, 0.470129, -2.324904, -54.247025, 2.535645, -601.505554
1733469498.475785, -37.548115, 18.532168, -23.641544, -4.009095, 0.484094, -2.913032, -55.582840, 1.096725, -599.683289
1733469498.485782, -34.497603, 18.677616, -22.494422, -3.197962, 0.648088, -3.286325, -57.057831, -0.052994, -599.080322
1733469498.495782, -31.791706, 18.545636, -21.341614, -2.672719, 0.961662, -3.521695, -58.487869, -1.543289, -598.009521
1733469498.505791, -29.608194, 18.444181, -20.567689, -2.301014, 1.327670, -3.700387, -60.242157, -3.088989, -597.566406
1733469498.515802, -27.749695, 17.871219, -20.297593, -1.922794, 1.643677, -3.897837, -62.349762, -4.671829, -597.441040
1733469498.525790, -26.025571, 16.692224, -20.444238, -1.434013, 1.869612, -4.174104, -64.668213, -6.476532, -597.886841
1733469498.535780, -24.339903, 15.873707, -20.058921, -0.882181, 1.960966, -4.529809, -66.714569, -8.233368, -598.518494
1733469498.545791, -22.452225, 15.692196, -19.143288, -0.335634, 1.952599, -4.900192, -68.624390, -10.115417, -599.212585
1733469498.555789, -20.446632, 15.842133, -17.998860, 0.177402, 1.903693, -5.242276, -70.504227, -12.144684, -600.017883
1733469498.565784, -18.431013, 16.309751, -16.614562, 0.604938, 1.861240, -5.535445, -72.697861, -14.320389, -600.900696
1733469498.575785, -16.401927, 17.095947, -15.355961, 0.936804, 1.887229, -5.762151, -74.752518, -16.693832, -601.942017
1733469498.585788, -14.197616, 17.857303, -14.229938, 1.210769, 1.949172, -5.891300, -76.772598, -19.208099, -603.172058
1733469498.595779, -11.893646, 18.401385, -13.287819, 1.491605, 1.982825, -5.919280, -78.244995, -21.837509, -604.447083
1733469498.605793, -9.640852, 18.540997, -12.570307, 1.808860, 1.975748, -5.883054, -79.744705, -24.435776, -605.068359
1733469498.615780, -7.319523, 18.471715, -11.770644, 2.164020, 1.902910, -5.766579, -80.997269, -27.108704, -606.620483
1733469498.625790, -4.944026, 18.331804, -11.206659, 2.513666, 1.913498, -5.506954, -82.226242, -30.010376, -608.009277
1733469498.635790, -2.965069, 17.919253, -10.739491, 2.803081, 2.087339, -5.146918, -82.668610, -32.434067, -608.995667
1733469498.645779, -1.502062, 17.097443, -10.054151, 3.032846, 2.402491, -4.735723, -83.482437, -34.803650, -610.199402
1733469498.655776, -0.411204, 16.012870, -9.361927, 3.232197, 2.845270, -4.324088, -83.721390, -37.191360, -611.584717
1733469498.665654, 0.388908, 14.999524, -8.323741, 3.384195, 3.348648, -3.913954, -84.504105, -39.211395, -613.128601
1733469498.675786, 1.173458, 14.078804, -7.167043, 3.504062, 3.812444, -3.529924, -84.758728, -41.277390, -615.326904
1733469498.685774, 2.053926, 13.431920, -5.919215, 3.637321, 4.121557, -3.159778, -84.876968, -43.042114, -617.360352
1733469498.695835, 2.946364, 12.975825, -4.631733, 3.794676, 4.266317, -2.795219, -84.798157, -44.761688, -619.197632
1733469498.705771, 3.790171, 12.524967, -3.041384, 3.945914, 4.276696, -2.429357, -84.711197, -46.286591, -621.249329
1733469498.715769, 4.694730, 11.914146, -0.837971, 3.993350, 4.093442, -2.065383, -84.684418, -47.571854, -623.074768
1733469498.725775, 5.723788, 11.390414, 1.220594, 3.899796, 3.769485, -1.678546, -84.176239, -48.914810, -624.651123
1733469498.735838, 6.766762, 10.882395, 2.164508, 3.748535, 3.478871, -1.244369, -83.715668, -50.023331, -626.143860
1733469498.745782, 7.552808, 10.292823, 2.009034, 3.597993, 3.368403, -0.713026, -83.128830, -50.943466, -627.216614
1733469498.755775, 7.558495, 9.727791, 1.365742, 3.443970, 3.593711, -0.159769, -82.417236, -51.521683, -627.504333
1733469498.765771, 7.642890, 9.485528, 1.729811, 3.299146, 3.851453, 0.477499, -81.996475, -51.576157, -629.678467
1733469498.775779, 7.782652, 9.160664, 2.440739, 3.150388, 4.083257, 1.171514, -81.414948, -51.688858, -631.364685
1733469498.785775, 7.162554, 8.921544, 3.039140, 2.982974, 4.318285, 1.856073, -80.645981, -51.386444, -632.721130
1733469498.795794, 6.435464, 8.712350, 4.026748, 2.843142, 4.455496, 2.529218, -79.992188, -50.869919, -634.187805
1733469498.805785, 5.497237, 8.369231, 5.512500, 2.686941, 4.436979, 3.159819, -79.502716, -49.908463, -636.092041
1733469498.815777, 4.099921, 8.102427, 7.297826, 2.491879, 4.294155, 3.723521, -78.930695, -48.824554, -637.463562
1733469498.825848, 2.759766, 7.696610, 9.509769, 2.248570, 3.952268, 4.264925, -77.902802, -47.523636, -639.328003
1733469498.835768, 1.183783, 6.936451, 11.094581, 1.943041, 3.510030, 4.726484, -77.045547, -45.976791, -641.194946
1733469498.844905, -0.772729, 5.898415, 12.112865, 1.575409, 3.113289, 5.067881, -76.495071, -43.910843, -641.755432
1733469498.855769, -2.426374, 4.951808, 13.090896, 1.118078, 2.768556, 5.333502, -75.572281, -42.008377, -642.322449
1733469498.865770, -3.662231, 4.622754, 13.976302, 0.595512, 2.427037, 5.602404, -74.646729, -39.699127, -644.053223
1733469498.875820, -4.984279, 4.974852, 14.516045, 0.096970, 2.150654, 5.932566, -73.261490, -37.160202, -644.973816
1733469498.885763, -6.991069, 5.220108, 14.832528, -0.455943, 2.067348, 6.276500, -72.069946, -34.510590, -645.891663
1733469498.895780, -10.233716, 4.435707, 15.347730, -1.250404, 2.251477, 6.397316, -70.906250, -31.536530, -646.375244
1733469498.905777, -13.237990, 3.650559, 15.788264, -2.313156, 2.571971, 6.256446, -69.427460, -28.269211, -647.049683
1733469498.915779, -15.083620, 3.229329, 15.660024, -3.430637, 2.797836, 5.984754, -67.561386, -24.827744, -647.480591
1733469498.925823, -16.161011, 3.080889, 15.027207, -4.313740, 2.661651, 5.676988, -65.315262, -21.928772, -648.174561
1733469498.935106, -16.930447, 3.364751, 14.140305, -4.901442, 2.151727, 5.393815, -63.391357, -18.403046, -647.978333
1733469498.945784, -18.391808, 3.854216, 13.521254, -5.303102, 1.317764, 5.090797, -61.571182, -14.962540, -647.049500
1733469498.955765, -20.820576, 4.014029, 12.382212, -5.618475, 0.496166, 4.667403, -59.794174, -11.849106, -644.689087
1733469498.965790, -23.618949, 3.598036, 10.705074, -5.966319, -0.028963, 4.106807, -58.525604, -8.598465, -643.626953
1733469498.975785, -26.913670, 3.625869, 9.281871, -6.433098, -0.325139, 3.331058, -56.884644, -6.078796, -641.491516
1733469498.985778, -29.688699, 4.595072, 7.504326, -6.945144, -0.449746, 2.425583, -55.981003, -3.519638, -638.872314
1733469498.995779, -31.333965, 6.583905, 5.612607, -7.442673, -0.543254, 1.518509, -54.985550, -1.238190, -635.672607
1733469499.005769, -31.770757, 9.043349, 3.422062, -7.866319, -0.687406, 0.743123, -54.526428, 0.293137, -632.214355
1733469499.015772, -32.322022, 11.574319, 0.790236, -8.194477, -0.877113, 0.073160, -54.256287, 1.847382, -628.756409
1733469499.025781, -33.579576, 13.950265, -2.463035, -8.388437, -1.058313, -0.593477, -54.544312, 2.761475, -624.750000
1733469499.035780, -34.689139, 16.039505, -6.402993, -8.433024, -1.124177, -1.251921, -54.972427, 3.357056, -620.961426
1733469499.045774, -35.255068, 17.665767, -11.232996, -8.240552, -0.914890, -1.878811, -55.607513, 3.283966, -617.173340
1733469499.055772, -34.800769, 18.895937, -15.922489, -7.768863, -0.505533, -2.418100, -56.447891, 2.721207, -613.128662
1733469499.065769, -33.589452, 20.321834, -19.506758, -7.071848, -0.103856, -2.841658, -57.552200, 1.662552, -611.225586
1733469499.075768, -31.805323, 20.965425, -22.103868, -6.215951, 0.249051, -3.151033, -59.302719, 0.599564, -608.787842
1733469499.085768, -30.044238, 21.066131, -23.503429, -5.335092, 0.583343, -3.406520, -60.780472, -0.681534, -606.848267
1733469499.095770, -28.561030, 21.465365, -23.835175, -4.567513, 0.925788, -3.620786, -62.230911, -2.090469, -605.481628
1733469499.105776, -26.885837, 21.775264, -23.949498, -3.953239, 1.306312, -3.805494, -63.991028, -3.798309, -604.338989
1733469499.115765, -25.193735, 21.666627, -24.222138, -3.384028, 1.699580, -3.961627, -66.139099, -5.482895, -603.843445
1733469499.125769, -23.572112, 21.312435, -24.771308, -2.726788, 2.088537, -4.124350, -67.925735, -7.433350, -604.594299
1733469499.135761, -21.945851, 20.655825, -25.070583, -1.977731, 2.433173, -4.321177, -69.884583, -9.065201, -604.708313
1733469499.145762, -20.117429, 20.137181, -24.782531, -1.171509, 2.671173, -4.527541, -72.058350, -10.895721, -605.782349
1733469499.155771, -18.098369, 19.912426, -23.975835, -0.321441, 2.770561, -4.720510, -74.182877, -13.295609, -606.619690
1733469499.165768, -16.072425, 19.579332, -22.735938, 0.541557, 2.696453, -4.919259, -75.863037, -15.486176, -608.598755
1733469499.175708, -13.957298, 19.409942, -20.817434, 1.343665, 2.447619, -5.105776, -77.468735, -17.594879, -610.299683
1733469499.185764, -11.880178, 19.403957, -18.574965, 2.015884, 2.072030, -5.252424, -78.941605, -20.001724, -611.375916
1733469499.195820, -10.128072, 19.179949, -16.613964, 2.515259, 1.748043, -5.355872, -80.113403, -22.518692, -613.155334
1733469499.205773, -8.617181, 18.860024, -15.108909, 2.856362, 1.582902, -5.390413, -81.488281, -25.117432, -614.254517
1733469499.215773, -7.287351, 18.309807, -14.105289, 3.097374, 1.613798, -5.351551, -82.018066, -27.864090, -615.681763
1733469499.225719, -6.052991, 17.733852, -13.171401, 3.294094, 1.780323, -5.242841, -82.982635, -30.599838, -616.909424
1733469499.235756, -4.915446, 17.167623, -12.119150, 3.463278, 1.985795, -5.088295, -83.367966, -33.295242, -618.059509
1733469499.245766, -3.800795, 16.541240, -11.122713, 3.625545, 2.191079, -4.889597, -83.807281, -36.036682, -619.548157
1733469499.255759, -2.555511, 15.906178, -10.108619, 3.788094, 2.376748, -4.651402, -83.748779, -38.865509, -620.587280
1733469499.265820, -1.310825, 15.165622, -9.093328, 3.926430, 2.534224, -4.380118, -83.752090, -41.269455, -622.610779
1733469499.275778, -0.089034, 14.401572, -8.060529, 4.047701, 2.664956, -4.069148, -83.673386, -43.806717, -623.607422
1733469499.285764, 0.975338, 13.692290, -6.974609, 4.131381, 2.791171, -3.730708, -83.338715, -46.056519, -624.479736
1733469499.295773, 1.721431, 12.807782, -5.785738, 4.180908, 2.865145, -3.394823, -82.919312, -48.194901, -625.874573
1733469499.305767, 2.424129, 12.146084, -4.731092, 4.197005, 2.955443, -3.035708, -82.231323, -50.136078, -626.877808
1733469499.315773, 3.059640, 11.793089, -3.960458, 4.165647, 3.101584, -2.631847, -81.794724, -51.881042, -627.822388
1733469499.325762, 3.591153, 11.273398, -3.537882, 4.116800, 3.346135, -2.180695, -81.262848, -53.529617, -628.786926
1733469499.335314, 3.945644, 10.806080, -3.314473, 4.076721, 3.707198, -1.710347, -80.403137, -54.801605, -629.692627
1733469499.345758, 4.042909, 10.538228, -2.716970, 4.054411, 4.085164, -1.219199, -79.726410, -56.056641, -631.269897
1733469499.355755, 4.104111, 10.266636, -1.812710, 4.044285, 4.408597, -0.709127, -78.736313, -57.022736, -632.342773
1733469499.365753, 4.244920, 9.915885, -0.549918, 4.018569, 4.628179, -0.198373, -78.199707, -57.702774, -634.173523
1733469499.375760, 4.488679, 9.539697, 0.832284, 3.954727, 4.685231, 0.296784, -77.548676, -58.339020, -635.224915
1733469499.385053, 4.607791, 9.128193, 2.415450, 3.858658, 4.562569, 0.779780, -76.848587, -58.751190, -636.466675
1733469499.395766, 4.489278, 8.504803, 3.767127, 3.703569, 4.398916, 1.204792, -76.130966, -58.805725, -637.431519
1733469499.405763, 4.370166, 7.949647, 5.112967, 3.453926, 4.158736, 1.613158, -75.502472, -59.041504, -638.196350
1733469499.415753, 4.479701, 7.543830, 6.166117, 3.196811, 3.855226, 2.049691, -75.116806, -58.664490, -638.907959
1733469499.425761, 4.767903, 7.417686, 6.826916, 3.011685, 3.529867, 2.557332, -74.636810, -58.090088, -639.964233
1733469499.435754, 4.846014, 7.408857, 7.454048, 2.869607, 3.272423, 3.143530, -74.046188, -57.508942, -640.793518
1733469499.445754, 4.513669, 7.116465, 8.286332, 2.625643, 3.130749, 3.711551, -74.035721, -56.510132, -641.797607
1733469499.455752, 3.860501, 6.744616, 9.558551, 2.205901, 3.001513, 4.245578, -73.645737, -55.288666, -641.793457
1733469499.465748, 2.702455, 6.460753, 10.534637, 1.655693, 2.967176, 4.707410, -73.401199, -53.481079, -644.068237
1733469499.475747, 1.413327, 6.110900, 11.299285, 1.050560, 2.951377, 5.115410, -72.867020, -51.505569, -644.758911
1733469499.485747, 0.134524, 5.899313, 12.131420, 0.462007, 2.861443, 5.498951, -72.763794, -49.085220, -645.846924
1733469499.495755, -1.459266, 5.546916, 12.903251, -0.134010, 2.734300, 5.777626, -72.098022, -46.624313, -646.958801
1733469499.505764, -3.095403, 5.299715, 13.698126, -0.774834, 2.582551, 5.932178, -71.901260, -43.807190, -647.662720
1733469499.515778, -4.544195, 5.003732, 14.580239, -1.477784, 2.334206, 5.965443, -71.053024, -40.932648, -648.728577
1733469499.525762, -5.491700, 4.902577, 14.870087, -2.215597, 2.011028, 5.939485, -70.053131, -37.885315, -649.173157
1733469499.535764, -6.134693, 5.457882, 14.331990, -2.794346, 1.611688, 6.006312, -68.994095, -34.404510, -649.702271
1733469499.545106, -7.056311, 5.585672, 13.493122, -3.166814, 1.211989, 6.084525, -68.066635, -31.075119, -649.865356
1733469499.555750, -8.713398, 5.440674, 13.188609, -3.468758, 0.899125, 6.150441, -66.507294, -27.537735, -648.868896
1733469499.565754, -10.792463, 5.349395, 13.573477, -3.866711, 0.666340, 6.166455, -65.070694, -23.881012, -649.460938
1733469499.575750, -12.618490, 5.825841, 14.407258, -4.348025, 0.362755, 6.239073, -63.676331, -20.028290, -648.452393
1733469499.585750, -14.886098, 6.357503, 15.142128, -4.882534, -0.016011, 6.330105, -61.337875, -16.129532, -647.148193
1733469499.595753, -18.370410, 6.543503, 15.061324, -5.488843, -0.237806, 6.344823, -59.448013, -12.329285, -645.357605
1733469499.605745, -23.202059, 6.929867, 14.809334, -6.304040, -0.174145, 6.092659, -57.339447, -8.530396, -643.059631
1733469499.615754, -28.673857, 8.341249, 14.640992, -7.370362, 0.015526, 5.491526, -55.422775, -5.006531, -640.673462
1733469499.625757, -33.638833, 10.164434, 13.260884, -8.485986, 0.164588, 4.527629, -53.872192, -1.706436, -637.038879
1733469499.635764, -37.013310, 12.315923, 10.711509, -9.389803, -0.027445, 3.359042, -52.623993, 1.208664, -633.000671
1733469499.645757, -38.994362, 14.446463, 6.587945, -9.917913, -0.507826, 2.144991, -51.713348, 3.347702, -628.664490
1733469499.655749, -39.986759, 16.076017, 1.137395, -10.016659, -1.001618, 1.023412, -51.289062, 4.342545, -623.546936
1733469499.665750, -40.397963, 17.578827, -4.863372, -9.668844, -1.227800, 0.058571, -51.281158, 5.173340, -619.789490
1733469499.675752, -39.982270, 18.561647, -9.846753, -9.021630, -1.121736, -0.720924, -51.840225, 5.353333, -615.835693
1733469499.685743, -38.864327, 20.292505, -13.038074, -8.294296, -0.692650, -1.288209, -52.524185, 4.973618, -611.908142
1733469499.695744, -37.244949, 21.867142, -14.430602, -7.678636, -0.106868, -1.671155, -53.511627, 4.299438, -608.914795
1733469499.705769, -35.753362, 23.131130, -14.842404, -7.263086, 0.553599, -1.963960, -55.057892, 3.207916, -606.458984
1733469499.715757, -34.489073, 24.082227, -15.108610, -6.983201, 1.150968, -2.263079, -56.506149, 2.035217, -603.778442
1733469499.725745, -33.206679, 24.017434, -15.861885, -6.709548, 1.587854, -2.637312, -58.368469, 0.583344, -602.185303
1733469499.735746, -31.920394, 23.498940, -17.859847, -6.231113, 1.982697, -3.053461, -60.422241, -1.392456, -600.989197
1733469499.745745, -30.193127, 22.580913, -19.856461, -5.505449, 2.332494, -3.500958, -62.437912, -3.312988, -600.395447
1733469499.755743, -28.201301, 22.198888, -20.602255, -4.667085, 2.534694, -3.978094, -64.735825, -5.378891, -598.979736
1733469499.765739, -25.762059, 22.314708, -20.434511, -3.827312, 2.540530, -4.395275, -66.734680, -7.423279, -599.823242
1733469499.775738, -23.321320, 22.433221, -20.116531, -3.009961, 2.468330, -4.725963, -68.464752, -9.467636, -600.046997
1733469499.785737, -21.570410, 22.907572, -19.615395, -2.276014, 2.429876, -4.993845, -70.567795, -11.619156, -600.922974
1733469499.794950, -19.906141, 23.233632, -18.962676, -1.677817, 2.411721, -5.180520, -70.567795, -11.619156, -600.922974
1733469499.805748, -18.003499, 23.128587, -19.167081, -1.061791, 2.520060, -5.272756, -74.436981, -16.181793, -602.488525
1733469499.815743, -16.097864, 22.723518, -19.293973, -0.405562, 2.716432, -5.281462, -76.306900, -18.516953, -604.049744
1733469499.825752, -14.105738, 22.043564, -19.043181, 0.257225, 2.968806, -5.201546, -76.306900, -18.516953, -604.049744
1733469499.835762, -12.537985, 21.597195, -18.349162, 0.885187, 3.284571, -5.087882, -77.748199, -20.789886, -606.053406
1733469499.845744, -11.223120, 21.401020, -16.951546, 1.417134, 3.571592, -4.954446, -79.285568, -23.081665, -608.054993
1733469499.855739, -10.050110, 21.410897, -15.441254, 1.865366, 3.831462, -4.806949, -80.629562, -25.367966, -610.139404
1733469499.865736, -8.894758, 21.335479, -14.101549, 2.259142, 4.045787, -4.654104, -81.367020, -27.858398, -612.148071
1733469499.875801, -7.726388, 20.864121, -12.830976, 2.625379, 4.152113, -4.490810, -82.404602, -30.273483, -614.737549
1733469499.885742, -6.457611, 20.155886, -11.720216, 2.996286, 4.140861, -4.328881, -83.078568, -32.550232, -617.267334
1733469499.895731, -5.237466, 19.369840, -10.563068, 3.402434, 3.965436, -4.162042, -83.583099, -34.982269, -619.703247
1733469499.905744, -4.146009, 18.779819, -9.288904, 3.854776, 3.641851, -3.965471, -83.703964, -37.082764, -621.677368
1733469499.915737, -3.055750, 18.136826, -8.247725, 4.272354, 3.345318, -3.736990, -83.635849, -39.526474, -623.635193
1733469499.925772, -2.075773, 17.375769, -7.359177, 4.571724, 3.194058, -3.486411, -83.414490, -41.756104, -625.027954
1733469499.935740, -1.281496, 16.670677, -6.493973, 4.750241, 3.184119, -3.204847, -83.097824, -44.042404, -626.421753
1733469499.945730, -0.458041, 16.038757, -5.720047, 4.836732, 3.277627, -2.900004, -82.681107, -46.295120, -628.149658
1733469499.955739, 0.314987, 15.202881, -4.889558, 4.864619, 3.364050, -2.592743, -82.250015, -48.258408, -629.260376
1733469499.965747, 1.152060, 14.280066, -4.269310, 4.906771, 3.449423, -2.279472, -81.597031, -50.201263, -630.104492
1733469499.975768, 2.002450, 13.383887, -3.933673, 4.962883, 3.608651, -1.961873, -81.059311, -51.957764, -631.428406
1733469499.985735, 2.736423, 12.702587, -3.079692, 5.014258, 3.715971, -1.627724, -80.275620, -53.640106, -632.670288
1733469499.995727, 3.532645, 12.393136, -1.832911, 5.059171, 3.700511, -1.240150, -79.689682, -55.222076, -633.378357
1733469500.005726, 4.238485, 12.202498, -0.697611, 5.071027, 3.593624, -0.811055, -78.697678, -56.733932, -634.289062
1733469500.015773, 4.768950, 12.148628, 0.337134, 5.048277, 3.420056, -0.334292, -78.222824, -57.812012, -634.532593
1733469500.025730, 5.075558, 12.089521, 1.121833, 4.987344, 3.188430, 0.138741, -77.699783, -58.715652, -635.335938
1733469500.035735, 5.182549, 11.801918, 1.357512, 4.932177, 2.970205, 0.588680, -77.090668, -59.333008, -635.491394
1733469500.045741, 5.635502, 11.816133, 1.355417, 4.956027, 2.818869, 1.082350, -76.791748, -59.994263, -635.910583
1733469500.055731, 6.289568, 11.975198, 1.464653, 5.067910, 2.749196, 1.675670, -76.543671, -60.158661, -636.008972
1733469500.065791, 6.561310, 12.196662, 1.930924, 5.204427, 2.837590, 2.334544, -76.613144, -60.158707, -635.905212
1733469500.075727, 6.127959, 12.483966, 3.022380, 5.230305, 3.176111, 3.002661, -76.060730, -59.806610, -636.034363
1733469500.085729, 5.058798, 12.382362, 5.012710, 4.973369, 3.710193, 3.617939, -76.086243, -59.244278, -636.798950
1733469500.095727, 3.580977, 11.571027, 7.661894, 4.393591, 4.276278, 4.088609, -75.921799, -58.383041, -637.899414
1733469500.105790, 2.246360, 10.645219, 10.651504, 3.651650, 4.594575, 4.481030, -75.514221, -57.321838, -639.058838
1733469500.115729, 1.587206, 10.020332, 13.657873, 2.887282, 4.452639, 4.854402, -75.548569, -55.798981, -640.372131
1733469500.125724, 1.080683, 9.400234, 16.013019, 2.133849, 3.906974, 5.197692, -75.011566, -54.261505, -641.727539
1733469500.135742, 0.219967, 8.358906, 17.179145, 1.404182, 3.229149, 5.454691, -74.637497, -52.303238, -642.829712
1733469500.145732, -1.064073, 7.703045, 17.093253, 0.681361, 2.682775, 5.633206, -74.309113, -49.931015, -643.772217
1733469500.155723, -2.358588, 7.384167, 16.325762, 0.013716, 2.294653, 5.801701, -73.999069, -47.267075, -644.650513
1733469500.165728, -3.644573, 6.752995, 14.979921, -0.471593, 2.051239, 5.991337, -73.354492, -44.618912, -645.700623
1733469500.175774, -5.509507, 5.626823, 13.782970, -0.778498, 1.992165, 6.135918, -72.657593, -41.910385, -646.567566
1733469500.185720, -7.949348, 4.213346, 14.300417, -1.164990, 1.926716, 6.113343, -71.876831, -38.954712, -647.039490
1733469500.195727, -9.804555, 3.599383, 15.276353, -1.644024, 1.844431, 6.044548, -70.871704, -35.781754, -647.639893
1733469500.205744, -11.350910, 3.124433, 16.474053, -2.229064, 1.693535, 6.023427, -69.228897, -32.402573, -648.112000
1733469500.215737, -13.621810, 2.755876, 17.507151, -2.929348, 1.599970, 5.991044, -67.962982, -29.179321, -648.432678
1733469500.225730, -16.551565, 2.803909, 18.852842, -3.835248, 1.477781, 5.859678, -66.181961, -25.707489, -648.451538
1733469500.235733, -19.466655, 3.407847, 19.785683, -4.876651, 1.195107, 5.626266, -64.751740, -21.947830, -648.255493
1733469500.245737, -22.557569, 4.631284, 19.072809, -5.814488, 0.734374, 5.214551, -63.180267, -18.185028, -646.791626
1733469500.255735, -25.317336, 5.965303, 17.356615, -6.531745, 0.067322, 4.663583, -62.024582, -14.475647, -644.673645
1733469500.265728, -27.284023, 8.003816, 15.088558, -7.087634, -0.625650, 4.131803, -60.087082, -11.086365, -642.386658
1733469500.275736, -29.131299, 10.814160, 11.597662, -7.554896, -0.941663, 3.747670, -58.709412, -7.774643, -639.611938
1733469500.285742, -30.777313, 13.452570, 8.050353, -8.102609, -0.766397, 3.496719, -57.225906, -4.627441, -636.576294
1733469500.295735, -32.591519, 15.431976, 4.907964, -8.777902, -0.249271, 3.262374, -55.869232, -1.704132, -633.192017
1733469500.305735, -34.913446, 16.800263, 1.239748, -9.449999, 0.461298, 2.850802, -54.763611, 0.896805, -629.609741
1733469500.315738, -36.702812, 17.992874, -2.438644, -9.967078, 1.015137, 2.212679, -53.881714, 2.484497, -626.221924
1733469500.325733, -37.878964, 19.197756, -6.156390, -10.177189, 1.136809, 1.356944, -53.670746, 3.761703, -621.995239
1733469500.335729, -38.721423, 19.927389, -10.903194, -9.950550, 0.917527, 0.383095, -53.841721, 4.358765, -618.520569
1733469500.345731, -39.770533, 20.039318, -16.519842, -9.304660, 0.727126, -0.730446, -54.580170, 4.226471, -614.736572
1733469500.355729, -39.915083, 19.682283, -21.676054, -8.282904, 0.629166, -1.869319, -55.451309, 3.490021, -610.626099
1733469500.365730, -38.336855, 19.457827, -24.960001, -6.998546, 0.536561, -2.817225, -56.472778, 2.499435, -608.961792
1733469500.375733, -35.689317, 19.813066, -26.380960, -5.709959, 0.489867, -3.493592, -58.350357, 1.054047, -606.929993
1733469500.385725, -33.111659, 20.396952, -26.062531, -4.691549, 0.541496, -3.956976, -60.021454, -0.282394, -605.406189
1733469500.395724, -30.992791, 20.859183, -24.944589, -4.040268, 0.771854, -4.280916, -62.057190, -2.048004, -603.939087
1733469500.405735, -29.228713, 21.738004, -24.104673, -3.706014, 1.151667, -4.559833, -64.209305, -4.116257, -603.548950
1733469500.415722, -27.502344, 22.278944, -24.376115, -3.356934, 1.600474, -4.799603, -66.578934, -6.191986, -603.642822
1733469500.425727, -25.467422, 21.862353, -25.460090, -2.739107, 2.024182, -5.040082, -68.994644, -8.427734, -603.795654
1733469500.435728, -23.125594, 21.456386, -25.528624, -1.936225, 2.282811, -5.302869, -71.177856, -10.789993, -604.462097
1733469500.445726, -20.644602, 21.291635, -24.731205, -1.046094, 2.376789, -5.567514, -73.422180, -13.105942, -605.736755
1733469500.455781, -18.140417, 21.564425, -23.374441, -0.186508, 2.386800, -5.770398, -75.336975, -15.641296, -606.287415
1733469500.465715, -15.688455, 21.899314, -21.642536, 0.538821, 2.401079, -5.873777, -77.167328, -18.228256, -607.973633
1733469500.475714, -13.320440, 22.074988, -20.050092, 1.126675, 2.503915, -5.855684, -78.753693, -20.932678, -609.517761
1733469500.485778, -11.029189, 21.980567, -18.538154, 1.633561, 2.639087, -5.726468, -80.270981, -23.585648, -611.686279
1733469500.495715, -8.792257, 21.585673, -16.776770, 2.121275, 2.666161, -5.523687, -81.682449, -26.237213, -613.119751
1733469500.505735, -6.921787, 20.909012, -15.060576, 2.573835, 2.608752, -5.290293, -82.575455, -28.974594, -614.535767
1733469500.515743, -5.356727, 20.161123, -13.565547, 2.963711, 2.558296, -5.048574, -83.119049, -31.616806, -616.629395
1733469500.525733, -3.960010, 19.281404, -12.202049, 3.251324, 2.541729, -4.799891, -83.594147, -34.119202, -618.099121
1733469500.535724, -2.812139, 18.345421, -10.922947, 3.454288, 2.569997, -4.542764, -83.873260, -36.557220, -619.524353
1733469500.545732, -1.989282, 17.489045, -9.783456, 3.614110, 2.612862, -4.292868, -84.004257, -38.992157, -621.180420
1733469500.555722, -1.310975, 16.671574, -8.961796, 3.778809, 2.693558, -4.042671, -84.096344, -41.480728, -622.063354
1733469500.565776, -0.649577, 15.780333, -8.113201, 3.977589, 2.758443, -3.811795, -83.835831, -43.770767, -624.048096
1733469500.575716, 0.016460, 14.841207, -7.295581, 4.172265, 2.855887, -3.577171, -83.668472, -45.867874, -625.263489
1733469500.585723, 0.855029, 13.954604, -6.231059, 4.326146, 2.987929, -3.331073, -83.172974, -48.136597, -626.302734
1733469500.595719, 1.742530, 13.159729, -4.844368, 4.401862, 3.077284, -3.060729, -82.858887, -49.903244, -627.378174
1733469500.605733, 2.605191, 12.462418, -3.557035, 4.397087, 3.120246, -2.772534, -82.121674, -51.894608, -628.385742
1733469500.615717, 3.404106, 11.793688, -2.782661, 4.353651, 3.208143, -2.466515, -81.345871, -53.589142, -629.178711
1733469500.625723, 4.036923, 11.113136, -1.959504, 4.281490, 3.278825, -2.138686, -80.649872, -55.217590, -630.588501
1733469500.635719, 4.633379, 10.805780, -1.520019, 4.097170, 3.613090, -1.315945, -80.077988, -56.400055, -631.368958
1733469500.645722, 5.748029, 10.316765, -0.061651, 4.033540, 3.737231, -0.812036, -79.356415, -57.639893, -632.111206
1733469500.655709, 6.207117, 10.246435, 0.780210, 3.978995, 3.807069, -0.256848, -78.445786, -58.585251, -632.249756
1733469500.665708, 6.459257, 9.933543, 1.569399, 3.896559, 3.877541, 0.336760, -77.916138, -59.078903, -633.784241
1733469500.675732, 6.373814, 9.526229, 2.108244, 3.757273, 4.045506, 0.938553, -77.038559, -59.461075, -634.539917
1733469500.685721, 6.159682, 9.168296, 2.547281, 3.584171, 4.301891, 1.547312, -76.656250, -59.651840, -635.515686
1733469500.695718, 6.116886, 8.997260, 3.355174, 3.396358, 4.523114, 2.180598, -75.920334, -59.355896, -636.474121
1733469500.705721, 6.169109, 9.044246, 4.449923, 3.213711, 4.633248, 2.872390, -75.284058, -59.046722, -637.539307
1733469500.715708, 5.899163, 8.894310, 5.979668, 2.997966, 4.541133, 3.565538, -74.996674, -58.198166, -639.301758
1733469500.725710, 5.158457, 8.657433, 7.277774, 2.724221, 4.380843, 4.242994, -74.472809, -57.266083, -640.062622
1733469500.735707, 4.079420, 8.628852, 8.194454, 2.400035, 4.264235, 4.916698, -73.926361, -55.686569, -641.745911
1733469500.745706, 2.652177, 8.552537, 8.931270, 1.981899, 4.246515, 5.548381, -73.539368, -53.972397, -643.116089
1733469500.755716, 0.862062, 8.379855, 9.522189, 1.457278, 4.348640, 6.090036, -72.888382, -52.123093, -643.934204
1733469500.765706, -1.146224, 8.000225, 10.577583, 0.800070, 4.376046, 6.459214, -72.039078, -49.774048, -646.346252
1733469500.775705, -2.689886, 7.727884, 11.338939, 0.074942, 4.291088, 6.739211, -70.978378, -47.159424, -647.737732
1733469500.785712, -4.264372, 7.238719, 11.519552, -0.622341, 4.176601, 6.902224, -69.923203, -44.179047, -649.299744
1733469500.795712, -5.833772, 6.670994, 11.718420, -1.298147, 4.034289, 6.961290, -68.453217, -41.193115, -650.756775
1733469500.805676, -7.236624, 6.337003, 12.102240, -1.957332, 3.837363, 6.959897, -67.039673, -37.980865, -652.139282
1733469500.815711, -8.798242, 5.939116, 12.898462, -2.622382, 3.480936, 6.885096, -64.780258, -34.653763, -653.231873
1733469500.825722, -10.195857, 5.993585, 13.653982, -3.268195, 2.991460, 6.823936, -62.787506, -31.114410, -653.611023
1733469500.835708, -11.969811, 6.155792, 14.005032, -3.915352, 2.496446, 6.766171, -60.804459, -27.320587, -654.035583
1733469500.845704, -14.508413, 6.169708, 13.757382, -4.571639, 2.130538, 6.665362, -58.575409, -23.675400, -654.345154
1733469500.855702, -17.579575, 6.256647, 13.329718, -5.236595, 1.910684, 6.461935, -56.287704, -19.849060, -652.596802
1733469500.865702, -21.596746, 6.105514, 13.113342, -5.999033, 1.689685, 5.992132, -53.845306, -16.110489, -652.883667
1733469500.875705, -25.827750, 5.572355, 12.504017, -6.772315, 1.311309, 5.176614, -52.047729, -12.274277, -651.383911
1733469500.885703, -29.519309, 5.078850, 11.048492, -7.348972, 0.723132, 4.060329, -50.636780, -8.727875, -648.987915
1733469500.895712, -32.449962, 6.335656, 9.383475, -7.716767, -0.061182, 2.807807, -48.991760, -5.720184, -646.461609
1733469500.905706, -34.403930, 8.971523, 7.673716, -7.986662, -0.912671, 1.586639, -48.493774, -2.733154, -642.810913
1733469500.915223, -35.474138, 12.278663, 5.290587, -8.244758, -1.598594, 0.526421, -48.237900, -0.238113, -639.636230
1733469500.925760, -35.581578, 15.948376, 2.259079, -8.550762, -1.963803, -0.232047, -47.859100, 2.094528, -635.464661
1733469500.935099, -35.137004, 19.116653, -1.505055, -8.882773, -1.912323, -0.681937, -48.274094, 3.794708, -631.080444
1733469500.945703, -34.624495, 21.610363, -6.047903, -9.146993, -1.415090, -0.883795, -48.558212, 5.055588, -626.805969
1733469500.955699, -34.286015, 23.274783, -10.982053, -9.247439, -0.560424, -1.014144, -49.242081, 5.866165, -621.541199
1733469500.965715, -34.233792, 24.292468, -15.140482, -9.160988, 0.383561, -1.258913, -50.040634, 6.294388, -618.738281
1733469500.975751, -34.503139, 24.824430, -18.173038, -8.857035, 1.071337, -1.735886, -51.351486, 6.214172, -614.684937
1733469500.985699, -34.367867, 24.572889, -20.900483, -8.272898, 1.318631, -2.409213, -52.834656, 5.427658, -611.447754
1733469500.995696, -33.782036, 24.302045, -24.124275, -7.300146, 1.322555, -3.173223, -54.567719, 4.412369, -609.227234
1733469501.005696, -32.207848, 23.773225, -26.649709, -6.039654, 1.190555, -3.867742, -56.452499, 2.985214, -607.082520
1733469501.015747, -30.154371, 23.040151, -27.883321, -4.742219, 1.100750, -4.461516, -58.381393, 1.490341, -605.934875
1733469501.025706, -28.179903, 23.403471, -27.738323, -3.618262, 1.152508, -4.923290, -60.542740, -0.329086, -604.862061
1733469501.035713, -25.967511, 23.941268, -26.465804, -2.780568, 1.348304, -5.239901, -63.022293, -2.248871, -604.328979
1733469501.045700, -23.561039, 24.091953, -25.111734, -2.158542, 1.630411, -5.455631, -65.310791, -4.323242, -604.525024
1733469501.055702, -21.041890, 24.236054, -24.058435, -1.604293, 1.906310, -5.568730, -67.828857, -6.688843, -604.300659
1733469501.065705, -18.710536, 24.288877, -23.115119, -1.060732, 2.111695, -5.631125, -70.007263, -8.617401, -605.534058
1733469501.075705, -16.618154, 23.968054, -22.344186, -0.522332, 2.282100, -5.668783, -72.529068, -11.030228, -606.503174
1733469501.085756, -14.603433, 23.404668, -21.801451, 0.063338, 2.458801, -5.685902, -74.401443, -13.507462, -607.973938
1733469501.095712, -12.761095, 22.872108, -21.173571, 0.671127, 2.642495, -5.677176, -76.364548, -15.978928, -609.250366
1733469501.105693, -11.028740, 22.452973, -20.397102, 1.296967, 2.859713, -5.620593, -77.925247, -18.558945, -611.304016
1733469501.115691, -9.473706, 22.224476, -19.083284, 1.922911, 3.072341, -5.508092, -79.419998, -20.984192, -613.139648
1733469501.125741, -8.000374, 21.988947, -17.217303, 2.510221, 3.210106, -5.361267, -80.823486, -23.523407, -615.273804
1733469501.135703, -6.571186, 21.559337, -15.081974, 3.037506, 3.222260, -5.196250, -81.838196, -26.408081, -617.806335
1733469501.145694, -5.151723, 20.990415, -13.085958, 3.506227, 3.130974, -4.994245, -82.708923, -29.086288, -619.369873
1733469501.155693, -3.818153, 20.199430, -11.260828, 3.909597, 2.955215, -4.779668, -83.027145, -31.746582, -620.779846
1733469501.165692, -2.682404, 19.311780, -9.636811, 4.229685, 2.749620, -4.550654, -83.546356, -34.314926, -622.805786
1733469501.175737, -1.443554, 18.373104, -8.491485, 4.467249, 2.636400, -4.286907, -83.702866, -36.887054, -624.454346
1733469501.185687, -0.236727, 17.261745, -7.286902, 4.617676, 2.600403, -3.990702, -83.345276, -39.532013, -625.777649
1733469501.195689, 0.851288, 16.299126, -6.083068, 4.665931, 2.638320, -3.649795, -83.136322, -41.962601, -627.635559
1733469501.205686, 1.716942, 15.338752, -4.921132, 4.636476, 2.699538, -3.283588, -82.770294, -44.126312, -628.466064
1733469501.215688, 2.451662, 14.361319, -4.027346, 4.540705, 2.788985, -2.904010, -82.395935, -45.886337, -629.502075
1733469501.225689, 3.137152, 13.367426, -3.830573, 4.434061, 3.052601, -2.485378, -81.903320, -47.887009, -630.711548
1733469501.235699, 3.622876, 12.455086, -3.651158, 4.334928, 3.450612, -2.044464, -81.146118, -49.733688, -632.017456
1733469501.245688, 3.959112, 11.588385, -3.104681, 4.229538, 3.849189, -1.608642, -80.382233, -51.161392, -633.558716
1733469501.255690, 4.418499, 10.873716, -2.232144, 4.184416, 4.132614, -1.154997, -79.679352, -52.702118, -634.075317
1733469501.265685, 5.082441, 10.459070, -0.973842, 4.184311, 4.202533, -0.667007, -79.014801, -53.682083, -636.211182
1733469501.275693, 5.687875, 10.035446, 0.173430, 4.183507, 4.148513, -0.160917, -78.207108, -54.458267, -637.217407
1733469501.285692, 5.985504, 9.570821, 1.142483, 4.157533, 4.063839, 0.358740, -77.044281, -55.212372, -638.317993
1733469501.295688, 6.025906, 9.101408, 2.129493, 4.074369, 3.975727, 0.881394, -76.581512, -55.740784, -639.255737
1733469501.305704, 5.927594, 8.836998, 2.878878, 3.963209, 3.954704, 1.422378, -75.710312, -56.213455, -640.540710
1733469501.315697, 5.818658, 8.765023, 3.578434, 3.854381, 3.967204, 2.004419, -75.710312, -56.213455, -640.540710
1733469501.325688, 5.699098, 8.783129, 4.626795, 3.740865, 3.934901, 2.597721, -75.040573, -56.103714, -641.210693
1733469501.335687, 5.293131, 8.470985, 5.949890, 3.562961, 3.780918, 3.145220, -74.470428, -55.801819, -642.182251
1733469501.345690, 4.637718, 8.074146, 7.122750, 3.297345, 3.570648, 3.618502, -74.196960, -55.350998, -643.028320
1733469501.355687, 3.854365, 7.877672, 8.048109, 2.994455, 3.346609, 4.060791, -73.575485, -54.597214, -643.915894
1733469501.365688, 3.181445, 7.753921, 8.928277, 2.689002, 3.072587, 4.555836, -73.056610, -53.871689, -644.336182
1733469501.375686, 2.152537, 7.770830, 9.429863, 2.440657, 2.858912, 5.098657, -72.498001, -52.508530, -645.616211
1733469501.385685, 0.581641, 7.478738, 9.944915, 2.146644, 2.762000, 5.607506, -72.115234, -51.146286, -646.293091
1733469501.395687, -1.381454, 6.776489, 10.826730, 1.698652, 2.769998, 5.975360, -71.759186, -49.398666, -646.792358
1733469501.405696, -3.749619, 5.573851, 12.112715, 1.035706, 2.822670, 6.084874, -71.482025, -47.451340, -648.075928
1733469501.415688, -5.660641, 4.310162, 13.779828, 0.142153, 2.729720, 5.933567, -70.990692, -45.356705, -648.981567
1733469501.425696, -6.633734, 3.703980, 14.829984, -0.820075, 2.391368, 5.678911, -70.318466, -42.817307, -649.951416
1733469501.435685, -7.091625, 3.913023, 14.283957, -1.598142, 1.954731, 5.458183, -69.464050, -40.309036, -650.696838
1733469501.445683, -7.432799, 4.359093, 12.835016, -2.076017, 1.521601, 5.338972, -68.383087, -37.606522, -651.309875
1733469501.455739, -7.801805, 4.633977, 11.731887, -2.376500, 1.187702, 5.306057, -67.465546, -34.884598, -651.685181
1733469501.465680, -8.568698, 4.952107, 11.369016, -2.668535, 0.983046, 5.345261, -66.340622, -31.915573, -651.317322
1733469501.475679, -9.891195, 5.365556, 11.826009, -3.080604, 0.874558, 5.395832, -65.091064, -29.161392, -651.586914
1733469501.485687, -11.399542, 5.911284, 12.797457, -3.643773, 0.785584, 5.493286, -63.671494, -25.960648, -651.478394
1733469501.495678, -13.544897, 6.389825, 13.756933, -4.302821, 0.667560, 5.579560, -61.997406, -22.727142, -650.581909
1733469501.505678, -16.862811, 6.627300, 14.852430, -5.107093, 0.476918, 5.533174, -60.476669, -19.153351, -650.609558
1733469501.515733, -20.671088, 7.215825, 15.332318, -6.035608, 0.172121, 5.326781, -58.588028, -15.338074, -648.572754
1733469501.525689, -24.729859, 8.359355, 14.197466, -6.900561, -0.103647, 4.936646, -57.207947, -11.647827, -647.161438
1733469501.535699, -28.496985, 9.399187, 12.201151, -7.693850, -0.340377, 4.325808, -55.420883, -8.060287, -644.684448
1733469501.545696, -31.335162, 10.811616, 9.630975, -8.379706, -0.581504, 3.588590, -53.837799, -4.699738, -641.918945
1733469501.555687, -33.564463, 12.575993, 6.459706, -8.890699, -0.876354, 2.831525, -52.665787, -1.567795, -638.737244
1733469501.565312, -36.081517, 14.010868, 2.135778, -9.179277, -0.973869, 1.979930, -51.485657, 1.134079, -634.862793
1733469501.575695, -37.781999, 15.009549, -2.525883, -9.280041, -0.782558, 1.107788, -50.864746, 3.404388, -630.508118
1733469501.585691, -38.231360, 16.124649, -6.506093, -9.194794, -0.366612, 0.311828, -50.249069, 4.841599, -626.281128
1733469501.595682, -37.748629, 18.094778, -9.191939, -9.019351, 0.025842, -0.368074, -50.561478, 5.639786, -622.334290
1733469501.605682, -37.097407, 20.570681, -10.868478, -8.871604, 0.228072, -0.974963, -50.917542, 6.105499, -618.579956
1733469501.615683, -36.763266, 22.071995, -13.583653, -8.646546, 0.472517, -1.608425, -51.782990, 6.114868, -614.523987
1733469501.625355, -36.043659, 22.458060, -17.135002, -8.171214, 0.866239, -2.236036, -52.879364, 5.412323, -610.784424
1733469501.635341, -34.486380, 22.764967, -20.125360, -7.393305, 1.259051, -2.784148, -54.321411, 4.352524, -608.357239
1733469501.645690, -32.593913, 22.820932, -21.937172, -6.413400, 1.479172, -3.296543, -56.021423, 2.948425, -606.022522
1733469501.655688, -30.798112, 22.935704, -22.667104, -5.378571, 1.521049, -3.775402, -57.774460, 1.456909, -604.231201
1733469501.665682, -28.931084, 23.189339, -22.938098, -4.411835, 1.536189, -4.181258, -60.112915, -0.210617, -602.979248
1733469501.675679, -27.274147, 23.255330, -23.020698, -3.553782, 1.671097, -4.574359, -62.026917, -2.138458, -602.260559
1733469501.685681, -25.201666, 23.031322, -22.504448, -2.797816, 1.854246, -4.892230, -64.194962, -3.796616, -602.375061
1733469501.695687, -22.850710, 22.828114, -21.570859, -2.127065, 2.086093, -5.095694, -66.349091, -6.029465, -602.398560
1733469501.705681, -20.677672, 22.885276, -20.287717, -1.549796, 2.305624, -5.202644, -68.572220, -8.019974, -602.835083
1733469501.715676, -18.699762, 22.698229, -19.098996, -1.031427, 2.486604, -5.244719, -71.177551, -10.155228, -603.300171
1733469501.725680, -16.838570, 22.291963, -18.333001, -0.496484, 2.600700, -5.280884, -73.285461, -12.336212, -604.417114
1733469501.735678, -15.158589, 21.634305, -17.895011, 0.091615, 2.668090, -5.323384, -75.051910, -14.493118, -605.896545
1733469501.745675, -13.589489, 21.073763, -17.449241, 0.707281, 2.732991, -5.362813, -76.991776, -17.034424, -607.544617
1733469501.755678, -12.138602, 20.700716, -16.418088, 1.285077, 2.756153, -5.409280, -78.429596, -19.499222, -609.215698
1733469501.765676, -10.611551, 20.444088, -15.118635, 1.793246, 2.752302, -5.410562, -80.064438, -21.897705, -610.803467
1733469501.775679, -9.153781, 20.159328, -13.622858, 2.209003, 2.708129, -5.368783, -81.438187, -24.744858, -612.272461
1733469501.785690, -7.936479, 19.722835, -12.152219, 2.520383, 2.632326, -5.334587, -82.271637, -27.345306, -614.778076
1733469501.795692, -6.781875, 19.181446, -10.979061, 2.748752, 2.551914, -5.294219, -82.955048, -30.195358, -616.163635
1733469501.805671, -5.522226, 18.573169, -10.079439, 2.943733, 2.464520, -5.219930, -83.487762, -32.731155, -617.368042
1733469501.815753, -4.189853, 17.903990, -9.407267, 3.140542, 2.361885, -5.084754, -83.783768, -35.604645, -618.806396
1733469501.825676, -2.897882, 17.104476, -8.967482, 3.381372, 2.290306, -4.873885, -83.978073, -38.315933, -620.328918
1733469501.835670, -1.739088, 16.340127, -8.412776, 3.616966, 2.287451, -4.596450, -84.078217, -40.950729, -621.724548
1733469501.845678, -0.713921, 15.640272, -7.804200, 3.800190, 2.407533, -4.258851, -83.858551, -43.553009, -622.498962
1733469501.855680, 0.173580, 14.846295, -7.231985, 3.900499, 2.653736, -3.885635, -83.517990, -45.838440, -623.103394
1733469501.865677, 0.952144, 13.898939, -6.757485, 3.959170, 3.014211, -3.499022, -83.337112, -48.086121, -625.011047
1733469501.875677, 1.831714, 13.050644, -6.360646, 4.010603, 3.475590, -3.079888, -82.979843, -50.098145, -626.480103
1733469501.885670, 2.810793, 12.385355, -5.579986, 4.036292, 3.954339, -2.618592, -82.355713, -51.955353, -627.813354
1733469501.895668, 3.519327, 11.744906, -4.348469, 4.042522, 4.310518, -2.148274, -81.733673, -53.627365, -629.142517
1733469501.905682, 4.116830, 11.205612, -3.037943, 4.079007, 4.476632, -1.677186, -80.745346, -55.078400, -630.820923
1733469501.915677, 4.674679, 10.815357, -1.466000, 4.145548, 4.421271, -1.200796, -79.850128, -56.393738, -632.555908
1733469501.925669, 5.090073, 10.365397, 0.043395, 4.180551, 4.169835, -0.743517, -79.259506, -57.546677, -633.401733
1733469501.935667, 5.345205, 9.628881, 1.201291, 4.180636, 3.807352, -0.312121, -78.378006, -58.361771, -634.418579
1733469501.945666, 5.617545, 8.940996, 1.970428, 4.154807, 3.444846, 0.090304, -77.985474, -59.172272, -634.873840
1733469501.955673, 5.905448, 8.166921, 2.742408, 4.104329, 3.088877, 0.469155, -77.341125, -59.744492, -634.703979
1733469501.965681, 6.335955, 7.614309, 3.563470, 4.015574, 2.763912, 0.860262, -77.245010, -60.039261, -635.636230
1733469501.975676, 6.658873, 7.137863, 4.016872, 3.833029, 2.598643, 1.282629, -76.693771, -60.172684, -635.640564
1733469501.985667, 6.556671, 6.691195, 4.277541, 3.567434, 2.638991, 1.716379, -76.565460, -60.277496, -636.194153
1733469501.995677, 6.138284, 6.405238, 4.854842, 3.225559, 2.744977, 2.144730, -76.303253, -59.762146, -636.744019
1733469502.005666, 5.627272, 6.227767, 5.307496, 2.870836, 2.903339, 2.592266, -76.318970, -59.349228, -637.071045
1733469502.015664, 4.982783, 6.111200, 5.701193, 2.574036, 3.060791, 3.057171, -75.875992, -58.530945, -638.149536
1733469502.025666, 4.450971, 6.124517, 6.382942, 2.318943, 3.098056, 3.529145, -75.963699, -57.530899, -638.913757
1733469502.035664, 3.897311, 6.163872, 7.134272, 2.099232, 3.016008, 4.005024, -75.466019, -56.212784, -640.094666
1733469502.045684, 3.149872, 6.306327, 7.682395, 1.913569, 2.952502, 4.492452, -75.342484, -54.589645, -640.931335
1733469502.055676, 2.285714, 6.608745, 8.748263, 1.676483, 2.848835, 4.986525, -75.158234, -53.010605, -640.583740
1733469502.065674, 1.320253, 6.641815, 10.046519, 1.338110, 2.644400, 5.482157, -74.933044, -50.745026, -642.345947
1733469502.075671, -0.147393, 6.268469, 10.708815, 0.913209, 2.525197, 5.909713, -74.751907, -48.529861, -643.364746
1733469502.085672, -1.960103, 5.735310, 11.211747, 0.430420, 2.507057, 6.267004, -74.443085, -45.747498, -644.224365
1733469502.095677, -3.775506, 5.074361, 12.060043, -0.148222, 2.513439, 6.513595, -73.923706, -42.936768, -644.992310
1733469502.105660, -5.477335, 4.586991, 13.204172, -0.863667, 2.450847, 6.613094, -73.082886, -39.874100, -646.306396
1733469502.115662, -6.893206, 4.726603, 14.381520, -1.647866, 2.174788, 6.639708, -72.208694, -36.572021, -647.024536
1733469502.125665, -8.288577, 4.910657, 14.904654, -2.418555, 1.724014, 6.592175, -70.900192, -33.146347, -647.772278
1733469502.135659, -9.889998, 4.841525, 14.245500, -3.072886, 1.320473, 6.522493, -69.565613, -29.541733, -647.750549
1733469502.145658, -11.919084, 4.344877, 13.374908, -3.653428, 1.133503, 6.405695, -67.669800, -25.930344, -647.892944
1733469502.155663, -14.418631, 4.115034, 13.159580, -4.304357, 1.135897, 6.253760, -65.972626, -22.187607, -646.670044
1733469502.165658, -17.228077, 4.473117, 13.299940, -5.023187, 1.202270, 6.038221, -64.016205, -18.324600, -646.539062
1733469502.175659, -19.746477, 5.027524, 13.454815, -5.780722, 1.206883, 5.810369, -61.764084, -14.548203, -645.457031
1733469502.185658, -22.768409, 6.044611, 13.536517, -6.564745, 1.015763, 5.473392, -59.986160, -10.574448, -643.595947
1733469502.195658, -26.505159, 6.755090, 12.800150, -7.329180, 0.632327, 4.869870, -58.356461, -7.164276, -641.500183
1733469502.205662, -29.830107, 7.284209, 11.132439, -7.983851, 0.157152, 4.051201, -56.847824, -4.076996, -638.511353
1733469502.215659, -33.057790, 8.694244, 8.937256, -8.527911, -0.288651, 3.042886, -55.569519, -1.307663, -635.208984
1733469502.225662, -35.628564, 10.432135, 6.395661, -8.967129, -0.775135, 1.948912, -54.787918, 0.784637, -631.071777
1733469502.235676, -37.379473, 12.432790, 3.077746, -9.177987, -1.209051, 0.890873, -54.332550, 2.556534, -627.077454
1733469502.245665, -37.905599, 13.884873, -0.851588, -9.093438, -1.454583, 0.011850, -54.379517, 3.416336, -622.897034
1733469502.255657, -37.550808, 14.586225, -4.871153, -8.742716, -1.345132, -0.668860, -54.853104, 3.713379, -618.658142
1733469502.265657, -37.071819, 15.279496, -7.908048, -8.293573, -0.913606, -1.215530, -55.275665, 3.809189, -615.438049
1733469502.275658, -36.003256, 16.278476, -9.373599, -7.916817, -0.367576, -1.626701, -55.745209, 3.179871, -612.152161
1733469502.285675, -35.111267, 18.869751, -9.799168, -7.709403, 0.159370, -1.973253, -57.073044, 2.292297, -608.651917
1733469502.295242, -34.513464, 21.311687, -10.426299, -7.625687, 0.585223, -2.357382, -58.170883, 1.100967, -605.871338
1733469502.305665, -33.898304, 23.207446, -12.121244, -7.491882, 0.962523, -2.787125, -59.844757, -0.496643, -603.622681
1733469502.315665, -32.756270, 24.925136, -14.703989, -7.191691, 1.332014, -3.203521, -61.399506, -2.234818, -601.627075
1733469502.325673, -30.927100, 25.569176, -17.435175, -6.711736, 1.653776, -3.636751, -63.230011, -4.252609, -600.018921
1733469502.335664, -28.696303, 26.177602, -19.953726, -6.030410, 1.896325, -3.998169, -65.038986, -6.470779, -599.118530
1733469502.345664, -25.910799, 26.732459, -22.396260, -5.133426, 2.101611, -4.204069, -66.781693, -8.669250, -598.733337
1733469502.355665, -22.981642, 26.346394, -24.615685, -4.025586, 2.311265, -4.225796, -68.642807, -10.932434, -598.491455
1733469502.365659, -20.460997, 25.169045, -26.393081, -2.745140, 2.635412, -4.113985, -70.634842, -12.361298, -599.761963
1733469502.375081, -18.740464, 23.972992, -26.562620, -1.505440, 3.027043, -3.973356, -72.376724, -14.227295, -600.889465
1733469502.385668, -17.576134, 23.195624, -24.981699, -0.438706, 3.399190, -3.844401, -74.195938, -15.970688, -602.595032
1733469502.395658, -16.744448, 22.325332, -22.714090, 0.421429, 3.740434, -3.808914, -75.795166, -17.520828, -604.971802
1733469502.405659, -15.828666, 21.330392, -20.311808, 1.108929, 3.959035, -3.890073, -77.540665, -19.317673, -607.222290
1733469502.415653, -14.626776, 20.812496, -18.154034, 1.728550, 4.024024, -4.061772, -79.173645, -21.212036, -609.615417
1733469502.425652, -13.124265, 20.642956, -16.019454, 2.306680, 3.885421, -4.263319, -80.128860, -23.549316, -611.883728
1733469502.435658, -11.503690, 20.726005, -13.987824, 2.809994, 3.592119, -4.448364, -81.529633, -25.557495, -613.767883
1733469502.445652, -9.946711, 20.723910, -12.524219, 3.231159, 3.295298, -4.582625, -82.146576, -27.851486, -616.086792
1733469502.455690, -8.352621, 20.692636, -11.377695, 3.600654, 3.039176, -4.633685, -82.738663, -30.563965, -617.217407
1733469502.465647, -6.629095, 20.450373, -10.223540, 3.932891, 2.783025, -4.578645, -83.191406, -33.075867, -619.412903
1733469502.475649, -4.904073, 19.834464, -9.160216, 4.223911, 2.551643, -4.407890, -83.403122, -35.308609, -620.869019
1733469502.485644, -3.492392, 18.920179, -8.432977, 4.463296, 2.494061, -4.132461, -83.522552, -37.729874, -622.081787
1733469502.495679, -2.431461, 17.999758, -7.611616, 4.617981, 2.626120, -3.774073, -83.532700, -39.868546, -623.991821
1733469502.505645, -1.779640, 16.859370, -6.480655, 4.675212, 2.883166, -3.410835, -83.317352, -42.262024, -625.471375
1733469502.515647, -1.299453, 15.598224, -5.157410, 4.638571, 3.146005, -3.063608, -83.037323, -44.012421, -627.061218
1733469502.525650, -0.888847, 14.421923, -4.059519, 4.552880, 3.418740, -2.742442, -82.965622, -46.037521, -628.683289
1733469502.535658, -0.527024, 13.318645, -3.166631, 4.447711, 3.679002, -2.451127, -82.139893, -47.858994, -629.994202
1733469502.545657, -0.120907, 12.342259, -2.314146, 4.347435, 3.861744, -2.183324, -81.518311, -49.841339, -631.741699
1733469502.555653, 0.395791, 11.410017, -1.565209, 4.278486, 3.940855, -1.924785, -80.845184, -51.401382, -632.486694
1733469502.565656, 0.903811, 10.558729, -0.871639, 4.274431, 3.933801, -1.688258, -79.991974, -52.927719, -634.637878
1733469502.575642, 1.445499, 9.857527, -0.020351, 4.296322, 3.832288, -1.462579, -79.215302, -54.415207, -635.467773
1733469502.585709, 2.225111, 9.385570, 0.842011, 4.310979, 3.672572, -1.186652, -78.583984, -55.676727, -636.694580
1733469502.595663, 2.935441, 8.917354, 1.533636, 4.298442, 3.543064, -0.883155, -77.766418, -56.670700, -637.091187
1733469502.605642, 3.606566, 8.394071, 2.227505, 4.235525, 3.470935, -0.539342, -76.711075, -57.748520, -637.606934
1733469502.615658, 4.164564, 7.942614, 3.052158, 4.091191, 3.480496, -0.131697, -75.987015, -58.558395, -638.769836
1733469502.625651, 4.515015, 7.477541, 3.978714, 3.835552, 3.535050, 0.317824, -75.351974, -58.921173, -639.231812
1733469502.635654, 4.773888, 7.002441, 4.809353, 3.510135, 3.578305, 0.797199, -74.929367, -59.254623, -639.888184
1733469502.645643, 4.891055, 6.390723, 5.391593, 3.185601, 3.592394, 1.271802, -74.329742, -59.607391, -640.719666
1733469502.655642, 4.994454, 5.726631, 6.067655, 2.868870, 3.477878, 1.732468, -73.883713, -59.328629, -640.892639
1733469502.665641, 5.077354, 5.173571, 6.528240, 2.577265, 3.246835, 2.163598, -73.749741, -58.931458, -642.224304
1733469502.675658, 5.104438, 4.770447, 6.686257, 2.342706, 2.935583, 2.591053, -73.631287, -58.076111, -643.079224
1733469502.685649, 5.151873, 4.474464, 6.678326, 2.164217, 2.614529, 3.029350, -73.456726, -57.396484, -643.166016
1733469502.695641, 5.002984, 4.204517, 6.665607, 2.019959, 2.323486, 3.479617, -73.258469, -56.263824, -643.720398
1733469502.705640, 4.497657, 4.165013, 6.779631, 1.885197, 2.051161, 3.929158, -73.344894, -55.053391, -643.940125
1733469502.715639, 3.781492, 4.258088, 6.883479, 1.777857, 1.839591, 4.409588, -73.365952, -53.374268, -644.549377
1733469502.725649, 2.735675, 4.022558, 6.991518, 1.685532, 1.756310, 4.880754, -73.543839, -51.612122, -644.768066
1733469502.735637, 1.217152, 3.652205, 7.376236, 1.524482, 1.808542, 5.285618, -73.281235, -49.695221, -645.701050
1733469502.745649, -0.448314, 3.265541, 8.246528, 1.235797, 1.882575, 5.573864, -73.051315, -47.777191, -646.504028
1733469502.755646, -2.041655, 2.787150, 9.667038, 0.820561, 1.850382, 5.754130, -72.454926, -45.518097, -646.489563
1733469502.765646, -3.680337, 2.469320, 11.146954, 0.273579, 1.682462, 5.833365, -72.006668, -42.913147, -647.250122
1733469502.775646, -5.331588, 2.303521, 12.155811, -0.344135, 1.449426, 5.852124, -71.475723, -40.146088, -647.747314
1733469502.785638, -6.697779, 2.098967, 12.454487, -0.945794, 1.222432, 5.855126, -70.629837, -37.483093, -648.203003
1733469502.795657, -8.015039, 1.903540, 12.483816, -1.504635, 1.016805, 5.855361, -69.959702, -34.382797, -648.475647
1733469502.805647, -9.231593, 1.928380, 12.537536, -2.030860, 0.813974, 5.889987, -68.869781, -31.027542, -648.366638
1733469502.815650, -10.367641, 2.140716, 12.776208, -2.525596, 0.593520, 6.003105, -68.869781, -31.027542, -648.366638
1733469502.825651, -12.727726, 2.389413, 13.578864, -3.073603, 0.372506, 6.107080, -67.786499, -27.751892, -648.220154
1733469502.835712, -16.297031, 2.493411, 14.276624, -3.765370, 0.203284, 6.066468, -66.751160, -24.088974, -647.644775
1733469502.845654, -20.178182, 2.410363, 14.376433, -4.574104, 0.196354, 5.818760, -65.256531, -20.729279, -647.514343
1733469502.855666, -24.101979, 2.372205, 14.117260, -5.539341, 0.324142, 5.296947, -63.661362, -16.987991, -645.975159
1733469502.865645, -26.978762, 2.107346, 13.303531, -6.585793, 0.370076, 4.535460, -62.343094, -13.642136, -643.796631
1733469502.875646, -28.638393, 2.484433, 11.363180, -7.430847, 0.152234, 3.689155, -61.305054, -10.209412, -642.043762
1733469502.885638, -29.866918, 4.197634, 8.620772, -7.865626, -0.407513, 2.853769, -60.384323, -7.196152, -639.482239
1733469502.895646, -30.819959, 5.735759, 5.629067, -7.930533, -1.164752, 2.073540, -59.563553, -4.916183, -636.109131
1733469502.905648, -32.206053, 7.312640, 2.744803, -7.736454, -1.869328, 1.343815, -59.175201, -2.863571, -632.934998
1733469502.915657, -33.652450, 9.293543, 0.167893, -7.505004, -2.252316, 0.675324, -59.018646, -1.311340, -629.450806
1733469502.925644, -33.971776, 10.419715, -1.987038, -7.415748, -2.161625, 0.145133, -59.106674, -0.047760, -625.360413
1733469502.935640, -33.660231, 11.675175, -3.439121, -7.523057, -1.745647, -0.274605, -59.046570, 0.407013, -622.334351
1733469502.945643, -32.944514, 13.290363, -4.839879, -7.778807, -1.105585, -0.598141, -59.680420, 0.636490, -618.931091
1733469502.955639, -32.032473, 14.930242, -6.339696, -8.073655, -0.432379, -0.875942, -59.969833, 0.748260, -615.693604
1733469502.965636, -31.715989, 16.932842, -8.116942, -8.308022, 0.146853, -1.224162, -60.800919, 0.249588, -611.494751
1733469502.975638, -31.332917, 18.782961, -10.864887, -8.321835, 0.639161, -1.639002, -61.310486, -0.469620, -609.174744
1733469502.985644, -30.153324, 19.799000, -14.322264, -7.959250, 1.078155, -1.997679, -62.666779, -1.723083, -607.078064
1733469502.995637, -28.936621, 19.998467, -17.592145, -7.180813, 1.433246, -2.328861, -63.653564, -3.259232, -605.466797
1733469503.005637, -27.732936, 19.796307, -19.771916, -6.120020, 1.631679, -2.686699, -65.135712, -4.728210, -604.105347
1733469503.015631, -26.380960, 19.354128, -20.928615, -5.043074, 1.731535, -3.067163, -66.230316, -6.289246, -603.034424
1733469503.025647, -25.052777, 19.242947, -21.229236, -4.055734, 1.821826, -3.443905, -68.232315, -8.080887, -602.496948
1733469503.035628, -23.587675, 18.988264, -20.954951, -3.216042, 1.900260, -3.825171, -69.901306, -9.771500, -602.601868
1733469503.045634, -22.008250, 19.113810, -20.148254, -2.484511, 1.927278, -4.174508, -71.641602, -11.681595, -602.932007
1733469503.055135, -20.304027, 19.313875, -19.155708, -1.898945, 1.900477, -4.480078, -73.183533, -13.757309, -603.190125
1733469503.065868, -18.319533, 19.455881, -18.803312, -1.366028, 1.938293, -4.672711, -74.720245, -15.869965, -603.714111
1733469503.075679, -16.354343, 19.542372, -18.862269, -0.831719, 2.079351, -4.752491, -75.861069, -18.109497, -604.975647
1733469503.085771, -14.464869, 19.257013, -18.876185, -0.283782, 2.322683, -4.742887, -77.733780, -20.085663, -606.185791
1733469503.095630, -12.673407, 18.842367, -18.591425, 0.814041, 2.921185, -4.529680, -78.870346, -22.455063, -607.982239
1733469503.105626, -9.560347, 18.119318, -16.626982, 1.323267, 3.124156, -4.383780, -80.033966, -24.679443, -609.596069
1733469503.115630, -8.248324, 17.726819, -15.312266, 1.808892, 3.246691, -4.227452, -81.258911, -26.723862, -611.238037
1733469503.125629, -7.083096, 17.434876, -13.880234, 2.254565, 3.280373, -4.059883, -82.189972, -28.887131, -613.385986
1733469503.135626, -6.088754, 16.945262, -12.492944, 2.645331, 3.251467, -3.898584, -82.653793, -30.862305, -615.389099
1733469503.145624, -5.196615, 16.316784, -11.108198, 2.991569, 3.154717, -3.742590, -83.231476, -33.071609, -617.304077
1733469503.155632, -4.336498, 15.562012, -9.745747, 3.296095, 2.991866, -3.587669, -83.589981, -35.104431, -618.841980
1733469503.165625, -3.560028, 14.772524, -8.665963, 3.567610, 2.831888, -3.410258, -83.601883, -37.141663, -620.005371
1733469503.175625, -2.836830, 14.050821, -7.888296, 3.800647, 2.741523, -3.210153, -83.633469, -39.104477, -621.532593
1733469503.184826, -2.836830, 14.050821, -7.888296, 3.800647, 2.741523, -3.210153, -83.809357, -40.910538, -623.345825
1733469503.195622, -1.340454, 12.335526, -6.496517, 4.123752, 2.810912, -2.768536, -83.571869, -43.084061, -624.538818
1733469503.205622, -0.626233, 11.617864, -5.893477, 4.243823, 2.941298, -2.523028, -83.287827, -44.737366, -625.962463
1733469503.215225, -0.626233, 11.617864, -5.893477, 4.243823, 2.941298, -2.523028, -82.963364, -46.701508, -627.151062
1733469503.225637, 0.668431, 10.452636, -4.520702, 4.383736, 3.338530, -1.927776, -82.435867, -48.197662, -628.627258
1733469503.235630, 0.965911, 10.068815, -3.692158, 4.372281, 3.629211, -1.601472, -82.111496, -49.701141, -629.739746
1733469503.245630, 1.396568, 9.827150, -2.744653, 4.315517, 3.908915, -1.251309, -81.341034, -51.310837, -630.850281
1733469503.255621, 1.782633, 9.486575, -1.455675, 4.264141, 4.086519, -0.886102, -80.603256, -52.363785, -631.975525
1733469503.265623, 2.290353, 9.139566, 0.043096, 4.171055, 4.067910, -0.503882, -79.819672, -53.499542, -633.260254
1733469503.275625, 2.941277, 8.701127, 1.126023, 4.026380, 3.923647, -0.112136, -79.164612, -54.610199, -634.251343
1733469503.285626, 3.514538, 8.299799, 1.447445, 3.873015, 3.808616, 0.317835, -78.212128, -55.328186, -635.781189
1733469503.295641, 3.854216, 7.945457, 1.208473, 3.753154, 3.819577, 0.780281, -77.793091, -55.856430, -636.706604
1733469503.305641, 4.140323, 7.728483, 1.053898, 3.687852, 3.896312, 1.284642, -77.099533, -56.182770, -637.777039
1733469503.315629, 4.514716, 7.545027, 1.366491, 3.662982, 3.953833, 1.795629, -76.504913, -56.512207, -638.955383
1733469503.325621, 4.645200, 7.361721, 2.139518, 3.654099, 3.918151, 2.304700, -75.759155, -56.521484, -640.327148
1733469503.335621, 4.316147, 7.197269, 3.243395, 3.641304, 3.810074, 2.761417, -75.359680, -56.362503, -641.093323
1733469503.345622, 3.899406, 7.101801, 4.821922, 3.544104, 3.574469, 3.165976, -74.860641, -56.000168, -642.182373
1733469503.355619, 3.538780, 7.151181, 6.489783, 3.386591, 3.180570, 3.579971, -74.466675, -55.411682, -642.241089
1733469503.365619, 3.189675, 7.031471, 7.639000, 3.201592, 2.781560, 4.006519, -74.492004, -54.584351, -642.909119
1733469503.375638, 2.518999, 6.790255, 8.477868, 2.962152, 2.492244, 4.427216, -73.985535, -53.707916, -643.694031
1733469503.385618, 1.655590, 6.522105, 9.763105, 2.592130, 2.221346, 4.782988, -73.887283, -52.700012, -644.361572
1733469503.395619, 0.946757, 6.344934, 11.149348, 2.055027, 1.889582, 5.071475, -74.033493, -51.174026, -644.680237
1733469503.405627, 0.129287, 6.041020, 11.788899, 1.448553, 1.568820, 5.304755, -73.789886, -49.417496, -645.227722
1733469503.415616, -0.869843, 5.770475, 11.711537, 0.895790, 1.280010, 5.558589, -73.621628, -47.227158, -645.277466
1733469503.425621, -2.038962, 5.613056, 11.365575, 0.471969, 1.059623, 5.869944, -73.682999, -45.202103, -645.627136
1733469503.435615, -3.749918, 5.167136, 11.229554, 0.087330, 0.954257, 6.185428, -72.808899, -42.909317, -646.486206
1733469503.445619, -5.910835, 4.723760, 11.532420, -0.367732, 0.991592, 6.451314, -72.369568, -39.926590, -646.666870
1733469503.455613, -8.248474, 4.446930, 11.923573, -0.963560, 1.196761, 6.621366, -71.500275, -37.144974, -646.772827
1733469503.465658, -10.490494, 4.148852, 12.524667, -1.683139, 1.477212, 6.710374, -70.982101, -34.000244, -647.474487
1733469503.475616, -13.036129, 3.455731, 13.469479, -2.522023, 1.698260, 6.668437, -69.522308, -30.430573, -647.848694
1733469503.485614, -15.798738, 2.683601, 14.736012, -3.488207, 1.657014, 6.470375, -67.643250, -26.897141, -648.100891
1733469503.495615, -18.698565, 2.518251, 15.061025, -4.433247, 1.368049, 6.138033, -66.013031, -23.113907, -648.246948
1733469503.505613, -21.373038, 2.700959, 13.788507, -5.181027, 0.944012, 5.756582, -64.364563, -19.405441, -647.282715
1733469503.515632, -23.901315, 2.425925, 11.614272, -5.677589, 0.535965, 5.268903, -62.633331, -15.858017, -646.766296
1733469503.525629, -26.453534, 2.265064, 9.464578, -6.062542, 0.244845, 4.599718, -61.113190, -12.691025, -644.918274
1733469503.535624, -28.207885, 2.915539, 8.323741, -6.448132, -0.139733, 3.868972, -59.831375, -9.298843, -642.721924
1733469503.545626, -29.684060, 4.249259, 7.244256, -6.813379, -0.643689, 3.156283, -58.600693, -6.540054, -640.574829
1733469503.555612, -31.297603, 5.778406, 5.037700, -7.088109, -1.041730, 2.459463, -57.472229, -4.135071, -637.044861
1733469503.565626, -32.477794, 6.666056, 2.629881, -7.278011, -1.344582, 1.799534, -56.892502, -1.937820, -634.814697
1733469503.575623, -33.071556, 7.579145, 0.341922, -7.384963, -1.549319, 1.223729, -56.184998, -0.290161, -631.518677
1733469503.585621, -33.576883, 8.545205, -2.065897, -7.439683, -1.589897, 0.694019, -56.279236, 1.032516, -627.570068
1733469503.595622, -33.999759, 10.204686, -4.261380, -7.494195, -1.430741, 0.200769, -56.261917, 2.117004, -624.093994
1733469503.605632, -34.228255, 11.824663, -6.265626, -7.565526, -1.112916, -0.269323, -56.299866, 2.725433, -620.944946
1733469503.615599, -34.913296, 13.846566, -8.124873, -7.645360, -0.754807, -0.815931, -56.599365, 2.915466, -617.653564
1733469503.625609, -35.212122, 15.865925, -10.651654, -7.596119, -0.399601, -1.388404, -57.133698, 2.538559, -613.991211
1733469503.635600, -35.058893, 17.374871, -13.652935, -7.298219, -0.092026, -1.997485, -58.333038, 2.076599, -610.438171
1733469503.645611, -34.610430, 18.571224, -16.725594, -6.761732, 0.098256, -2.638723, -59.614761, 0.738617, -608.413391
1733469503.655471, -33.240348, 18.573319, -19.962704, -5.969563, 0.291236, -3.246961, -60.921951, -0.643829, -605.931641
1733469503.665168, -31.229966, 18.318037, -22.572533, -4.993324, 0.553431, -3.777406, -62.819611, -2.240372, -604.603394
1733469503.675607, -28.708274, 18.640506, -23.460782, -3.980346, 0.792475, -4.148870, -64.388855, -3.936859, -602.537231
1733469503.685628, -26.027965, 18.875886, -23.214479, -3.021116, 1.051050, -4.357963, -66.268799, -6.068558, -602.500366
1733469503.695618, -23.549816, 18.902821, -22.183176, -2.223731, 1.339816, -4.454996, -68.007156, -7.878159, -602.344299
1733469503.705611, -21.293581, 18.813038, -20.707001, -1.605388, 1.599471, -4.464758, -69.420197, -9.778778, -603.392517
1733469503.715610, -19.424158, 18.538603, -19.254619, -1.117188, 1.853651, -4.437325, -71.777542, -11.794159, -603.663330
1733469503.725619, -17.987787, 18.144906, -17.928081, -0.748666, 2.041237, -4.453573, -73.378937, -13.634796, -604.753601
1733469503.735622, -16.677410, 17.789218, -17.107169, -0.424006, 2.205663, -4.516759, -75.115479, -15.469513, -605.360779
1733469503.744913, -15.238495, 17.321301, -16.915484, -0.064696, 2.394265, -4.601284, -76.785553, -17.697235, -606.182007
1733469503.755619, -13.652785, 16.852636, -16.750134, 0.352859, 2.585640, -4.673628, -78.263809, -19.727081, -608.618530
1733469503.765612, -12.112865, 16.559945, -16.451757, 0.821181, 2.785669, -4.722067, -79.440353, -22.046555, -609.326721
1733469503.775615, -10.486454, 16.457892, -15.759084, 1.313170, 2.958306, -4.716122, -80.601639, -24.306808, -611.693237
1733469503.785617, -8.970176, 16.488418, -14.441076, 1.791483, 3.029634, -4.680011, -81.874146, -26.842529, -613.156616
1733469503.795614, -7.592013, 16.326510, -12.927941, 2.225728, 3.003408, -4.623724, -82.187103, -29.090332, -614.590820
1733469503.805603, -6.174048, 16.145000, -11.415853, 2.625501, 2.852735, -4.528139, -82.916611, -31.552933, -617.167908
1733469503.815576, -4.643554, 15.812056, -10.046669, 2.985028, 2.644435, -4.382032, -83.452744, -33.915543, -617.925293
1733469503.825023, -3.352032, 15.222633, -8.989479, 3.267541, 2.476261, -4.192908, -83.666733, -36.315903, -619.871155
1733469503.835030, -2.261772, 14.526819, -8.128913, 3.474289, 2.435288, -3.953028, -83.877213, -38.405701, -620.638550
1733469503.844941, -1.194258, 13.835493, -7.528417, 3.601082, 2.581363, -3.639357, -83.925766, -40.502457, -622.144714
1733469503.855620, -0.272490, 13.142222, -6.901286, 3.665404, 2.867171, -3.270016, -83.797134, -42.637543, -624.307800
1733469503.864741, 0.565630, 12.435783, -6.165518, 3.692958, 3.231495, -2.858355, -83.351288, -44.613892, -625.540833
1733469503.875623, 1.312471, 11.625495, -5.196166, 3.721035, 3.500840, -2.443918, -83.159622, -46.210449, -627.464478
1733469503.885616, 1.970428, 10.770915, -4.181623, 3.782808, 3.646192, -2.039030, -82.907791, -47.654572, -628.501404
1733469503.895625, 2.597410, 10.045172, -3.361908, 3.874516, 3.732857, -1.644095, -82.291748, -49.118454, -629.510132
1733469503.905603, 3.018340, 9.552416, -2.320879, 3.951597, 3.755049, -1.258069, -81.628326, -50.231827, -631.812195
1733469503.915614, 3.305495, 8.924836, -0.989105, 3.960208, 3.719992, -0.916319, -80.895187, -51.619247, -632.163086
1733469503.925618, 3.603423, 8.327931, 0.593313, 3.865458, 3.536005, -0.596533, -80.331421, -52.285522, -633.643372
1733469503.935607, 4.113837, 7.907001, 1.679682, 3.712479, 3.283765, -0.270217, -79.845825, -53.137634, -633.808228
1733469503.945609, 4.573973, 7.335086, 2.118719, 3.556445, 3.090706, 0.056414, -79.261581, -53.728577, -634.888367
1733469503.955615, 4.998794, 6.804171, 2.439093, 3.368751, 2.987120, 0.406185, -78.711319, -54.085251, -636.110901
1733469503.965617, 5.333832, 6.444293, 2.846257, 3.136555, 2.914548, 0.787311, -78.091385, -54.331833, -636.742249
1733469503.975618, 5.601534, 6.200533, 3.047669, 2.912224, 2.903259, 1.225410, -77.711761, -54.359238, -637.504272
1733469503.985603, 5.729175, 5.902605, 3.017742, 2.726140, 2.991292, 1.707341, -77.159210, -54.127289, -638.999390
1733469503.995620, 5.725584, 5.601085, 3.349787, 2.553426, 3.100029, 2.222606, -76.628952, -53.838394, -639.523071
1733469504.005619, 5.515792, 5.403264, 4.009540, 2.382831, 3.178535, 2.767727, -76.363861, -52.897217, -640.828247
1733469504.015604, 4.864270, 5.127632, 4.841375, 2.175707, 3.182281, 3.270801, -75.702728, -52.160065, -641.572510
1733469504.025624, 3.999215, 4.825813, 5.722142, 1.938403, 3.053149, 3.709619, -75.491394, -50.874207, -642.980591
1733469504.035605, 3.357120, 4.753987, 6.426337, 1.707629, 2.810495, 4.108581, -75.295578, -49.352310, -643.980347
1733469504.045248, 2.741810, 4.674080, 7.007679, 1.515576, 2.508497, 4.487459, -74.722992, -47.981033, -644.191528
1733469504.055621, 2.180519, 4.715829, 7.845500, 1.330104, 2.098468, 4.884544, -73.959137, -46.186310, -645.422302
1733469504.065616, 1.393276, 4.905869, 8.761581, 1.153666, 1.607862, 5.318567, -73.593201, -44.309540, -644.965698
1733469504.075604, 0.048782, 5.167884, 8.950124, 0.976389, 1.315804, 5.780283, -73.437912, -42.029434, -646.228516
1733469504.085584, -1.935562, 5.206640, 8.905981, 0.736821, 1.351349, 6.194535, -72.659576, -39.512772, -646.947449
