SamplingTime, AccelerationX, AccelerationY, AccelerationZ, GyroX, GyroY, GyroZ, MagneticFieldX, MagneticFieldY, MagneticFieldZ
1733469277.881435, -3.589357, -2.900126, -8.374917, 0.076061, -0.285439, 0.045552, , , 
1733469277.891450, -3.299210, -2.818275, -8.491784, 0.122992, -0.333591, 0.056618, -61.495880, -25.169861, -656.512695
1733469277.901276, -3.035249, -2.602647, -8.700678, 0.119439, -0.244063, 0.092567, -61.358932, -25.194641, -656.656982
1733469277.911449, -2.879177, -2.472612, -8.889371, 0.064577, -0.093565, 0.139650, -61.093658, -25.302048, -656.607849
1733469277.920912, -3.097199, -2.434005, -8.936657, 0.009986, 0.005951, 0.145182, -61.499603, -25.349045, -656.814697
1733469277.931430, -3.643975, -2.576760, -8.949077, -0.027304, 0.146262, 0.154326, -61.083313, -25.339874, -657.081177
1733469277.941443, -3.778649, -2.461838, -9.170541, -0.083035, 0.286984, 0.140405, -61.195770, -25.143982, -656.374207
1733469277.950486, -4.013879, -2.620753, -9.312696, -0.147017, 0.388615, 0.118757, -60.875854, -25.219803, -656.832031
1733469277.961463, -3.969586, -2.628085, -9.393351, -0.191595, 0.446172, 0.123063, -60.589279, -25.129150, -656.140991
1733469277.971460, -3.759346, -2.527978, -9.471462, -0.198423, 0.462861, 0.153891, -60.556763, -25.028458, -656.983643
1733469277.981433, -3.581576, -2.453159, -9.554361, -0.157477, 0.433928, 0.183169, -60.232086, -25.006882, -656.049194
1733469277.991450, -3.529951, -2.434454, -9.686940, -0.077794, 0.375627, 0.196536, -60.295959, -24.756958, -656.133789
1733469278.000489, -3.538032, -2.527529, -9.725397, 0.024707, 0.290162, 0.182747, -60.135574, -24.514206, -656.878296
1733469278.011246, -3.614796, -2.600253, -9.633220, 0.127013, 0.196155, 0.148709, -59.845901, -24.741943, -656.629456
1733469278.021450, -3.670311, -2.690783, -9.565285, 0.209724, 0.123900, 0.101896, -59.841461, -24.741837, -657.242737
1733469278.031442, -3.654300, -2.676717, -9.425373, 0.270349, 0.105849, 0.068908, -59.770309, -25.013275, -656.661194
1733469278.040590, -3.535787, -2.607136, -9.296386, 0.290003, 0.145072, 0.065605, -59.683823, -25.046051, -656.990784
1733469278.050664, -3.263147, -2.520047, -9.080908, 0.269643, 0.216740, 0.093545, -59.751907, -25.055588, -657.796997
1733469278.061435, -3.008913, -2.465728, -8.809764, 0.226334, 0.308814, 0.132036, -59.532654, -25.189194, -657.005249
1733469278.071394, -2.833089, -2.459593, -8.611494, 0.173520, 0.418062, 0.172963, -59.313324, -25.227707, -657.924988
1733469278.081444, -2.662502, -2.414103, -8.413225, 0.118307, 0.516361, 0.222431, -59.209229, -25.323273, -657.260498
1733469278.091447, -2.438045, -2.364573, -8.151060, 0.056570, 0.578015, 0.280320, -58.929520, -25.109497, -658.171570
1733469278.101441, -2.243068, -2.292598, -7.822306, -0.013761, 0.623203, 0.346606, -58.330597, -25.306412, -657.608276
1733469278.111419, -2.076072, -2.165555, -7.505523, -0.094187, 0.666713, 0.430746, -58.093018, -25.109879, -658.602112
1733469278.121451, -1.702726, -1.944840, -6.881684, -0.183674, 0.697087, 0.530803, -57.843262, -24.613358, -658.640320
1733469278.131425, -1.570746, -1.887828, -6.644508, -0.275789, 0.728884, 0.635644, -57.699097, -24.685135, -657.870483
1733469278.141461, -1.473332, -1.869423, -6.489334, -0.373655, 0.767908, 0.738598, -57.036179, -24.187973, -658.404541
1733469278.151427, -1.409586, -1.806724, -6.360795, -0.462163, 0.782993, 0.819747, -56.516083, -23.911530, -658.856079
1733469278.161419, -1.334468, -1.680879, -6.353613, -0.513787, 0.815830, 0.888246, -56.038559, -23.495087, -658.236084
1733469278.171428, -1.164779, -1.662623, -6.219088, -0.541630, 0.868812, 0.973798, -55.705719, -22.979660, -659.152832
1733469278.181421, -1.184681, -1.845630, -5.876867, -0.575378, 0.888138, 1.065627, -55.144348, -22.530609, -659.166382
1733469278.191426, -1.538723, -2.011129, -5.476886, -0.617441, 0.888380, 1.136538, -54.636429, -22.334030, -659.191162
1733469278.200520, -1.538723, -2.011129, -5.476886, -0.675459, 0.903516, 1.144687, -54.025513, -21.734802, -660.142883
1733469278.211428, -2.564340, -2.657863, -4.342783, -0.782688, 0.871257, 1.071085, -53.377487, -21.177902, -658.588196
1733469278.221422, -2.661155, -2.748095, -3.747225, -0.945443, 0.781670, 0.962027, -53.010941, -20.494354, -659.102844
1733469278.231419, -2.703353, -2.246509, -3.209727, -1.159932, 0.680272, 0.862867, -52.457626, -19.857880, -658.930908
1733469278.241425, -2.541744, -1.569549, -2.685696, -1.407644, 0.565200, 0.826430, -51.813492, -19.149704, -657.831421
1733469278.251426, -2.280627, -0.907702, -2.277933, -1.698566, 0.460656, 0.908773, -51.037796, -18.217316, -658.247314
1733469278.261426, -2.381931, -0.429610, -1.972822, -2.036690, 0.363984, 1.058868, -50.741104, -17.082550, -656.744080
1733469278.271424, -2.978387, -0.019154, -1.887978, -2.395218, 0.194440, 1.187962, -50.161575, -15.839813, -656.952942
1733469278.281425, -3.966594, 0.445920, -2.179621, -2.692863, 0.002892, 1.278099, -50.086517, -14.349518, -656.196777
1733469278.291425, -5.136011, 0.649876, -2.549525, -2.906367, -0.149927, 1.279155, -49.957352, -13.281021, -655.148254
1733469278.300748, -6.166865, 0.814178, -2.527678, -3.086874, -0.346271, 1.190643, -49.765396, -11.738449, -654.426208
1733469278.311425, -7.294833, 1.051952, -2.287360, -3.297967, -0.607421, 1.047659, -49.313004, -10.525879, -652.806274
1733469278.321428, -8.456171, 1.303194, -2.038663, -3.557042, -0.904105, 0.866671, -49.390991, -8.783905, -652.394958
1733469278.331424, -9.616610, 1.703325, -2.116923, -3.896918, -1.188968, 0.621505, -49.578888, -7.298874, -650.871826
1733469278.341424, -10.611401, 2.247706, -3.063231, -4.262165, -1.383895, 0.334660, -50.070511, -5.614426, -648.307861
1733469278.350718, -11.522095, 2.560599, -5.060295, -4.541893, -1.500867, 0.031724, -50.467285, -4.025650, -647.265015
1733469278.361422, -12.617742, 2.731784, -7.994090, -4.597651, -1.593927, -0.290922, -51.048309, -2.819168, -644.742065
1733469278.371424, -13.736882, 2.499247, -11.263971, -4.353719, -1.603408, -0.669376, -51.392258, -1.624496, -643.357971
1733469278.381413, -14.699949, 2.419939, -13.741520, -3.870875, -1.550697, -1.077631, -51.927231, -0.836029, -641.821533
1733469278.391419, -15.589545, 2.823512, -15.107412, -3.326038, -1.426376, -1.477786, -52.776108, -0.397339, -639.570618
1733469278.401235, -16.427067, 3.668815, -15.367333, -2.901777, -1.263139, -1.899637, -53.598419, -0.130722, -638.823975
1733469278.411421, -16.760908, 4.990863, -14.787787, -2.728333, -1.189714, -2.306187, -54.721207, 0.149200, -636.616699
1733469278.421411, -16.724097, 6.332663, -14.769082, -2.749288, -1.192728, -2.663993, -55.960068, 0.126907, -635.799255
1733469278.431409, -16.729334, 7.405565, -15.802479, -2.802051, -1.269826, -3.008617, -57.674438, -0.055252, -634.545654
1733469278.441410, -16.656910, 7.952790, -17.857153, -2.698433, -1.419778, -3.357437, -59.016129, -0.428467, -633.216492
1733469278.451405, -16.387861, 8.047510, -20.350864, -2.344933, -1.526097, -3.689957, -60.768341, -1.236572, -632.362976
1733469278.461405, -15.840786, 8.119336, -22.127062, -1.850752, -1.519689, -3.979514, -62.640472, -2.092056, -631.189697
1733469278.471428, -15.165472, 8.289175, -22.778584, -1.416563, -1.399890, -4.234580, -64.465881, -3.247375, -629.752563
1733469278.481427, -14.367903, 8.358906, -22.892458, -1.097132, -1.160852, -4.452560, -66.409775, -4.372681, -629.605164
1733469278.491420, -13.401693, 8.521862, -22.833801, -0.843282, -0.854671, -4.633944, -68.325958, -5.837433, -629.402405
1733469278.501418, -12.328642, 8.800187, -22.659772, -0.598562, -0.539370, -4.764139, -69.899536, -7.543304, -628.272156
1733469278.511410, -11.168352, 9.242067, -22.379052, -0.345099, -0.216388, -4.830464, -71.502350, -9.487503, -629.290344
1733469278.521484, -10.156054, 9.752182, -21.918168, -0.108642, 0.092649, -4.872092, -73.259293, -11.123062, -629.372192
1733469278.531410, -9.223812, 10.345645, -21.392192, 0.084999, 0.385908, -4.896346, -74.352768, -13.134323, -629.251526
1733469278.541412, -8.227674, 11.035773, -20.989667, 0.255952, 0.684523, -4.898250, -75.693817, -15.186508, -630.475159
1733469278.551416, -7.200711, 11.668890, -20.759674, 0.470435, 0.983189, -4.862061, -76.537582, -17.259705, -631.045105
1733469278.561411, -6.036381, 12.311733, -20.541652, 0.779035, 1.282007, -4.754743, -77.904755, -19.595474, -632.598877
1733469278.571416, -4.892850, 12.648268, -20.067600, 1.166860, 1.569421, -4.583728, -78.451263, -21.618484, -632.523132
1733469278.581411, -3.781043, 12.751967, -19.231275, 1.601921, 1.833467, -4.369726, -78.989761, -23.886688, -634.352051
1733469278.591416, -2.728941, 12.725032, -18.010382, 2.031379, 2.070939, -4.127224, -79.272232, -26.173187, -636.139648
1733469278.601447, -1.780239, 12.718747, -16.476447, 2.412304, 2.262875, -3.850725, -79.443329, -28.581207, -637.473633
1733469278.611403, -1.008707, 12.621932, -14.876671, 2.744460, 2.404286, -3.549291, -79.397202, -30.860733, -638.251892
1733469278.621399, -0.365415, 12.444911, -13.318046, 3.041900, 2.512357, -3.229240, -79.301239, -32.907211, -640.212891
1733469278.631410, 0.145747, 12.094759, -11.777228, 3.288184, 2.582034, -2.896327, -79.048813, -34.905746, -641.167480
1733469278.641417, 0.524629, 11.629086, -10.282647, 3.474530, 2.616844, -2.560565, -78.532410, -37.053894, -642.653931
1733469278.651454, 0.853234, 10.995072, -8.997709, 3.604618, 2.655050, -2.225156, -78.028229, -38.652222, -644.129761
1733469278.661404, 1.156549, 10.313024, -7.809138, 3.690777, 2.687574, -1.885244, -77.284317, -40.806656, -644.521362
1733469278.671415, 1.392677, 9.688736, -6.760178, 3.750904, 2.722646, -1.534496, -76.316818, -42.358154, -646.045898
1733469278.681422, 1.577480, 9.117718, -5.868637, 3.793074, 2.791379, -1.162553, -75.545105, -43.982498, -647.415039
1733469278.691411, 1.697639, 8.503905, -5.044433, 3.808970, 2.906924, -0.778361, -74.666824, -45.647171, -648.433716
1733469278.700607, 1.739388, 7.875128, -4.252850, 3.784133, 3.065986, -0.402440, -73.563477, -46.817780, -649.167114
1733469278.711401, 1.651700, 7.268497, -3.387496, 3.714741, 3.237596, -0.044320, -72.563507, -47.781906, -650.174194
1733469278.721400, 1.469441, 6.662165, -2.542193, 3.616811, 3.393130, 0.292346, -71.525360, -48.954559, -650.615601
1733469278.731447, 1.274463, 6.044461, -1.793407, 3.495242, 3.548788, 0.619544, -70.519684, -49.927765, -652.158325
1733469278.741396, 1.094449, 5.436334, -1.092055, 3.367191, 3.696370, 0.937128, -69.050568, -50.806076, -653.189331
1733469278.751413, 0.948104, 4.854693, -0.310947, 3.239635, 3.813993, 1.254155, -67.889542, -51.461899, -654.059937
1733469278.761400, 0.857573, 4.250606, 0.381875, 3.110551, 3.902027, 1.578449, -66.509171, -52.060562, -654.935547
1733469278.771400, 0.930147, 3.667917, 1.073949, 2.968341, 3.954789, 1.910570, -65.357666, -52.550278, -655.947815
1733469278.781399, 1.030255, 3.049764, 1.837849, 2.797483, 3.940330, 2.247907, -64.214813, -52.794647, -656.120972
1733469278.791409, 1.069610, 2.651578, 2.807501, 2.628307, 3.751090, 2.590559, -63.064117, -53.155411, -656.926880
1733469278.801402, 1.011401, 2.364873, 3.859453, 2.501551, 3.371101, 2.957340, -62.251099, -53.405228, -657.598145
1733469278.811405, 0.715417, 1.888427, 4.891803, 2.388223, 2.891623, 3.291605, -62.069809, -53.238251, -657.914673
1733469278.821399, 0.272340, 1.087416, 6.055235, 2.210402, 2.328222, 3.531052, -61.776321, -53.090057, -658.133179
1733469278.831398, -0.187646, 0.138564, 6.978649, 1.901622, 1.721492, 3.653045, -61.544022, -52.801178, -658.016724
1733469278.841404, -0.703895, -0.526126, 7.292738, 1.468912, 1.165351, 3.704860, -61.544022, -52.801178, -658.016724
1733469278.851414, -1.184232, -0.815974, 6.826168, 0.991621, 0.786065, 3.760477, -61.272888, -52.176224, -657.973267
1733469278.861410, -1.485602, -0.995539, 5.937919, 0.543881, 0.655683, 3.848282, -61.627182, -51.459320, -658.230835
1733469278.871462, -1.755698, -0.970998, 5.238364, 0.123837, 0.743187, 3.961150, -61.745850, -50.393921, -657.583618
1733469278.881391, -2.081758, -0.938677, 4.929212, -0.282774, 0.878545, 4.095732, -61.689163, -49.173798, -658.469910
1733469278.891408, -2.466327, -0.941370, 5.063138, -0.684652, 0.982022, 4.254111, -61.477356, -47.879593, -658.586426
1733469278.901408, -3.015946, -1.051803, 5.373337, -1.089357, 1.035599, 4.387625, -61.267181, -46.184265, -658.676147
1733469278.911413, -3.679888, -1.036540, 5.611410, -1.510130, 1.020195, 4.470527, -60.958069, -44.431900, -659.723145
1733469278.921406, -4.299388, -0.983418, 5.700594, -1.943389, 0.933079, 4.540365, -60.430084, -42.317841, -659.836731
1733469278.931398, -4.967370, -1.078139, 5.498284, -2.385815, 0.837223, 4.584155, -60.575867, -40.080948, -659.796387
1733469278.941460, -5.663035, -1.068712, 5.107880, -2.821809, 0.737800, 4.590393, -59.881683, -37.695389, -660.131104
1733469278.951404, -6.341193, -0.651372, 4.551078, -3.230607, 0.623427, 4.560213, -59.159607, -34.978058, -660.094360
1733469278.961394, -7.022792, 0.152780, 3.965097, -3.579556, 0.507515, 4.537019, -58.442993, -32.060822, -659.794617
1733469278.971402, -7.811681, 1.068412, 3.526958, -3.868994, 0.403469, 4.579478, -57.626114, -29.335114, -659.248779
1733469278.981306, -9.194333, 1.626112, 3.258508, -4.156614, 0.261154, 4.613939, -56.559784, -26.532684, -658.925415
1733469278.991413, -11.323826, 1.744924, 3.211073, -4.482201, 0.061184, 4.547630, -56.035095, -23.501190, -658.109619
1733469279.001404, -13.566744, 1.676540, 3.114407, -4.901081, -0.176853, 4.316115, -55.268539, -20.548492, -657.210205
1733469279.011401, -15.682320, 1.937508, 2.585139, -5.427207, -0.410071, 3.929145, -54.329987, -17.279388, -655.998779
1733469279.021394, -17.682676, 2.664447, 1.351976, -6.006731, -0.523118, 3.441341, -53.258911, -14.212952, -654.433228
1733469279.031389, -19.637841, 3.501670, -0.572065, -6.545906, -0.485051, 2.874931, -52.614578, -11.156281, -652.476501
1733469279.041391, -21.578491, 4.554819, -2.995894, -6.971235, -0.341338, 2.227838, -51.843704, -8.228348, -650.214355
1733469279.051419, -23.163303, 5.578041, -5.947496, -7.186198, -0.208222, 1.493930, -51.261627, -5.469589, -647.739197
1733469279.061398, -24.083424, 6.352416, -8.861389, -7.109576, -0.096166, 0.740573, -50.845245, -2.944183, -645.130310
1733469279.071404, -24.360553, 7.220014, -11.094282, -6.811615, 0.044389, 0.022775, -50.509094, -1.126404, -642.255493
1733469279.081400, -24.241890, 8.568848, -12.283751, -6.427878, 0.163778, -0.600673, -50.669861, 0.405731, -639.727783
1733469279.090975, -23.882461, 10.164434, -12.800898, -6.064418, 0.224776, -1.097610, -50.978027, 1.649353, -637.395142
1733469279.101395, -23.416789, 11.542596, -13.122470, -5.789738, 0.275663, -1.497035, -51.404633, 2.576752, -634.605347
1733469279.111402, -23.091626, 12.570756, -13.548638, -5.561264, 0.255546, -1.820737, -52.108124, 3.242065, -632.754944
1733469279.121397, -23.114521, 13.024008, -14.559739, -5.281758, 0.241735, -2.140442, -53.120789, 3.541916, -630.518921
1733469279.131392, -23.426216, 13.116933, -15.945533, -4.908414, 0.292141, -2.531844, -54.325790, 3.739044, -628.507324
1733469279.141398, -23.242760, 13.102269, -17.322947, -4.475585, 0.438669, -2.958961, -55.784500, 3.896439, -626.943726
1733469279.151403, -22.392818, 12.918065, -18.295891, -4.097172, 0.680743, -3.404737, -57.181534, 3.256760, -625.385803
1733469279.161387, -21.243452, 12.929437, -18.852692, -3.830332, 0.996781, -3.871309, -59.015747, 2.753708, -623.914185
1733469279.171397, -19.774759, 13.560459, -19.168876, -3.606747, 1.301870, -4.332916, -60.708328, 1.565582, -623.015808
1733469279.181396, -17.884986, 14.512154, -19.395428, -3.339152, 1.524348, -4.724078, -62.536850, 0.365814, -622.442078
1733469279.191402, -15.724368, 15.577275, -19.601179, -3.008868, 1.590981, -4.998662, -64.660706, -0.749390, -621.621216
1733469279.201402, -13.473370, 16.407314, -20.105308, -2.619088, 1.531547, -5.140754, -66.625900, -2.354828, -621.154724
1733469279.211386, -11.490672, 17.196503, -20.869657, -2.166421, 1.422578, -5.161081, -68.505066, -3.832504, -621.445312
1733469279.221395, -10.013449, 17.733253, -21.500081, -1.665539, 1.222769, -5.127419, -70.286514, -5.558029, -621.205688
1733469279.231389, -8.808717, 17.931224, -22.439655, -1.133147, 1.024552, -5.066240, -71.870972, -7.353714, -621.652100
1733469279.241388, -7.677457, 17.954268, -23.514053, -0.562664, 0.954270, -4.945777, -73.360703, -9.247437, -621.639038
1733469279.251400, -6.472575, 17.738341, -24.251018, 0.032775, 1.041260, -4.724426, -74.565369, -11.021744, -621.553223
1733469279.261403, -5.444714, 17.363199, -24.445398, 0.640427, 1.283760, -4.400940, -75.767883, -12.664291, -623.100159
1733469279.271392, -4.903325, 16.896180, -23.946805, 1.240912, 1.645245, -4.042245, -76.924118, -14.620956, -624.384033
1733469279.281410, -4.614674, 16.393248, -22.744168, 1.765199, 2.091972, -3.705001, -77.948715, -16.334991, -625.901550
1733469279.291400, -4.477007, 15.741577, -20.945075, 2.164176, 2.551245, -3.446069, -78.679916, -18.205811, -628.081055
1733469279.301404, -4.337096, 15.152902, -18.850747, 2.450655, 2.910735, -3.283601, -79.410980, -20.167999, -629.856201
1733469279.311387, -3.965845, 14.676007, -16.842311, 2.700679, 3.102242, -3.189410, -79.535889, -21.824066, -631.788208
1733469279.321377, -3.439720, 14.265252, -15.014188, 2.959513, 3.086594, -3.135100, -79.807739, -23.952606, -633.884644
1733469279.331379, -2.861670, 13.896395, -13.477709, 3.250881, 2.890330, -3.086531, -79.872360, -26.140518, -635.380005
1733469279.341382, -2.260276, 13.527988, -12.227487, 3.873894, 2.366577, -2.934305, -79.952698, -28.235962, -637.332336
1733469279.351374, -1.577480, 12.914623, -11.201871, 4.101120, 2.195741, -2.817166, -79.727280, -30.489395, -637.922791
1733469279.361381, -1.001225, 12.265944, -10.172065, 4.240648, 2.130601, -2.652179, -79.565796, -32.552597, -640.302612
1733469279.371380, -0.518045, 11.717971, -9.111883, 4.295793, 2.222701, -2.433944, -79.099533, -34.683212, -641.110291
1733469279.381402, -0.115071, 11.119570, -8.154501, 4.252417, 2.449234, -2.175338, -78.573715, -37.105011, -642.530396
1733469279.391392, 0.209044, 10.468198, -7.097611, 4.125158, 2.752051, -1.882653, -78.245544, -38.962830, -643.615234
1733469279.401369, 0.537947, 9.754726, -6.029198, 3.946797, 3.085021, -1.562431, -77.290878, -41.205566, -644.884216
1733469279.411370, 0.761655, 9.051878, -5.009119, 3.753421, 3.410054, -1.241266, -76.469009, -42.761124, -646.119507
1733469279.421386, 0.853533, 8.279149, -4.196287, 3.585000, 3.686096, -0.950363, -75.413071, -44.563599, -647.379333
1733469279.431382, 0.932392, 7.550265, -3.484312, 3.472997, 3.837076, -0.670085, -74.243027, -46.302307, -648.958130
1733469279.441377, 1.226729, 6.977601, -2.657564, 3.430619, 3.824565, -0.382520, -73.170959, -47.560699, -650.064148
1733469279.451385, 1.644218, 6.421847, -1.798345, 3.441950, 3.665661, -0.087647, -71.859528, -48.992065, -650.473206
1733469279.461376, 2.089240, 5.808633, -0.949151, 3.480155, 3.385787, 0.216422, -70.660553, -50.307510, -652.222168
1733469279.471386, 2.407968, 5.201253, -0.045639, 3.506543, 3.055629, 0.512418, -69.527618, -51.607574, -652.674316
1733469279.481375, 2.565537, 4.523844, 0.768090, 3.482416, 2.744040, 0.793003, -68.588943, -52.585526, -653.205566
1733469279.491394, 2.508076, 3.940407, 1.455375, 3.379594, 2.563651, 1.066529, -67.714600, -53.445358, -653.449768
1733469279.501384, 2.259977, 3.522768, 1.962497, 3.176116, 2.564162, 1.324656, -67.141342, -54.265945, -653.970947
1733469279.511377, 1.948581, 3.021034, 2.398990, 2.861667, 2.682213, 1.558168, -66.258087, -54.984558, -654.276978
1733469279.521395, 1.699584, 2.461389, 2.852991, 2.480428, 2.803816, 1.762152, -65.445847, -55.324295, -654.622253
1733469279.531388, 1.512537, 1.950825, 3.342306, 2.121099, 2.806212, 1.985864, -64.742813, -55.896133, -654.904236
1733469279.541377, 1.436521, 1.567304, 3.847033, 1.843208, 2.710044, 2.239444, -64.017776, -56.042755, -655.668091
1733469279.551377, 1.402404, 1.275661, 4.117728, 1.660390, 2.466354, 2.497413, -63.099335, -56.117447, -655.553833
1733469279.561374, 1.273117, 0.985364, 4.493617, 1.551106, 2.060974, 2.755406, -62.815750, -55.990067, -656.476807
1733469279.571373, 1.148469, 0.558747, 5.167136, 1.447342, 1.575567, 2.964186, -62.743011, -55.804062, -656.543457
1733469279.581380, 0.799514, 0.048483, 5.733963, 1.263039, 1.112667, 3.093330, -62.706329, -55.364319, -656.359863
1733469279.591383, 0.321721, -0.393547, 6.214300, 0.959835, 0.776633, 3.127889, -62.847549, -54.941162, -656.358276
1733469279.601381, -0.063297, -0.729034, 6.300791, 0.551019, 0.622923, 3.132567, -63.184036, -54.347351, -656.561768
1733469279.611372, -0.269497, -0.953042, 5.993585, 0.114842, 0.587810, 3.177472, -62.937500, -53.550674, -656.780457
1733469279.621374, -0.240917, -0.976834, 5.443217, -0.253547, 0.635299, 3.361812, -62.938538, -52.504639, -656.748840
1733469279.631376, 0.119560, -0.599448, 4.678569, -0.510252, 0.687133, 3.711287, -62.882645, -51.294083, -656.805908
1733469279.641423, 0.488866, -0.194379, 4.088848, -0.667137, 0.694720, 4.161979, -62.852081, -49.849442, -657.068237
1733469279.651390, 0.338929, -0.102202, 3.688268, -0.794984, 0.741036, 4.612099, -62.842773, -48.182465, -656.682861
1733469279.661363, -0.574908, -0.101754, 3.609858, -0.989904, 0.827941, 4.947260, -62.712158, -46.293381, -657.925232
1733469279.671379, -1.933318, -0.193332, 4.104260, -1.296939, 0.883598, 5.108553, -62.831909, -44.255386, -658.152893
1733469279.681370, -3.304447, -0.480037, 4.828955, -1.676411, 0.753838, 5.144149, -62.746918, -42.152893, -658.288330
1733469279.691371, -4.388123, -0.536600, 5.765537, -2.074556, 0.418984, 5.173847, -62.188309, -39.886841, -658.495728
1733469279.701372, -5.220257, -0.249895, 6.560561, -2.465529, -0.009339, 5.205284, -61.979874, -37.367966, -658.439758
1733469279.711368, -6.214599, -0.035314, 6.684611, -2.847141, -0.366516, 5.217757, -61.712006, -34.909164, -658.369995
1733469279.721366, -7.297078, 0.190938, 6.061370, -3.209357, -0.569842, 5.232254, -61.442459, -32.023560, -657.541382
1733469279.731367, -8.227225, 0.845901, 4.970812, -3.521009, -0.650748, 5.225932, -61.053070, -28.984741, -657.151672
1733469279.741365, -9.280973, 1.689558, 3.954473, -3.791364, -0.674222, 5.213176, -60.708801, -25.888733, -656.349304
1733469279.751375, -10.475680, 2.686444, 3.333627, -4.034342, -0.715295, 5.232273, -59.603958, -22.973770, -654.610657
1733469279.761375, -12.063933, 3.733009, 2.992453, -4.324505, -0.661285, 5.157815, -59.017105, -19.954132, -654.757751
1733469279.771375, -14.571411, 4.009091, 2.944868, -4.839862, -0.510696, 4.839132, -58.066620, -16.671219, -653.170410
1733469279.781425, -17.224485, 3.657442, 3.200898, -5.632016, -0.379449, 4.325844, -57.059433, -13.506210, -651.711121
1733469279.791091, -19.422063, 3.742436, 3.122787, -6.486814, -0.196049, 3.669831, -55.615402, -10.435654, -650.024170
1733469279.801373, -21.256620, 4.338892, 1.580622, -7.113297, 0.095624, 2.904340, -54.755905, -7.572327, -647.941589
1733469279.811371, -22.651392, 5.146486, -1.342249, -7.381980, 0.412454, 2.115550, -53.758926, -4.675171, -644.806396
1733469279.821372, -23.191584, 6.124368, -4.282628, -7.328641, 0.571309, 1.359423, -52.911392, -2.373825, -642.582520
1733469279.831374, -23.259220, 7.426215, -6.338050, -7.045153, 0.490470, 0.691365, -52.515930, -0.132401, -639.569641
1733469279.841377, -22.977752, 8.958354, -7.652168, -6.701447, 0.265620, 0.170690, -52.088913, 1.392654, -636.920837
1733469279.851374, -22.591837, 10.377817, -8.543409, -6.445394, 0.019406, -0.276177, -52.039429, 2.522491, -633.384644
1733469279.861374, -22.529587, 11.716175, -9.316437, -6.246245, -0.146948, -0.640889, -51.903732, 3.645309, -631.743286
1733469279.871373, -22.482900, 12.525865, -10.344747, -6.077824, -0.161407, -0.956672, -52.423935, 4.597214, -628.809509
1733469279.881367, -22.901287, 13.066655, -11.528530, -6.015747, 0.033615, -1.384063, -53.585770, 5.115189, -626.398315
1733469279.891368, -23.788937, 13.844172, -12.644228, -6.044025, 0.306806, -1.919575, -54.294617, 5.376175, -623.832153
1733469279.901390, -23.801956, 14.488062, -13.770550, -6.033161, 0.528953, -2.463659, -55.387222, 5.144821, -621.143738
1733469279.911437, -22.954259, 15.430480, -15.023915, -5.857390, 0.618998, -2.931169, -56.442215, 4.639114, -618.719116
1733469279.921368, -21.800702, 16.760160, -16.519393, -5.481352, 0.569778, -3.246733, -57.974152, 4.020523, -616.472778
1733469279.931361, -20.578463, 18.099416, -18.360833, -4.889649, 0.503380, -3.476967, -59.489700, 3.241104, -614.807617
1733469279.941361, -19.701287, 19.074455, -20.652234, -4.096481, 0.518018, -3.612144, -60.720535, 2.203430, -613.319824
1733469279.951414, -18.539351, 19.015348, -23.019351, -3.221368, 0.685390, -3.628667, -62.449036, 1.044952, -611.480957
1733469279.961358, -17.257555, 18.700361, -24.662671, -2.417141, 0.995625, -3.605568, -64.127747, 0.082703, -611.378601
1733469279.971358, -16.201263, 18.420239, -25.172038, -1.721040, 1.341333, -3.577676, -65.674927, -0.979279, -611.506348
1733469279.981361, -15.246276, 17.825580, -24.886978, -1.065180, 1.626081, -3.583244, -67.294342, -2.378830, -611.886902
1733469279.991360, -14.503026, 17.239150, -24.061427, -0.428884, 1.800794, -3.617182, -68.991608, -3.844009, -612.435669
1733469280.001151, -13.739126, 16.782755, -22.866721, 0.151109, 1.876811, -3.680861, -70.400970, -5.034317, -613.193726
1733469280.011366, -12.973730, 16.278027, -21.405809, 0.615351, 1.932915, -3.756137, -71.780472, -6.481155, -614.548706
1733469280.021436, -12.314726, 16.051177, -19.890578, 0.958619, 2.045561, -3.812212, -73.255447, -7.829941, -615.961304
1733469280.031355, -11.628787, 15.922638, -18.619407, 1.215502, 2.229855, -3.877221, -74.889984, -9.283875, -617.159424
1733469280.041356, -10.898556, 15.499313, -17.569400, 1.431476, 2.445688, -3.962540, -76.003220, -11.316208, -618.685181
1733469280.051368, -10.109367, 15.129409, -16.592266, 1.646963, 2.637215, -4.041881, -77.124802, -12.980759, -619.719482
1733469280.061361, -9.152883, 14.958224, -15.604209, 1.882550, 2.777413, -4.067029, -78.285446, -15.110535, -622.097595
1733469280.071401, -8.123377, 15.030050, -14.670620, 2.154923, 2.873794, -4.072957, -79.182343, -16.865768, -624.281250
1733469280.081356, -7.343016, 15.103821, -13.801824, 2.443833, 2.923709, -4.099751, -80.127106, -19.013321, -625.764771
1733469280.091364, -6.587197, 15.085565, -12.877962, 2.728096, 2.910148, -4.102825, -80.437714, -21.300018, -628.095337
1733469280.101355, -5.618892, 15.065813, -11.833042, 3.014378, 2.836393, -4.081293, -81.183304, -23.546768, -629.763367
1733469280.111357, -4.798279, 14.992341, -10.910227, 3.302314, 2.739463, -4.040752, -81.220490, -26.135864, -631.551392
1733469280.121352, -3.954922, 14.829984, -10.056545, 3.572226, 2.608943, -3.944059, -81.641876, -28.408142, -633.664185
1733469280.131353, -2.943072, 14.659248, -9.134478, 3.826621, 2.418514, -3.787219, -81.630783, -30.952744, -635.040161
1733469280.141376, -1.941398, 14.370148, -8.213907, 4.050241, 2.219608, -3.586020, -81.579865, -33.424728, -636.020386
1733469280.151357, -0.984765, 13.877391, -7.446117, 4.231665, 2.065864, -3.331736, -81.393372, -35.943939, -636.759338
1733469280.161355, -0.014664, 13.230957, -6.814796, 4.353719, 2.023205, -3.020731, -80.937164, -38.326920, -638.248291
1733469280.171362, 0.808043, 12.529306, -6.259491, 4.397470, 2.112888, -2.661542, -81.049088, -40.552261, -639.382690
1733469280.181354, 1.474379, 11.889605, -5.767632, 4.380862, 2.306417, -2.257920, -80.263443, -42.552979, -640.441772
1733469280.191370, 1.977760, 11.381586, -5.206940, 4.332954, 2.573678, -1.829770, -79.676880, -44.413361, -641.221497
1733469280.201357, 2.314894, 10.869227, -4.569633, 4.256803, 2.865188, -1.384597, -78.843887, -46.237808, -642.342651
1733469280.210827, 2.673575, 10.223540, -3.826234, 4.142568, 3.151868, -0.932543, -77.963943, -47.652603, -643.513794
1733469280.221351, 2.975544, 9.520393, -3.017891, 4.013865, 3.358579, -0.488512, -77.254288, -49.059372, -644.286133
1733469280.231359, 3.229479, 8.745570, -2.114978, 3.935248, 3.362314, -0.039861, -76.244934, -50.389267, -645.124146
1733469280.241360, 3.578134, 8.044966, -0.837372, 3.889876, 3.181272, 0.382504, -75.322693, -51.437927, -645.998413
1733469280.251371, 3.697096, 7.278223, 0.441431, 3.817418, 2.875391, 0.745960, -74.673721, -52.400330, -646.451233
1733469280.261354, 3.691859, 6.458958, 1.525106, 3.697937, 2.549732, 1.063596, -74.219757, -52.800308, -647.415771
1733469280.271358, 3.646818, 5.527463, 2.219724, 3.538035, 2.293538, 1.361333, -73.823959, -53.417877, -647.929810
1733469280.281370, 3.429993, 4.749198, 2.621950, 3.345631, 2.133352, 1.648544, -73.210327, -53.759262, -647.944519
1733469280.291369, 3.069965, 4.220678, 2.929755, 3.136072, 2.039725, 1.953836, -72.827576, -53.869705, -648.557495
1733469280.301351, 2.828001, 3.658340, 3.285294, 2.907335, 2.016826, 2.260727, -72.505325, -53.974442, -648.770813
1733469280.311344, 2.507028, 2.988263, 3.457526, 2.668550, 2.068264, 2.573775, -71.852402, -53.712585, -649.273438
1733469280.321352, 2.060959, 2.538303, 3.373879, 2.442932, 2.217235, 2.904489, -71.852402, -53.712585, -649.273438
1733469280.331361, 1.531691, 2.264615, 3.341857, 2.242373, 2.315331, 3.208590, -71.737656, -53.350601, -649.784790
1733469280.341404, 0.823755, 1.813159, 3.846734, 2.036679, 2.281901, 3.449647, -71.456436, -52.946014, -650.364990
1733469280.351345, 0.121206, 1.270723, 4.824915, 1.802830, 2.040524, 3.625797, -71.060349, -52.296982, -650.742615
1733469280.361342, -0.518644, 0.848744, 6.185121, 1.537249, 1.628296, 3.773584, -70.915802, -51.716232, -650.728027
1733469280.371352, -1.010203, 0.404770, 7.271190, 1.250901, 1.155691, 3.897114, -70.693954, -50.517548, -651.226440
1733469280.381350, -1.548151, -0.190788, 7.805397, 0.936893, 0.753847, 4.034059, -70.816025, -49.632767, -651.610657
1733469280.391350, -1.968782, -0.812083, 7.721899, 0.600351, 0.454203, 4.182135, -70.517166, -48.313171, -651.649841
1733469280.401362, -2.488473, -1.150863, 7.387160, 0.253983, 0.322698, 4.335133, -70.803375, -46.764404, -651.471985
1733469280.411353, -3.075801, -1.029806, 6.810905, -0.101904, 0.347892, 4.493948, -70.751312, -45.148560, -651.840210
1733469280.421402, -3.772963, -0.885106, 6.363489, -0.494960, 0.509119, 4.628476, -70.712753, -43.341583, -651.670044
1733469280.431341, -4.640561, -1.032948, 6.126463, -0.960596, 0.746820, 4.724121, -70.281128, -41.446793, -652.225769
1733469280.441339, -5.513697, -1.058387, 6.094889, -1.471248, 0.949882, 4.776240, -70.025330, -39.319870, -652.495483
1733469280.451389, -6.245874, -1.070956, 6.183774, -1.967665, 1.036214, 4.819580, -69.402054, -36.999557, -652.885010
1733469280.461342, -6.766014, -1.257255, 6.170905, -2.412097, 0.990537, 4.843122, -68.883408, -34.328568, -652.461060
1733469280.471349, -7.457938, -1.328183, 5.875072, -2.785846, 0.843518, 4.813245, -67.960159, -31.667892, -652.950439
1733469280.481353, -8.476372, -1.180192, 5.346552, -3.083556, 0.617149, 4.721477, -67.215286, -28.884995, -652.959839
1733469280.491344, -9.588329, -0.735918, 4.690989, -3.299039, 0.353414, 4.586989, -66.189774, -26.277084, -652.502930
1733469280.501359, -10.802039, -0.202011, 4.154538, -3.464259, 0.068398, 4.417338, -65.498886, -23.625107, -652.097046
1733469280.511362, -12.275072, 0.299275, 3.687071, -3.623435, -0.172882, 4.140683, -64.390198, -20.913895, -651.183960
1733469280.521357, -14.127885, 0.852485, 2.961627, -3.795848, -0.360990, 3.797562, -63.695511, -18.187057, -650.462524
1733469280.531348, -15.577873, 1.322647, 2.043750, -3.956647, -0.521702, 3.467894, -62.637665, -15.698669, -649.367615
1733469280.541358, -16.575058, 1.339257, 1.041478, -4.085114, -0.570815, 3.143080, -61.953903, -13.409164, -648.004883
1733469280.551358, -17.807473, 1.419762, -0.037110, -4.229332, -0.428399, 2.768039, -61.262604, -11.127747, -646.592896
1733469280.561382, -19.160946, 1.892616, -0.750732, -4.463355, -0.185378, 2.339901, -60.395279, -9.114319, -644.995239
1733469280.571410, -20.165163, 2.370409, -0.715567, -4.836334, -0.002929, 1.884112, -59.657654, -7.133545, -643.575867
1733469280.581433, -20.640113, 3.091663, -0.174777, -5.320662, 0.028624, 1.458082, -58.840866, -5.328308, -641.777710
1733469280.591436, -20.882526, 4.410868, 0.029479, -5.769027, -0.037197, 1.079606, -58.327911, -3.500565, -639.770996
1733469280.601394, -21.104139, 5.589563, -0.914435, -6.077829, -0.100553, 0.679709, -58.049057, -1.858994, -637.859253
1733469280.611386, -21.800254, 6.479757, -2.778172, -6.238273, -0.128742, 0.193090, -57.922424, -0.451675, -635.157837
1733469280.620757, -22.693440, 7.455694, -4.863222, -6.234867, -0.096482, -0.279943, -57.691925, 0.640274, -632.573242
1733469280.631382, -22.677429, 9.351752, -8.597877, -6.128850, 0.016589, -0.645357, -57.917511, 1.473999, -630.410522
1733469280.641343, -22.461951, 10.369138, -9.914389, -5.991010, 0.138885, -0.915637, -58.146942, 2.153275, -627.591248
1733469280.651339, -22.415713, 10.995072, -11.251700, -5.816254, 0.260338, -1.142338, -58.449646, 2.405334, -625.401306
1733469280.661350, -22.788161, 11.507880, -12.613253, -5.591012, 0.451404, -1.420972, -58.972626, 2.662247, -622.854614
1733469280.671344, -23.130831, 12.250232, -13.666702, -5.305868, 0.650080, -1.771091, -59.812180, 2.498550, -620.781921
1733469280.681355, -22.839786, 12.882002, -14.653412, -4.978782, 0.847864, -2.122375, -60.653320, 2.092270, -618.836853
1733469280.691335, -22.181081, 13.376554, -15.660473, -4.646367, 1.035189, -2.472086, -61.542297, 1.488754, -617.470581
1733469280.701345, -21.314380, 13.708451, -16.889896, -4.261055, 1.203180, -2.815405, -62.864197, 0.778229, -616.152771
1733469280.711340, -20.010737, 13.772944, -18.007689, -3.733544, 1.334505, -3.094014, -64.030121, -0.063660, -615.345093
1733469280.721343, -18.643798, 13.862428, -18.466627, -3.121834, 1.393289, -3.274747, -65.244537, -1.129486, -614.826294
1733469280.731336, -17.608605, 14.035558, -18.477850, -2.529501, 1.397837, -3.379282, -66.733047, -2.370483, -614.311035
1733469280.741333, -16.941521, 14.049624, -18.380137, -1.981072, 1.419208, -3.461408, -67.904907, -3.505600, -614.312866
1733469280.751337, -16.353744, 14.050971, -18.229451, -1.509796, 1.493096, -3.546084, -69.196823, -4.859787, -614.027100
1733469280.761353, -15.632940, 13.921235, -18.018911, -1.115744, 1.604294, -3.653996, -70.696655, -6.158340, -614.879395
1733469280.771333, -14.790779, 13.613880, -17.742830, -0.744591, 1.692042, -3.805043, -72.257431, -7.574112, -615.097778
1733469280.781352, -13.887267, 13.265374, -17.436671, -0.361018, 1.701097, -3.999835, -73.666214, -9.189209, -616.131897
1733469280.791353, -13.029694, 13.320141, -17.022175, 0.011742, 1.670424, -4.220629, -74.976547, -10.819382, -616.930969
1733469280.801343, -12.008567, 13.696180, -16.555755, 0.356424, 1.642245, -4.408793, -76.301971, -12.633896, -617.308350
1733469280.811333, -10.911724, 14.103494, -16.167146, 0.662504, 1.636785, -4.523014, -77.489777, -14.451050, -618.398376
1733469280.821332, -9.795278, 14.425813, -15.884481, 0.935468, 1.691480, -4.547565, -78.462143, -16.732651, -619.588501
1733469280.831342, -8.629900, 14.543129, -15.758486, 1.188844, 1.823874, -4.479163, -79.623840, -18.672211, -620.840698
1733469280.841341, -7.609371, 14.343662, -15.608549, 1.461856, 2.016249, -4.329961, -80.581619, -20.645798, -621.875488
1733469280.851331, -6.804022, 14.026879, -15.204677, 1.754459, 2.229662, -4.162553, -81.485123, -23.035629, -623.365356
1733469280.861331, -6.049549, 13.683012, -14.446463, 2.041222, 2.384333, -4.008803, -81.935318, -24.931274, -625.077393
1733469280.871331, -5.369296, 13.347824, -13.620314, 2.330364, 2.439554, -3.877933, -82.736252, -27.151306, -626.569153
1733469280.881331, -4.829703, 12.979865, -12.910882, 2.643871, 2.414808, -3.793798, -82.958740, -29.316849, -628.161194
1733469280.891327, -4.094983, 12.675652, -12.204892, 2.985143, 2.345517, -3.710389, -82.898773, -31.555328, -629.552551
1733469280.901328, -3.182642, 12.348544, -11.313052, 3.303358, 2.244073, -3.589562, -83.306366, -33.781250, -631.121582
1733469280.911335, -2.243068, 11.752388, -10.273070, 3.569545, 2.105712, -3.410070, -83.009644, -36.281967, -632.392029
1733469280.921329, -1.536928, 11.102512, -9.328109, 3.780387, 1.948892, -3.198185, -82.845749, -38.386749, -633.866699
1733469280.931324, -0.952144, 10.406996, -8.504504, 3.950211, 1.818201, -2.980676, -82.652588, -40.720001, -634.279480
1733469280.941326, -0.424672, 9.705196, -7.763648, 4.075393, 1.727457, -2.753018, -82.588654, -42.666443, -635.372375
1733469280.951325, 0.049380, 9.065046, -7.074716, 4.149799, 1.703684, -2.514031, -82.097626, -44.906570, -634.948486
1733469280.961327, 0.488866, 8.570943, -6.473622, 4.158006, 1.795150, -2.253470, -81.664948, -46.816711, -636.385986
1733469280.971326, 0.920870, 8.120384, -5.739350, 4.112075, 1.956096, -1.969007, -81.081207, -48.526917, -636.750366
1733469280.981327, 1.359308, 7.623288, -4.903325, 4.017508, 2.143764, -1.668887, -80.624466, -50.236420, -637.532043
1733469280.991329, 1.751658, 7.011420, -4.048445, 3.874975, 2.303156, -1.370963, -80.377075, -51.607971, -637.836914
1733469281.001334, 2.126350, 6.394314, -3.441964, 3.725912, 2.416140, -1.072161, -79.627396, -52.826874, -638.652954
1733469281.011333, 2.520795, 5.818060, -3.172616, 3.591850, 2.566345, -0.760480, -79.000198, -54.245453, -639.549133
1733469281.021334, 2.796128, 5.453393, -2.816778, 3.497025, 2.740926, -0.419729, -78.239441, -55.266556, -639.976685
1733469281.031322, 2.878429, 5.152771, -2.268057, 3.442170, 2.874295, -0.070348, -77.419907, -56.216263, -640.472168
1733469281.041334, 2.898929, 4.736928, -1.754501, 3.413793, 2.960062, 0.282753, -76.942307, -56.895554, -641.219055
1733469281.051319, 2.934693, 4.197335, -1.249474, 3.407047, 2.979225, 0.625700, -76.312042, -57.574615, -641.345520
1733469281.061330, 2.748244, 3.867534, -0.679355, 3.413149, 2.938354, 0.944760, -75.655319, -57.987289, -642.375183
1733469281.071389, 2.408417, 3.678691, -0.129586, 3.414183, 2.924452, 1.243115, -75.200897, -58.399277, -643.093689
1733469281.081331, 2.119467, 3.290082, 0.829591, 3.381021, 2.899317, 1.532790, -74.817719, -58.851395, -643.446533
1733469281.091336, 1.823185, 2.762460, 2.125901, 3.299709, 2.811288, 1.802546, -74.298737, -58.962936, -643.710632
1733469281.101317, 1.394174, 2.357241, 3.361758, 3.148035, 2.663261, 2.055460, -73.811737, -58.893555, -644.550659
1733469281.111322, 0.916231, 1.923891, 4.559907, 2.926298, 2.492794, 2.291074, -73.916290, -58.724731, -644.760620
1733469281.121378, 0.507870, 1.233612, 5.685780, 2.642624, 2.239961, 2.480016, -73.570251, -58.359787, -644.862305
1733469281.131318, 0.130634, 0.696114, 6.419752, 2.308304, 1.937928, 2.628152, -73.434692, -57.961014, -645.003601
1733469281.141319, -0.163704, 0.262464, 6.825121, 1.936721, 1.663521, 2.749068, -73.607971, -57.421524, -645.129456
1733469281.151318, -0.454300, -0.102202, 6.902633, 1.528327, 1.474620, 2.861565, -73.393021, -56.672394, -644.879272
1733469281.161326, -0.584634, -0.339977, 6.775591, 1.099668, 1.353941, 3.004994, -73.231705, -55.823288, -645.651611
1733469281.171369, -0.606332, -0.382025, 6.430975, 0.730197, 1.258358, 3.244496, -73.118927, -54.566422, -646.255127
1733469281.181325, -0.912340, -0.538995, 5.922806, 0.470600, 1.191520, 3.567909, -73.597397, -52.922470, -646.157593
1733469281.191317, -1.559972, -0.874183, 5.626972, 0.255180, 1.211353, 3.886316, -73.489639, -51.519043, -646.999512
1733469281.201336, -2.341080, -1.166126, 5.737405, 0.004767, 1.276672, 4.172765, -73.592651, -49.538879, -647.232788
1733469281.211368, -3.281104, -1.475277, 6.082918, -0.313597, 1.370213, 4.393268, -73.362976, -48.154419, -648.202271
1733469281.221313, -4.134637, -1.715745, 6.632238, -0.714733, 1.455232, 4.518475, -73.102921, -45.892334, -648.857300
1733469281.231316, -4.959439, -1.817947, 7.187094, -1.192768, 1.446549, 4.550508, -72.851028, -43.624039, -649.370483
1733469281.241313, -5.653907, -1.671153, 7.399280, -1.670496, 1.313366, 4.555787, -72.493790, -41.384476, -649.950989
1733469281.251334, -6.250812, -1.449240, 7.211934, -2.082704, 1.140610, 4.576581, -71.710815, -38.758560, -649.620239
1733469281.261330, -6.881684, -1.218050, 6.897396, -2.462238, 0.990344, 4.592590, -71.317627, -35.983582, -650.289856
1733469281.271324, -7.511060, -0.861164, 6.713940, -2.822760, 0.798047, 4.606565, -70.521820, -33.231583, -650.849915
1733469281.281328, -8.196250, -0.495001, 6.367978, -3.161738, 0.587972, 4.625925, -69.885468, -30.312576, -650.077515
1733469281.291345, -9.166201, -0.290297, 5.747431, -3.503123, 0.422367, 4.645473, -68.923721, -27.366882, -649.831055
1733469281.301325, -10.697592, -0.258873, 5.133468, -3.839453, 0.329494, 4.634061, -67.711395, -24.526108, -649.215759
1733469281.311323, -12.767978, -0.248398, 4.625897, -4.198705, 0.357859, 4.532772, -66.699219, -21.194534, -648.409180
1733469281.321323, -14.971691, -0.115670, 4.292205, -4.621422, 0.449331, 4.320086, -65.627533, -18.283829, -647.666504
1733469281.331325, -17.194109, 0.681300, 4.057424, -5.085304, 0.477939, 3.980198, -64.506439, -15.286758, -646.660828
1733469281.341326, -19.153464, 1.721281, 3.394230, -5.515283, 0.379304, 3.543660, -63.335724, -12.280136, -644.745544
1733469281.351315, -20.941783, 2.307113, 1.990928, -5.865917, 0.196801, 3.050273, -62.395355, -10.056732, -642.847900
1733469281.361321, -23.088633, 2.591125, 0.277578, -6.138646, -0.027224, 2.413206, -61.477509, -7.692291, -641.514648
1733469281.371327, -24.881292, 3.150171, -1.719635, -6.343566, -0.230884, 1.641925, -61.204819, -5.570251, -639.028870
1733469281.381326, -25.895835, 3.950133, -3.851223, -6.457872, -0.368444, 0.836604, -61.033127, -4.105576, -636.451050
1733469281.391326, -26.381858, 5.190629, -5.762245, -6.468385, -0.470924, 0.070953, -61.029282, -2.871490, -633.791626
1733469281.401329, -26.222194, 6.611289, -7.597700, -6.363462, -0.556648, -0.621039, -61.322662, -2.037598, -631.261108
1733469281.411324, -25.672276, 8.413823, -9.129390, -6.173104, -0.670579, -1.183377, -61.880539, -1.541382, -628.903137
1733469281.421315, -24.958804, 10.049362, -10.453384, -5.910269, -0.840850, -1.573003, -62.458954, -1.204803, -626.278625
1733469281.431319, -24.340950, 11.186159, -11.986870, -5.617540, -0.899289, -1.829203, -63.375671, -1.162598, -623.829102
1733469281.441312, -23.801357, 12.215367, -13.440001, -5.422100, -0.713173, -2.013021, -64.062866, -1.474457, -621.510437
1733469281.451316, -23.249194, 12.782194, -14.854824, -5.316111, -0.330868, -2.164102, -64.959595, -2.029083, -619.132996
1733469281.461314, -22.657827, 13.210606, -16.428413, -5.151317, 0.136079, -2.280186, -66.135391, -2.544388, -618.189941
1733469281.471325, -21.924453, 13.484742, -17.893964, -4.835264, 0.569425, -2.410355, -67.054611, -3.213486, -616.862793
1733469281.481319, -20.974104, 13.209110, -19.192220, -4.325587, 0.870273, -2.537262, -68.172714, -4.286972, -615.577820
1733469281.491318, -20.009540, 12.452841, -20.035128, -3.638348, 1.064582, -2.646473, -69.381393, -5.104492, -615.488708
1733469281.501326, -19.164387, 11.765107, -20.038420, -2.924720, 1.186982, -2.800406, -70.449005, -6.180038, -615.577454
1733469281.511321, -18.409316, 11.431565, -19.480571, -2.305525, 1.293162, -2.977117, -71.771469, -7.516861, -615.617188
1733469281.521326, -17.859098, 11.458500, -18.791041, -1.829456, 1.469992, -3.189788, -72.922241, -8.683258, -615.774048
1733469281.531311, -17.213113, 11.620557, -17.994670, -1.491205, 1.696513, -3.452857, -74.247284, -10.190338, -616.573608
1733469281.541319, -16.192435, 12.038495, -17.284490, -1.211166, 1.873638, -3.719217, -75.610062, -11.839798, -616.992432
1733469281.551311, -14.898668, 12.334179, -16.891841, -0.899871, 1.953543, -3.956937, -76.803604, -13.702835, -617.385559
1733469281.561314, -13.420847, 12.332533, -16.711677, -0.527554, 1.968859, -4.146852, -77.952682, -15.574036, -618.951233
1733469281.571325, -11.998841, 12.307244, -16.492159, -0.134779, 1.961745, -4.294747, -79.215469, -17.215332, -619.794189
1733469281.581309, -10.690559, 12.350938, -16.147394, 0.243439, 1.959138, -4.394063, -79.898712, -19.230362, -620.876282
1733469281.591304, -9.336638, 12.482919, -15.703569, 0.592812, 1.991462, -4.412874, -80.743164, -21.238052, -622.113770
1733469281.601322, -8.104522, 12.674904, -15.208867, 0.908303, 2.072385, -4.339262, -81.387482, -23.559875, -623.738342
1733469281.611312, -6.903082, 12.668020, -14.694263, 1.188946, 2.179873, -4.164715, -81.741898, -25.549332, -624.797424
1733469281.621304, -5.942259, 12.391340, -14.223952, 1.452915, 2.309170, -3.961886, -82.421509, -27.610657, -626.236633
1733469281.631305, -5.208885, 12.040889, -13.647398, 1.712561, 2.417963, -3.763016, -82.797287, -29.615036, -627.550415
1733469281.641308, -4.484639, 11.611280, -13.072640, 1.980734, 2.482989, -3.571066, -83.193130, -31.705261, -629.418701
1733469281.651315, -3.889530, 11.163115, -12.487408, 2.260139, 2.521899, -3.383641, -82.905960, -33.792007, -630.163330
1733469281.661303, -3.374178, 10.721534, -11.786206, 2.535719, 2.529098, -3.206309, -82.844498, -35.558258, -632.068115
1733469281.671302, -2.820370, 10.319757, -11.042806, 2.778265, 2.545143, -3.037707, -82.557465, -37.583466, -633.658691
1733469281.681303, -2.098368, 9.929652, -10.242694, 2.967030, 2.571647, -2.840582, -82.234116, -39.364883, -634.557739
1733469281.691299, -1.352275, 9.494955, -9.547029, 3.099893, 2.621435, -2.590502, -81.839798, -41.136261, -635.902466
1733469281.701302, -0.806846, 9.029432, -8.929624, 3.201829, 2.696459, -2.306355, -81.353363, -42.798599, -637.509033
1733469281.711301, -0.397138, 8.561665, -8.378958, 3.305186, 2.790892, -2.019591, -81.086380, -44.460403, -638.106079
1733469281.720429, -0.052972, 8.111555, -7.865551, 3.427502, 2.880451, -1.727561, -81.086380, -44.460403, -638.106079
1733469281.731300, 0.304064, 7.623737, -7.289746, 3.572267, 2.955637, -1.440163, -79.255402, -47.760086, -641.155029
1733469281.741301, 0.631171, 7.084143, -6.552182, 3.706446, 3.021235, -1.168262, -78.530243, -49.059937, -641.960022
1733469281.751305, 0.943764, 6.654085, -5.630863, 3.796293, 3.070578, -0.903627, -77.992661, -50.547989, -642.463501
1733469281.761318, 1.251569, 6.226271, -4.683807, 3.830112, 3.081267, -0.656000, -76.923416, -51.587082, -643.606689
1733469281.771306, 1.500566, 5.822848, -3.744980, 3.815314, 2.993778, -0.163503, -76.923416, -51.587082, -643.606689
1733469281.781313, 1.723526, 5.372589, -2.966715, 3.815314, 2.993778, -0.163503, -76.364929, -52.804184, -644.468567
1733469281.791318, 1.833061, 4.917391, -2.273893, 3.779010, 2.969917, 0.083509, -75.517487, -53.775925, -645.049133
1733469281.801308, 1.956811, 4.489427, -1.644966, 3.615706, 2.963586, 0.609880, -74.066101, -55.725204, -646.000549
1733469281.811299, 2.049437, 4.091990, -1.028459, 3.500224, 2.994406, 0.902208, -74.066101, -55.725204, -646.000549
1733469281.821297, 1.956512, 3.809923, -0.336685, 3.364832, 3.031277, 1.183994, -73.496933, -56.289490, -646.682922
1733469281.831296, 1.888427, 3.428946, 0.481833, 3.192958, 3.012055, 1.449196, -72.671921, -56.955780, -647.330933
1733469281.841296, 1.889474, 2.810045, 1.500117, 2.947333, 2.912417, 1.701304, -71.878830, -57.514633, -647.871582
1733469281.851297, 1.816301, 2.182315, 2.503886, 2.636349, 2.743516, 1.923429, -71.207840, -57.778534, -648.389771
1733469281.861298, 1.642273, 1.608305, 3.362656, 2.303275, 2.551344, 2.110358, -70.788376, -58.136444, -648.299255
1733469281.871300, 1.443404, 1.083526, 3.863493, 1.980744, 2.374369, 2.296526, -70.411209, -57.701431, -649.236755
1733469281.881295, 1.328632, 0.624587, 4.020164, 1.696562, 2.191290, 2.509659, -69.932709, -57.589798, -649.693604
1733469281.891295, 1.219995, 0.307356, 4.265420, 1.442185, 1.991093, 2.739117, -69.543823, -57.320389, -649.914673
1733469281.901294, 0.985513, -0.037559, 4.645649, 1.167780, 1.789769, 2.937238, -69.539230, -56.852051, -650.206055
1733469281.911309, 0.709432, -0.536600, 4.945224, 0.850830, 1.586688, 3.085915, -69.300461, -56.086456, -650.911743
1733469281.921296, 0.454599, -0.980126, 5.120449, 0.505788, 1.436608, 3.219721, -69.557327, -55.327576, -651.188477
1733469281.931297, 0.340575, -1.186327, 5.007473, 0.166723, 1.329690, 3.389705, -69.342957, -54.253616, -651.339233
1733469281.941293, 0.288501, -1.076792, 4.782867, -0.125805, 1.220976, 3.618303, -69.124588, -53.142929, -651.673950
1733469281.951301, 0.181959, -0.877176, 4.572027, -0.344293, 1.054222, 3.893786, -69.125961, -51.687851, -651.964417
1733469281.961289, -0.150087, -0.732476, 4.540304, -0.499624, 0.844159, 4.176520, -69.068771, -50.197754, -652.229980
1733469281.971292, -0.816273, -0.603040, 4.698770, -0.646322, 0.638797, 4.435424, -69.309937, -48.553055, -652.838806
1733469281.981309, -1.673697, -0.476446, 5.096806, -0.849319, 0.455996, 4.648782, -69.118271, -46.719482, -653.711487
1733469281.991290, -2.681655, -0.378134, 5.714810, -1.131006, 0.266582, 4.803936, -69.221436, -44.737915, -652.934570
1733469282.001317, -3.639486, -0.248548, 6.242881, -1.450776, 0.068669, 4.986502, -68.969147, -42.478592, -653.635315
1733469282.011294, -4.351611, -0.115371, 6.527192, -1.779674, -0.116353, 5.190420, -68.938034, -40.043228, -653.343994
1733469282.021292, -5.218163, -0.291943, 6.535722, -2.114260, -0.237876, 5.335503, -68.873077, -37.532257, -653.025391
1733469282.031293, -6.662315, -0.181211, 6.435764, -2.487017, -0.232159, 5.427705, -68.185196, -35.078613, -653.397217
1733469282.041290, -8.164826, 0.208445, 6.347627, -2.925407, -0.148845, 5.471376, -67.747620, -32.173279, -652.944458
1733469282.051283, -9.853935, 0.611419, 6.353164, -3.443889, -0.036452, 5.411508, -67.349991, -29.001816, -652.533325
1733469282.061298, -11.770793, 1.190816, 6.401796, -4.012148, 0.006771, 5.255150, -66.454712, -25.772247, -652.099854
1733469282.071288, -13.680917, 1.982998, 6.258593, -4.538868, -0.032347, 5.045799, -65.172028, -22.818863, -651.099304
1733469282.081293, -15.714193, 2.843563, 5.743989, -5.017181, -0.075243, 4.748050, -64.412811, -19.464188, -650.689209
1733469282.091288, -17.779790, 3.189974, 4.872799, -5.508176, -0.169422, 4.338903, -63.008255, -16.222763, -649.167297
1733469282.101289, -19.780445, 3.225887, 3.776404, -5.966529, -0.278162, 3.774531, -61.914124, -13.136261, -647.187256
1733469282.111296, -21.950490, 3.490896, 1.736694, -6.284832, -0.228902, 3.061077, -61.280411, -9.922195, -645.458435
1733469282.121288, -23.749583, 3.571550, -0.990900, -6.425488, -0.030418, 2.258944, -60.064056, -7.347565, -643.437134
1733469282.131287, -24.740483, 3.670461, -3.380313, -6.443141, 0.065957, 1.502913, -59.381790, -5.348328, -641.270874
1733469282.141288, -24.974366, 5.056853, -4.677522, -6.385706, -0.114552, 0.856925, -58.604355, -3.365509, -638.665894
1733469282.151287, -24.877551, 6.519261, -5.430349, -6.252556, -0.458802, 0.303335, -58.164352, -1.679367, -636.276367
1733469282.161345, -25.018210, 7.832780, -6.436362, -6.075169, -0.753355, -0.186623, -58.183914, -0.222733, -633.222351
1733469282.170627, -25.493609, 9.050830, -7.887997, -5.931597, -0.925538, -0.679104, -58.349976, 0.638489, -630.870178
1733469282.181296, -25.974993, 9.666888, -9.418191, -5.845263, -0.976843, -1.154057, -58.727921, 1.184341, -628.295410
1733469282.191293, -26.225337, 10.291775, -10.926987, -5.755674, -0.776251, -1.566950, -59.062302, 1.606125, -625.715698
1733469282.201283, -26.174909, 10.996568, -12.777705, -5.642973, -0.401020, -1.908264, -60.144272, 1.562897, -622.721130
1733469282.211297, -25.981876, 11.914595, -14.182951, -5.516730, 0.045172, -2.233093, -60.697388, 1.534210, -620.578979
1733469282.221281, -25.551668, 12.698696, -15.414319, -5.323790, 0.499300, -2.571284, -61.955017, 0.867905, -618.651550
1733469282.231290, -24.866029, 13.425037, -16.762105, -4.994424, 0.868203, -2.894973, -63.127060, 0.300751, -616.825684
1733469282.241282, -23.766492, 14.075960, -18.055573, -4.469203, 1.110203, -3.150822, -64.202698, -0.760803, -615.711914
1733469282.251294, -22.352117, 14.344560, -19.332131, -3.746332, 1.274838, -3.354520, -65.726318, -1.846237, -614.593689
1733469282.261299, -20.955998, 14.402619, -20.393211, -2.910866, 1.402029, -3.490909, -67.137100, -3.043884, -613.850952
1733469282.271290, -19.482517, 14.238018, -20.692187, -2.111405, 1.472668, -3.587023, -68.365860, -4.520233, -613.821228
1733469282.281291, -18.251149, 13.920786, -20.162620, -1.446476, 1.575070, -3.691209, -70.018112, -5.666763, -613.585449
1733469282.291286, -17.321899, 13.690045, -19.229031, -0.961165, 1.701221, -3.845499, -71.548431, -7.060287, -614.218384
1733469282.301278, -16.346412, 13.501352, -17.872266, -0.640094, 1.761352, -4.038917, -73.291763, -8.663208, -614.896667
1733469282.311321, -15.097536, 13.260436, -16.441731, -0.410862, 1.782652, -4.231586, -74.733963, -10.175888, -615.427734
1733469282.321282, -13.805266, 13.286622, -15.430929, -0.219050, 1.791936, -4.400699, -76.035553, -12.097595, -616.287048
1733469282.331278, -12.433239, 13.455862, -14.854076, -0.016597, 1.772657, -4.538327, -77.580673, -14.060898, -617.271484
1733469282.341275, -11.037270, 13.480253, -14.655208, 0.230072, 1.773760, -4.604267, -78.650681, -15.942825, -618.109314
1733469282.351345, -9.624691, 13.681965, -14.690372, 0.500135, 1.813658, -4.586448, -79.864746, -18.007462, -618.380554
1733469282.361277, -8.242787, 13.854946, -14.706384, 0.788866, 1.878616, -4.486000, -80.706558, -20.099609, -620.360107
1733469282.371279, -6.944083, 13.718626, -14.681693, 1.104295, 1.974766, -4.280620, -81.549042, -22.229614, -621.685730
1733469282.381278, -5.610363, 13.539061, -14.606575, 1.448048, 2.144743, -4.002334, -82.249649, -24.058838, -622.567261
1733469282.391327, -4.708646, 13.248016, -14.386010, 1.769132, 2.352137, -3.752372, -83.069397, -26.206757, -624.034180
1733469282.401274, -4.131045, 12.758252, -13.688399, 2.025256, 2.488050, -3.554564, -83.412399, -28.239288, -625.426514
1733469282.411276, -3.556138, 12.238111, -12.573898, 2.237187, 2.566231, -3.390319, -83.853516, -30.100693, -626.735168
1733469282.421278, -2.996942, 11.783662, -11.596016, 2.414819, 2.590492, -3.236020, -83.650467, -32.037766, -628.565063
1733469282.431333, -2.359635, 11.310358, -10.700286, 2.558049, 2.562506, -3.052051, -83.483871, -34.176361, -629.854309
1733469282.441274, -1.552041, 10.649110, -9.896582, 2.682432, 2.502257, -2.834599, -83.742340, -35.801300, -631.867493
1733469282.451268, -0.750881, 9.921123, -9.285462, 2.799413, 2.431211, -2.572323, -83.222137, -37.918655, -632.019409
1733469282.461275, -0.059107, 9.325116, -8.870218, 2.936708, 2.403282, -2.249357, -82.867188, -39.308594, -633.850037
1733469282.471270, 0.444274, 8.937555, -8.501810, 3.061753, 2.409986, -1.876690, -82.741577, -40.914642, -634.875610
1733469282.481279, 0.842160, 8.583213, -7.971794, 3.135360, 2.431019, -1.467960, -82.105042, -42.213562, -636.189331
1733469282.491274, 1.213711, 7.941567, -7.377583, 3.155064, 2.469776, -1.075986, -81.923141, -43.473969, -637.002686
1733469282.501295, 1.364545, 7.151929, -6.893056, 3.148426, 2.511968, -0.710220, -81.438522, -44.518707, -638.343262
1733469282.511271, 1.362450, 6.459556, -6.484396, 3.157493, 2.546690, -0.378073, -80.590500, -45.626038, -639.181335
1733469282.521278, 1.245583, 5.858163, -6.138883, 3.196000, 2.549152, -0.088280, -80.099823, -46.506073, -640.291077
1733469282.531277, 0.999729, 5.384260, -5.709572, 3.259328, 2.511768, 0.166048, -79.780930, -47.318008, -641.010620
1733469282.541290, 0.896030, 4.825214, -5.172523, 3.348924, 2.412915, 0.416415, -79.172623, -48.106461, -641.820435
1733469282.551279, 0.771531, 4.360290, -4.590732, 3.458943, 2.283987, 0.682459, -78.522842, -48.833801, -641.751404
1733469282.561282, 0.580594, 4.075231, -4.137330, 3.586828, 2.185111, 0.942568, -77.924072, -49.375626, -643.468384
1733469282.571342, 0.329203, 3.853617, -3.814263, 3.711737, 2.082192, 1.143416, -77.556229, -49.908966, -643.463623
1733469282.581276, -0.030975, 3.421613, -3.437026, 3.826156, 1.952582, 1.291358, -77.321609, -50.434570, -644.100525
1733469282.591264, -0.240617, 2.814085, -3.056498, 3.945483, 1.764300, 1.414167, -77.138550, -51.074158, -644.479553
1733469282.601267, -0.391153, 2.322076, -2.661454, 4.071041, 1.583423, 1.503732, -76.598694, -51.642517, -644.614197
1733469282.611325, -0.682048, 1.846229, -2.145803, 4.152675, 1.444911, 1.553323, -76.483932, -52.333206, -644.955688
1733469282.621270, -1.112406, 1.417517, -1.326687, 4.141484, 1.318462, 1.585874, -76.219254, -52.614914, -644.712402
1733469282.631271, -1.538424, 1.101782, -0.064494, 4.023503, 1.178010, 1.614035, -76.052231, -53.058426, -644.663513
1733469282.641317, -1.953968, 0.842759, 1.327585, 3.803669, 1.020699, 1.619834, -76.124191, -53.540298, -644.364014
1733469282.651269, -2.239626, 0.433500, 2.502240, 3.494112, 0.892814, 1.623700, -75.861099, -53.844498, -643.625061
1733469282.661272, -2.191742, -0.167444, 3.156156, 3.131613, 0.805594, 1.657570, -75.734390, -54.155090, -644.305542
1733469282.671273, -2.114679, -0.497096, 3.556736, 2.752041, 0.824308, 1.739608, -75.750626, -54.052399, -643.580933
1733469282.681297, -1.872715, -0.439037, 3.864541, 2.353621, 0.907740, 1.884459, -75.875488, -53.979446, -644.239136
1733469282.691272, -1.495329, -0.378433, 4.242076, 1.929173, 0.978310, 2.091592, -75.878586, -53.658051, -643.978271
1733469282.701329, -1.115997, -0.562039, 4.465036, 1.546548, 1.027223, 2.376551, -75.653625, -53.137390, -644.644043
1733469282.711265, -0.935983, -0.778864, 4.336198, 1.260511, 1.121451, 2.689512, -75.748154, -52.306259, -644.456665
1733469282.721268, -1.213860, -0.974290, 3.980809, 1.037126, 1.281356, 2.982723, -75.443619, -51.430420, -645.151978
1733469282.731312, -1.660977, -1.277007, 3.822044, 0.800398, 1.445757, 3.219638, -75.529694, -50.153351, -645.528564
1733469282.741261, -2.189647, -1.498920, 4.103213, 0.508573, 1.569047, 3.373537, -75.572952, -48.976547, -645.935791
1733469282.751282, -2.612822, -1.589301, 4.537611, 0.164130, 1.642279, 3.462405, -75.362656, -47.665329, -646.075623
1733469282.761280, -2.766350, -1.594987, 4.934300, -0.208110, 1.624410, 3.530007, -75.024292, -46.301254, -647.164978
1733469282.771273, -2.722507, -1.520917, 5.285649, -0.538469, 1.483125, 3.661964, -74.694641, -44.270691, -648.097351
1733469282.781275, -2.654122, -1.278653, 5.504270, -0.792920, 1.313031, 3.868379, -74.241470, -42.483765, -648.604370
1733469282.791280, -2.774880, -1.222390, 5.419126, -1.012837, 1.157200, 4.070827, -73.761566, -40.540192, -649.376343
1733469282.801264, -3.334674, -1.483507, 5.252729, -1.241999, 1.029438, 4.221989, -73.315826, -38.466171, -649.343872
1733469282.811316, -4.146458, -1.586458, 5.172822, -1.498172, 0.948027, 4.345213, -72.934052, -36.307465, -649.788208
1733469282.821272, -4.976797, -1.344045, 5.222352, -1.799619, 0.921614, 4.388525, -72.270401, -34.046143, -650.175842
1733469282.831259, -5.962909, -1.088314, 5.336227, -2.122674, 0.875202, 4.380926, -71.393814, -31.381836, -649.728394
1733469282.841317, -6.870910, -0.634912, 5.437831, -2.409508, 0.817710, 4.409931, -70.503082, -28.830780, -649.849731
1733469282.851269, -7.636157, -0.118663, 5.457882, -2.668862, 0.766965, 4.439776, -69.439575, -26.615479, -649.448486
1733469282.861301, -8.419509, -0.067187, 5.354033, -2.957497, 0.673266, 4.468344, -68.363388, -23.885040, -649.367432
1733469282.871273, -9.074922, -0.617704, 5.335329, -3.307961, 0.525412, 4.491696, -67.262589, -21.102234, -648.980408
1733469282.881263, -10.305991, -0.567575, 5.527763, -3.726741, 0.405455, 4.388756, -66.371902, -18.386200, -648.653992
1733469282.891262, -12.281207, 0.316932, 5.531354, -4.216173, 0.310154, 4.165374, -64.867920, -15.669617, -647.276733
1733469282.901258, -14.042442, 1.374421, 5.346252, -4.728703, 0.162550, 3.889795, -63.501099, -12.989700, -646.084290
1733469282.911258, -15.710302, 2.572420, 4.873397, -5.210784, 0.011525, 3.566572, -62.166611, -10.279755, -644.327576
1733469282.921269, -17.515979, 3.872771, 3.785682, -5.629627, -0.017293, 3.194467, -60.944504, -7.680664, -642.707214
1733469282.931316, -19.325996, 4.951508, 1.982549, -5.963468, 0.102739, 2.803894, -59.931732, -5.231262, -640.727173
1733469282.941264, -20.879533, 5.385158, -0.047884, -6.215218, 0.402908, 2.366377, -59.182892, -3.121414, -638.360474
1733469282.951271, -22.414366, 6.010494, -2.241122, -6.377746, 0.825621, 1.838818, -57.887222, -1.403198, -635.704529
1733469282.961264, -23.408110, 6.787861, -4.216339, -6.466082, 1.177638, 1.269394, -57.590759, 0.165161, -633.963501
1733469282.971301, -23.600693, 7.520936, -5.400571, -6.499932, 1.142322, 0.645907, -57.219101, 1.328690, -631.653076
1733469282.981354, -23.721900, 8.358158, -5.868787, -6.415759, 0.655319, 0.001177, -57.291962, 2.265442, -629.024414
1733469282.991522, -23.888895, 10.261249, -8.397513, -6.124294, -0.031570, -0.581210, -57.199860, 2.783218, -626.473267
1733469283.001507, -23.888895, 10.261249, -8.397513, -5.629186, -0.646150, -1.068596, -57.543198, 2.986847, -623.606384
1733469283.011350, -24.463354, 11.624298, -10.392032, -5.087358, -1.028993, -1.498800, -58.170898, 2.954071, -621.380005
1733469283.021291, -25.126698, 12.780398, -12.158654, -4.643542, -1.126420, -1.838926, -59.378281, 2.700851, -619.086792
1733469283.031266, -25.307609, 13.351714, -13.561057, -4.362010, -1.047655, -2.153676, -60.429962, 2.146896, -617.271240
1733469283.040434, -25.505730, 13.747955, -14.507366, -4.178799, -0.858371, -2.570141, -61.421463, 1.236435, -615.553711
1733469283.051367, -25.093478, 13.718177, -17.618182, -3.937781, -0.549875, -3.008231, -62.813095, 0.109344, -613.762207
1733469283.061282, -23.906702, 14.099753, -19.115755, -3.566383, -0.149503, -3.392704, -64.332550, -0.843933, -612.826660
1733469283.071267, -22.196045, 14.449755, -19.916316, -3.103719, 0.240110, -3.690958, -65.824570, -2.017349, -612.180664
1733469283.081263, -20.053235, 14.740052, -20.217686, -2.606554, 0.558100, -3.874322, -67.094604, -3.643753, -611.535767
1733469283.091251, -17.912818, 14.947001, -20.192398, -2.107862, 0.842539, -3.929343, -68.868164, -4.999802, -611.601562
1733469283.101258, -16.068086, 15.082273, -19.835811, -1.639505, 1.116068, -3.885790, -70.428268, -6.539948, -612.224670
1733469283.111261, -14.691270, 15.036335, -19.242947, -1.225160, 1.373842, -3.805787, -71.947800, -7.911484, -611.957703
1733469283.121260, -13.528586, 14.673912, -18.702456, -0.854432, 1.599160, -3.732220, -73.280670, -9.260452, -612.484497
1733469283.131261, -12.334927, 14.163798, -18.370260, -0.496288, 1.815044, -3.640471, -74.785858, -10.987030, -613.404419
1733469283.141255, -11.443536, 13.504345, -17.941848, -0.131027, 1.997784, -3.581691, -76.065628, -12.300842, -614.373657
1733469283.151253, -10.644920, 12.985102, -17.307085, 0.249610, 2.121700, -3.574376, -77.380997, -13.978958, -614.826660
1733469283.161255, -9.870096, 12.635549, -16.543634, 0.642397, 2.197401, -3.615049, -78.364792, -15.530304, -616.768311
1733469283.171263, -9.126697, 12.691214, -15.532533, 0.987446, 2.238882, -3.675590, -79.521088, -17.138062, -617.910828
1733469283.181254, -8.329278, 12.690765, -14.400674, 1.263648, 2.264136, -3.764439, -80.305298, -19.020126, -619.534302
1733469283.191260, -7.429357, 12.457779, -13.392266, 1.494590, 2.242630, -3.842841, -81.343918, -20.934799, -620.828064
1733469283.201257, -6.517615, 12.271481, -12.642432, 1.715172, 2.202259, -3.878783, -82.039917, -22.994629, -623.006104
1733469283.211249, -5.707178, 12.228086, -12.054207, 1.950374, 2.164101, -3.869016, -82.509232, -25.012466, -623.559937
1733469283.221250, -4.919785, 12.064233, -11.455956, 2.212233, 2.116496, -3.783129, -82.940430, -26.859360, -625.125671
1733469283.231256, -4.199130, 11.765556, -10.825084, 2.480890, 2.086138, -3.640870, -83.442276, -28.873642, -626.531067
1733469283.241256, -3.593996, 11.509227, -10.178799, 2.731659, 2.090599, -3.445861, -83.332870, -31.033157, -627.804077
1733469283.251261, -3.012055, 11.139472, -9.513660, 2.961960, 2.161597, -3.214684, -83.333588, -32.976288, -628.725037
1733469283.261254, -2.227056, 10.582371, -8.750209, 3.138455, 2.258018, -2.926196, -83.402786, -34.723373, -630.790100
1733469283.271255, -1.641824, 9.793332, -7.960721, 3.248731, 2.367676, -2.624870, -83.400284, -36.390976, -631.826416
1733469283.281252, -1.386392, 9.123704, -7.180211, 3.312189, 2.485415, -2.354751, -83.123764, -37.974960, -632.767395
1733469283.291261, -0.992846, 8.454674, -6.402843, 3.361788, 2.597884, -2.094652, -83.123764, -37.974960, -632.767395
1733469283.301267, -0.626383, 7.781904, -5.654506, 3.402570, 2.678687, -1.825295, -82.756317, -39.617615, -634.329956
1733469283.311250, -0.317830, 7.039851, -4.882825, 3.446158, 2.730637, -1.548688, -82.352921, -41.277939, -635.852783
1733469283.321248, -0.135871, 6.161927, -4.064307, 3.482677, 2.725492, -1.283565, -81.882156, -42.582001, -637.042114
1733469283.331247, 0.019752, 5.396381, -3.252224, 3.503225, 2.696662, -1.045681, -81.480835, -43.767334, -638.450256
1733469283.341246, 0.262015, 4.662259, -2.492813, 3.489897, 2.685934, -0.835994, -81.109283, -44.940933, -639.011414
1733469283.351246, 0.621894, 3.959710, -1.644218, 3.409039, 2.660820, -0.634476, -80.324829, -46.113297, -640.118164
1733469283.361244, 0.928202, 3.390938, -0.830339, 3.252029, 2.639834, -0.443525, -79.914062, -47.367874, -640.381714
1733469283.371245, 1.152509, 2.907758, -0.213084, 3.020506, 2.663965, -0.254125, -79.164581, -48.021362, -642.132935
1733469283.381262, 1.420659, 2.524835, 0.320224, 2.744251, 2.689662, -0.033824, -78.203857, -49.134293, -642.839050
1733469283.391248, 1.690905, 2.091335, 0.565780, 2.484303, 2.709255, 0.223696, -77.609619, -49.781235, -643.807739
1733469283.401253, 1.858948, 1.622670, 0.497395, 2.274389, 2.743151, 0.497247, -76.948532, -50.145752, -644.915039
1733469283.411299, 1.977611, 1.236904, 0.498592, 2.124409, 2.759506, 0.796941, -76.414017, -50.417099, -645.535522
1733469283.421244, 1.900248, 0.942118, 0.595558, 2.014824, 2.760952, 1.103910, -75.787766, -50.586456, -646.659912
1733469283.431249, 1.754052, 0.647781, 0.744896, 1.924455, 2.726120, 1.373908, -74.796204, -50.697433, -647.664429
1733469283.441246, 1.686565, 0.439336, 1.066018, 1.865510, 2.577338, 1.615593, -74.272308, -50.641571, -648.201172
1733469283.451260, 1.588403, 0.317232, 1.390283, 1.860547, 2.317977, 1.846622, -73.702499, -50.561554, -648.756897
1733469283.461240, 1.353771, 0.445471, 1.735198, 1.908613, 1.977365, 2.104179, -73.225021, -50.284485, -648.921875
1733469283.471252, 0.976535, 0.475249, 2.165406, 1.999563, 1.626573, 2.390502, -72.738708, -50.056702, -649.877380
1733469283.481255, 0.430807, 0.331597, 2.687042, 2.093486, 1.277846, 2.685296, -72.450943, -49.897141, -649.942322
1733469283.491239, -0.190788, 0.178967, 3.229628, 2.136444, 1.030592, 2.960830, -72.222275, -49.433167, -650.121460
1733469283.501245, -0.881964, -0.120907, 3.788076, 2.070787, 0.899828, 3.189843, -72.317596, -48.745392, -650.210327
1733469283.511247, -1.513435, -0.730381, 4.354155, 1.875015, 0.880497, 3.372851, -72.489487, -48.071198, -650.281921
1733469283.521256, -2.010830, -1.488745, 5.171924, 1.557370, 0.908027, 3.507050, -72.350296, -47.326126, -650.574768
1733469283.531237, -2.492364, -2.006940, 6.163423, 1.121550, 0.896761, 3.590635, -72.026962, -46.266922, -650.822327
1733469283.541299, -3.016245, -1.977311, 6.886173, 0.642927, 0.759790, 3.699397, -71.733124, -45.082764, -650.589172
1733469283.551239, -3.672705, -1.909825, 7.143400, 0.211841, 0.585233, 3.850447, -71.670761, -43.698608, -650.722656
1733469283.561242, -4.575319, -1.932719, 7.050924, -0.183029, 0.481310, 3.976099, -71.519485, -42.157028, -651.072876
1733469283.571242, -5.468207, -1.917157, 7.017405, -0.597562, 0.459127, 4.052988, -71.201126, -40.415985, -651.179199
1733469283.581243, -6.303035, -1.817947, 7.019650, -1.055961, 0.488864, 4.098838, -71.011673, -38.552963, -651.468201
1733469283.591239, -6.921188, -1.723227, 7.020248, -1.547902, 0.536348, 4.108602, -70.474503, -36.619934, -651.707092
1733469283.601240, -7.097312, -2.043601, 6.882282, -2.043536, 0.498587, 4.132049, -69.997925, -34.342957, -652.200928
1733469283.611240, -7.630021, -2.344672, 6.522853, -2.490077, 0.329166, 4.184051, -69.536652, -31.901459, -651.906250
1733469283.621235, -9.048586, -2.072481, 5.828385, -2.836409, 0.176678, 4.154070, -68.897385, -29.381973, -651.693970
1733469283.631254, -10.395773, -1.877353, 5.182399, -3.113783, 0.079328, 4.018783, -68.399658, -26.974182, -651.281677
1733469283.641236, -11.416451, -1.707515, 4.597615, -3.358090, 0.011262, 3.820014, -67.570557, -24.523895, -650.684204
1733469283.650352, -12.298864, -1.086369, 4.108300, -3.618999, -0.015867, 3.590487, -67.070740, -21.884338, -650.126404
1733469283.661237, -13.021464, -0.270096, 3.721038, -3.898777, -0.026125, 3.344033, -66.537048, -19.426392, -649.663086
1733469283.671242, -13.587543, 0.743549, 3.301305, -4.190935, -0.066013, 3.131742, -65.470932, -17.004807, -648.254639
1733469283.681244, -14.147936, 1.852364, 2.800617, -4.502224, -0.148979, 2.950220, -64.517181, -14.705597, -646.782593
1733469283.691244, -14.896872, 2.957288, 2.093879, -4.809972, -0.308752, 2.781861, -63.445221, -12.398880, -645.207581
1733469283.701234, -16.049531, 4.167557, 0.833781, -5.069429, -0.422165, 2.609026, -62.702499, -10.094299, -643.400818
1733469283.711283, -17.308133, 4.855890, -0.753126, -5.272839, -0.368124, 2.402166, -61.855591, -7.696579, -641.748169
1733469283.721233, -18.796578, 5.282806, -2.029984, -5.485987, -0.164074, 2.145077, -61.136230, -5.813873, -639.905334
1733469283.731228, -20.166959, 5.548113, -2.906112, -5.842861, 0.091390, 1.771601, -60.093277, -4.044403, -637.969360
1733469283.741245, -21.120749, 6.080973, -4.027346, -6.287759, 0.269195, 1.345948, -59.717224, -2.173691, -635.652222
1733469283.751242, -22.136789, 7.488764, -5.626972, -6.673356, 0.375027, 0.886329, -59.368393, -0.764542, -632.884949
1733469283.761249, -23.319075, 9.222465, -7.764845, -6.861954, 0.330047, 0.355355, -59.191071, 0.325851, -629.982483
1733469283.771255, -24.272117, 10.536433, -10.339659, -6.773450, 0.135054, -0.224004, -59.275284, 1.064590, -627.703491
1733469283.781243, -25.248652, 11.051485, -13.035530, -6.379896, -0.199439, -0.876146, -59.695251, 1.471176, -625.069946
1733469283.791249, -25.977537, 11.424981, -15.419706, -5.745038, -0.576536, -1.574539, -60.411011, 1.366470, -622.497192
1733469283.801243, -26.337266, 12.022933, -17.387890, -5.077687, -0.888021, -2.317768, -61.357971, 0.961868, -620.664673
1733469283.811234, -25.740511, 12.768726, -18.810943, -4.480403, -1.046809, -2.983483, -62.425369, 0.476654, -618.223938
1733469283.821228, -24.417715, 13.869012, -19.736152, -3.978391, -1.010761, -3.458149, -63.732605, -0.507202, -616.275574
1733469283.831233, -22.901287, 15.018378, -20.311659, -3.563927, -0.842088, -3.749845, -65.018539, -1.759216, -614.676147
1733469283.841242, -21.127633, 15.462951, -21.038149, -3.183693, -0.565415, -3.872823, -66.264160, -2.974960, -613.800049
1733469283.851238, -19.365650, 15.469386, -21.886894, -2.763036, -0.156532, -3.842367, -67.780426, -4.507797, -612.143738
1733469283.861236, -17.854460, 15.241039, -22.388629, -2.287737, 0.374871, -3.708305, -69.063568, -5.853012, -612.260010
1733469283.871240, -16.474202, 14.766837, -22.244378, -1.797449, 0.931632, -3.532099, -70.665756, -7.300232, -612.434875
1733469283.881228, -15.238645, 14.197167, -21.650766, -1.321661, 1.429302, -3.347679, -71.940414, -8.405411, -612.928467
1733469283.891235, -14.283807, 13.644256, -20.802919, -0.870403, 1.859104, -3.194046, -73.208252, -9.754044, -613.501953
1733469283.901234, -13.637223, 12.980314, -19.694254, -0.450384, 2.181006, -3.109877, -74.612396, -11.123520, -614.562805
1733469283.911227, -13.072491, 12.092364, -18.576760, -0.048860, 2.380487, -3.115497, -75.834534, -12.274872, -615.953796
1733469283.921289, -12.538584, 11.257387, -17.540969, 0.342356, 2.490121, -3.212779, -77.033264, -13.986984, -617.353088
1733469283.931232, -11.953650, 10.807277, -16.329802, 0.732559, 2.512338, -3.369222, -78.065231, -15.265320, -618.445190
1733469283.941225, -11.087548, 10.738892, -15.021371, 1.104451, 2.437728, -3.511679, -78.871399, -17.158844, -619.894165
1733469283.951270, -10.377817, 10.810120, -13.903129, 1.446901, 2.314856, -3.655082, -79.531067, -19.021225, -621.261475
1733469283.961220, -9.616012, 10.973374, -12.877812, 1.737026, 2.190084, -3.810810, -80.374878, -20.854736, -623.139587
1733469283.971226, -8.716690, 11.026645, -12.037597, 1.964401, 2.069347, -3.944696, -81.370850, -22.999542, -624.732666
1733469283.981285, -7.683741, 10.957812, -11.441441, 2.144274, 1.994219, -4.039647, -81.800507, -25.154449, -625.573120
1733469283.991223, -6.589591, 10.814310, -11.012579, 2.292414, 1.964272, -4.076700, -82.305603, -27.373856, -626.919922
1733469284.001245, -5.504419, 10.635343, -10.666168, 2.437876, 1.990308, -4.043153, -82.470718, -29.596313, -627.972168
1733469284.011245, -4.481497, 10.471640, -10.194960, 2.585369, 2.047798, -3.956759, -82.881912, -31.847885, -629.466431
1733469284.021229, -3.529353, 10.376620, -9.539098, 2.720770, 2.093374, -3.814757, -82.976776, -34.042725, -630.699036
1733469284.031234, -2.669086, 10.281001, -8.950124, 2.859745, 2.102892, -3.617263, -82.786560, -36.195068, -631.906433
1733469284.041232, -1.686715, 10.006117, -8.534281, 3.016147, 2.120697, -3.362389, -82.873856, -38.250259, -632.907959
1733469284.051239, -0.746093, 9.607033, -8.059631, 3.168539, 2.134694, -3.049466, -82.450592, -40.427353, -633.062866
1733469284.061251, 0.013018, 9.127146, -7.613262, 3.315052, 2.133117, -2.701886, -82.378006, -42.281342, -635.322144
1733469284.071221, 0.610073, 8.671499, -7.138911, 3.458687, 2.121726, -2.341502, -81.814896, -44.044449, -635.734375
1733469284.081212, 0.987608, 8.268375, -6.600964, 3.599508, 2.101596, -1.990673, -81.831421, -45.609283, -636.259216
1733469284.091227, 1.270573, 7.818714, -5.993884, 3.743731, 2.045280, -1.675071, -81.366379, -47.287231, -637.383057
1733469284.101204, 1.744026, 7.326257, -5.470302, 3.880880, 1.979635, -1.368272, -80.736145, -48.660660, -637.726013
1733469284.111249, 2.085799, 6.878092, -4.886715, 3.991191, 1.912336, -1.053000, -80.279343, -50.043945, -638.345947
1733469284.121226, 2.276437, 6.465242, -4.320337, 4.077687, 1.845919, -0.755879, -80.131012, -51.360764, -638.582031
1733469284.131219, 2.478448, 6.032939, -3.911377, 4.149199, 1.825931, -0.453818, -79.575668, -52.441299, -638.821838
1733469284.141212, 2.553117, 5.696105, -3.503914, 4.217824, 1.818916, -0.143688, -79.407104, -53.271255, -639.145874
1733469284.151217, 2.691681, 5.395483, -3.052757, 4.299175, 1.828489, 0.174140, -78.936539, -54.328140, -638.922241
1733469284.161288, 2.833987, 5.071218, -2.536956, 4.360304, 1.893345, 0.502238, -78.547440, -54.903336, -639.671082
1733469284.171242, 2.741361, 4.892252, -1.746121, 4.382831, 1.938173, 0.859978, -78.297058, -55.480301, -640.142090
1733469284.181225, 2.571821, 4.642656, -0.939275, 4.371150, 2.007767, 1.229672, -77.813995, -55.861557, -640.054077
1733469284.191215, 2.248754, 4.355053, 0.136619, 4.325534, 2.055282, 1.579844, -77.911148, -56.079269, -640.348938
1733469284.201231, 1.851765, 4.128501, 1.459864, 4.054524, 1.974141, 2.230545, -77.507797, -56.165024, -640.349487
1733469284.211228, 1.286135, 3.850026, 2.888155, 3.806003, 1.845486, 2.495346, -77.430435, -56.198456, -640.305542
1733469284.221216, 0.662895, 3.298013, 4.220080, 3.488680, 1.668326, 2.695472, -77.666229, -55.806824, -640.499023
1733469284.231216, 0.117316, 2.592621, 5.276970, 3.121994, 1.518802, 2.847239, -77.826981, -55.375977, -640.719910
1733469284.241215, -0.311845, 1.879748, 5.854422, 2.742826, 1.440654, 2.970731, -77.747772, -54.858734, -641.016113
1733469284.251221, -0.633266, 1.346290, 6.037279, 2.367033, 1.423550, 3.090626, -77.815079, -54.020142, -640.161316
1733469284.261230, -0.904260, 0.951097, 6.107459, 2.002299, 1.477615, 3.229958, -77.707092, -53.233459, -641.332703
1733469284.271223, -1.149366, 0.620846, 6.166416, 1.667175, 1.518172, 3.392065, -77.716995, -52.319809, -641.368103
1733469284.281233, -1.403451, 0.304363, 6.393865, 1.402981, 1.497785, 3.603517, -77.517746, -50.987625, -642.373413
1733469284.291222, -1.746271, 0.164601, 6.727258, 1.193564, 1.472464, 3.837710, -77.509003, -49.717957, -642.763245
1733469284.301213, -2.304569, 0.005537, 7.193977, 0.952546, 1.469503, 4.040706, -77.421417, -48.096527, -643.126831
1733469284.311223, -2.998588, -0.253486, 7.689428, 0.612317, 1.493922, 4.199034, -77.289352, -46.528931, -643.618774
1733469284.321221, -3.667917, -0.531064, 8.237101, 0.196929, 1.462838, 4.322529, -76.847809, -44.785294, -644.238647
1733469284.331213, -4.333804, -0.692972, 8.711901, -0.220939, 1.408733, 4.442191, -76.705276, -42.786880, -644.863220
1733469284.341212, -5.027375, -0.662595, 8.980800, -0.644065, 1.350506, 4.556708, -75.933044, -40.962250, -645.567078
1733469284.351229, -5.690718, -0.835127, 9.193734, -1.092434, 1.266175, 4.659086, -75.187637, -38.559830, -645.600464
1733469284.361219, -6.577620, -0.844405, 9.293393, -1.535844, 1.221453, 4.754405, -74.569641, -36.109268, -646.358398
1733469284.371226, -7.616404, -0.498443, 8.979603, -1.963006, 1.278193, 4.839523, -73.863983, -33.328445, -646.871033
1733469284.381210, -8.644115, -0.294038, 8.500613, -2.411526, 1.405151, 4.871035, -72.769714, -30.701340, -646.884521
1733469284.391256, -9.813683, -0.322918, 8.205977, -2.907684, 1.577515, 4.826066, -71.623978, -28.069489, -647.713745
1733469284.401210, -10.900052, -0.430956, 8.037934, -3.473099, 1.625528, 4.705651, -70.356094, -25.163773, -647.407471
1733469284.411211, -11.843068, -0.294487, 8.143727, -4.026561, 1.418293, 4.522700, -69.368347, -22.285126, -647.542786
1733469284.420698, -12.967295, 0.350601, 8.009652, -4.458267, 1.048968, 4.270099, -68.112656, -19.537445, -647.247742
1733469284.431246, -14.284855, 1.239448, 7.384915, -4.781027, 0.584348, 3.977197, -66.581131, -16.409470, -645.938232
1733469284.441208, -15.783924, 2.478597, 6.476914, -5.059393, 0.111181, 3.672698, -65.184784, -13.715775, -644.553284
1733469284.451207, -17.633744, 3.939958, 5.249586, -5.343619, -0.216818, 3.324618, -64.049866, -11.312714, -642.764282
1733469284.461207, -19.650111, 4.759523, 3.530699, -5.648067, -0.305722, 2.922648, -63.079437, -8.600357, -641.317688
1733469284.470683, -21.642984, 4.870255, 1.312172, -5.950504, -0.103900, 2.423389, -62.343842, -6.278931, -639.210144
1733469284.481215, -23.631369, 4.899285, -1.204583, -6.194460, 0.304146, 1.840327, -61.329086, -4.359146, -637.041443
1733469284.491217, -24.891168, 5.185392, -3.502717, -6.370702, 0.724488, 1.232267, -60.753494, -2.711853, -635.023193
1733469284.501226, -25.471463, 6.074838, -4.802769, -6.449853, 0.846656, 0.611459, -60.289703, -1.571609, -632.670288
1733469284.511209, -25.439889, 7.165397, -5.529109, -6.371168, 0.607274, 0.024053, -60.187439, -0.487381, -630.484985
1733469284.521228, -25.208250, 8.385691, -6.187515, -6.148036, 0.216803, -0.529437, -60.379120, 0.194901, -627.874512
1733469284.530879, -25.032725, 9.350854, -7.379528, -5.861445, -0.091592, -1.029440, -60.724564, 0.567596, -625.601929
1733469284.541228, -24.740632, 9.785850, -8.871265, -5.627713, -0.176075, -1.454025, -61.119888, 0.713806, -622.967407
1733469284.551213, -24.327184, 10.135404, -10.163985, -5.495621, -0.047929, -1.818561, -61.928329, 0.369720, -620.552979
1733469284.561210, -23.832183, 10.672902, -11.152491, -5.387280, 0.225580, -2.108454, -62.839264, 0.185287, -618.763306
1733469284.571206, -22.994960, 11.341483, -12.038345, -5.226153, 0.527157, -2.327814, -63.980453, -0.468582, -616.809204
1733469284.581209, -21.997027, 12.049269, -12.750919, -4.983716, 0.803137, -2.510203, -64.907455, -1.375381, -615.379211
1733469284.591213, -21.046230, 12.682236, -13.516914, -4.652868, 1.042986, -2.661187, -66.221985, -2.220337, -614.081909
1733469284.601202, -19.952379, 13.156587, -14.368502, -4.244242, 1.198094, -2.789270, -67.445389, -3.295837, -613.087097
1733469284.611204, -18.840871, 13.290513, -15.057284, -3.751959, 1.263569, -2.890043, -68.445236, -4.443024, -612.634766
1733469284.621202, -17.824981, 13.120824, -15.719580, -3.207589, 1.320110, -2.969867, -69.872086, -5.445084, -611.715393
1733469284.631205, -16.902764, 12.746879, -16.329802, -2.679140, 1.371667, -3.050799, -70.915115, -6.756775, -611.746094
1733469284.641201, -16.168193, 12.496386, -16.529119, -2.209734, 1.419544, -3.132494, -71.875290, -7.904648, -611.636414
1733469284.651204, -15.503503, 12.411541, -16.533160, -1.799287, 1.522524, -3.214862, -72.933838, -9.226730, -611.239807
1733469284.661239, -14.876522, 12.375778, -16.564434, -1.430756, 1.674263, -3.289564, -73.960266, -10.667587, -612.164917
1733469284.671200, -14.184897, 12.272678, -16.578200, -1.066413, 1.853106, -3.316491, -75.114807, -11.951889, -613.018127
1733469284.681205, -13.352313, 12.188881, -16.571317, -0.683453, 2.056493, -3.305111, -76.032425, -13.382065, -613.751709
1733469284.691201, -12.501773, 11.984476, -16.546028, -0.283573, 2.258145, -3.299455, -77.533630, -14.981537, -614.960083
1733469284.701258, -11.723508, 11.702110, -16.376190, 0.108851, 2.426368, -3.312980, -78.741989, -16.289948, -615.613892
1733469284.711199, -10.936115, 11.608436, -15.929222, 0.473861, 2.503477, -3.349694, -79.420761, -17.952637, -616.915710
1733469284.721207, -10.189124, 11.631032, -15.328726, 0.830764, 2.534477, -3.410576, -80.106476, -19.406052, -618.948181
1733469284.731207, -9.388862, 11.491420, -14.815470, 1.186171, 2.509952, -3.452628, -80.946121, -21.331772, -620.203613
1733469284.741198, -8.594436, 11.417050, -14.171579, 1.540575, 2.435946, -3.420456, -81.799805, -23.155502, -622.358826
1733469284.751201, -7.635558, 11.440543, -13.455563, 1.890289, 2.356986, -3.325136, -81.854141, -24.571838, -622.692871
1733469284.761205, -6.874202, 11.298088, -12.770971, 2.228598, 2.273255, -3.228180, -82.752747, -26.270569, -624.481140
1733469284.771205, -6.335207, 10.845285, -11.992406, 2.519928, 2.194147, -3.136175, -82.752747, -26.270569, -624.481140
1733469284.781233, -5.745037, 10.331429, -11.160870, 2.745692, 2.131338, -3.043804, -83.069077, -28.110275, -625.668091
1733469284.791196, -5.225794, 9.921272, -10.349685, 2.912403, 2.085088, -2.963622, -83.268188, -30.043213, -627.283081
1733469284.801197, -4.737826, 9.462035, -9.605986, 3.034522, 2.062035, -2.862416, -83.184525, -31.911743, -628.685059
1733469284.811193, -4.093037, 9.020005, -8.995165, 3.140104, 2.075233, -2.718761, -83.271927, -33.729477, -630.265808
1733469284.821241, -3.381211, 8.599374, -8.580819, 3.237304, 2.138485, -2.550304, -83.327286, -35.638535, -631.056213
1733469284.831193, -2.744204, 8.117241, -8.188619, 3.316763, 2.256031, -2.362719, -83.090775, -37.217697, -632.269653
1733469284.841195, -2.175581, 7.622091, -7.750629, 3.370967, 2.413891, -2.153888, -82.768265, -39.140320, -633.390503
1733469284.851193, -1.504307, 7.102549, -7.281366, 3.409324, 2.581697, -1.919749, -82.755936, -40.650986, -634.985291
1733469284.861254, -0.921319, 6.724714, -6.697779, 3.444905, 2.694475, -1.669203, -82.519394, -42.413193, -635.260803
1733469284.871203, -0.462679, 6.546496, -6.036381, 3.499094, 2.755612, -1.406511, -81.850754, -43.834137, -636.792603
1733469284.881197, -0.016909, 6.433369, -5.423765, 3.574752, 2.746864, -1.146992, -81.347687, -45.075012, -638.075623
1733469284.891191, 0.433201, 6.216245, -4.802619, 3.660816, 2.655808, -0.896791, -80.729721, -46.561050, -639.079712
1733469284.901245, 0.916381, 5.819556, -4.177134, 3.746857, 2.504333, -0.669241, -80.179184, -47.862335, -640.285461
1733469284.911196, 1.311873, 5.319617, -3.591602, 3.815806, 2.337673, -0.473995, -79.886887, -49.016693, -640.691040
1733469284.921222, 1.498621, 4.912603, -3.107674, 3.869087, 2.195899, -0.310504, -79.605347, -50.156036, -641.219482
1733469284.931207, 1.598130, 4.564845, -2.759766, 3.897274, 2.117797, -0.160822, -78.996506, -51.205566, -641.957275
1733469284.941207, 1.774702, 4.198532, -2.443582, 3.901919, 2.079741, 0.018633, -78.403336, -52.218582, -642.516785
1733469284.951206, 1.979705, 3.997868, -1.984793, 3.895956, 2.040346, 0.248665, -77.452194, -53.314087, -642.741333
1733469284.961200, 2.045696, 3.961356, -1.421707, 3.893365, 2.029028, 0.547535, -76.751831, -54.041611, -642.398132
1733469284.971202, 2.198326, 3.969886, -0.800561, 3.880851, 1.996347, 0.888330, -76.535461, -54.804886, -643.286743
1733469284.981197, 2.298134, 3.777601, -0.015263, 3.855460, 1.888395, 1.255741, -75.932373, -55.312866, -643.489807
1733469284.991202, 2.073379, 3.620631, 0.951994, 3.812200, 1.800285, 1.639167, -75.531372, -55.716766, -643.443970
1733469285.001209, 1.633594, 3.494786, 1.923292, 3.714276, 1.723333, 1.987430, -75.532455, -56.022232, -643.783691
1733469285.011209, 1.064372, 3.108272, 3.179350, 3.508469, 1.615917, 2.289476, -75.321136, -56.138626, -643.832764
1733469285.021195, 0.444424, 2.639757, 4.569184, 3.193321, 1.485965, 2.544605, -75.453018, -55.971832, -643.823730
1733469285.031198, -0.074520, 2.002151, 5.751621, 2.784312, 1.340227, 2.755154, -75.444748, -55.733932, -643.919067
1733469285.041210, -0.492158, 1.306187, 6.609942, 2.326250, 1.220378, 2.972552, -75.415573, -55.328583, -644.046814
1733469285.050976, -0.811784, 0.947356, 7.012317, 1.858134, 1.195838, 3.180162, -75.676300, -54.460403, -644.124207
1733469285.060883, -1.215656, 0.552761, 6.988226, 1.402256, 1.246043, 3.365403, -75.554688, -53.638184, -644.138611
1733469285.071208, -1.593042, 0.016460, 6.764218, 0.989434, 1.327739, 3.536139, -75.469559, -52.583374, -644.723572
1733469285.081203, -1.944690, -0.474351, 6.570438, 0.618762, 1.401184, 3.684551, -75.422836, -51.122192, -645.399353
1733469285.091196, -2.434155, -0.839168, 6.570886, 0.293655, 1.425362, 3.815963, -75.672974, -49.763962, -645.535950
1733469285.101182, -2.962376, -1.105972, 6.759579, -0.001928, 1.391386, 3.943279, -75.181732, -48.152176, -645.594727
1733469285.111189, -3.428796, -1.142782, 7.125892, -0.279632, 1.274087, 4.096708, -74.995468, -46.331451, -645.928528
1733469285.121193, -3.858256, -1.011700, 7.600244, -0.548391, 1.083305, 4.270863, -74.873932, -44.479660, -647.152344
1733469285.131188, -4.371812, -0.961571, 7.969100, -0.808861, 0.853358, 4.452801, -74.653015, -42.591248, -646.817505
1733469285.141210, -5.023035, -1.122132, 8.153304, -1.094805, 0.654253, 4.586856, -74.411652, -40.219452, -648.174133
1733469285.151190, -5.889886, -1.474529, 8.280945, -1.454493, 0.492713, 4.630455, -74.061783, -38.026855, -647.575195
1733469285.161190, -6.868067, -1.682675, 8.420707, -1.887793, 0.377272, 4.591352, -73.615295, -35.490051, -647.418030
1733469285.171213, -7.926005, -1.431733, 8.505551, -2.344082, 0.325056, 4.556420, -72.945389, -32.837570, -648.186523
1733469285.181200, -8.909124, -0.859818, 8.420258, -2.792116, 0.332299, 4.548255, -72.049866, -30.616486, -647.298523
1733469285.191193, -9.839570, -0.420332, 8.235754, -3.249525, 0.319482, 4.511917, -71.537231, -27.584763, -647.618652
1733469285.201255, -10.802788, -0.106542, 8.172158, -3.715962, 0.226625, 4.482504, -70.548599, -24.862244, -646.644287
1733469285.211189, -11.656320, 0.124648, 7.988403, -4.163101, 0.095432, 4.458630, -69.564331, -21.752975, -645.909973
1733469285.221193, -12.684031, 0.274585, 7.490858, -4.597401, -0.023534, 4.390724, -68.877197, -18.919739, -646.113525
1733469285.231187, -14.204649, 0.977283, 6.957550, -5.091584, -0.167499, 4.240796, -67.558212, -16.043625, -643.339661
1733469285.241248, -16.115521, 2.171391, 6.523900, -5.651314, -0.381394, 3.975370, -66.316345, -12.886108, -642.499817
1733469285.251193, -18.235587, 2.996792, 5.784242, -6.223218, -0.599968, 3.554245, -65.302399, -10.025497, -640.173340
1733469285.261191, -20.684556, 3.521871, 4.266767, -6.743986, -0.686018, 2.987383, -64.421707, -7.408951, -637.661560
1733469285.271198, -23.251439, 4.562600, 1.826926, -7.143916, -0.583399, 2.314398, -63.579132, -5.112411, -635.582520
1733469285.281185, -25.445426, 5.607071, -1.078887, -7.416969, -0.298082, 1.613146, -62.727585, -3.149887, -632.201233
1733469285.291191, -26.718842, 6.905177, -3.963750, -7.478632, 0.032765, 0.948058, -62.287628, -1.576340, -630.074219
1733469285.301192, -27.214890, 8.152855, -6.775441, -7.225136, 0.389881, 0.370935, -61.881958, -0.507523, -626.882446
1733469285.311196, -26.524612, 8.518570, -9.336489, -6.707379, 0.571057, -0.107168, -62.013657, 0.124298, -624.091858
1733469285.321187, -25.450663, 8.369979, -10.837803, -6.055016, 0.500185, -0.511012, -61.942123, 0.322098, -622.718079
1733469285.331200, -24.634390, 8.467543, -11.290456, -5.408127, 0.346119, -0.895938, -62.496689, 0.466309, -619.765381
1733469285.341187, -24.171411, 8.721179, -11.220725, -4.942080, 0.275016, -1.250957, -62.916824, 0.236603, -618.600769
1733469285.351183, -23.750331, 9.545832, -10.602722, -4.782822, 0.281293, -1.604258, -63.423203, -0.253860, -616.237305
1733469285.361192, -23.437888, 11.118822, -9.672126, -4.843191, 0.356461, -1.949676, -64.159912, -0.861710, -614.407043
1733469285.371208, -22.975956, 12.687922, -9.449166, -4.903219, 0.517845, -2.231051, -64.995682, -1.692612, -613.476929
1733469285.381192, -22.211158, 13.769054, -10.374974, -4.820313, 0.747592, -2.461996, -65.843124, -2.751724, -612.090576
1733469285.390836, -21.221156, 14.263756, -11.831247, -4.582996, 0.892816, -2.634413, -67.163635, -3.815628, -610.034180
1733469285.401184, -20.132393, 14.361619, -13.223026, -4.200270, 1.027003, -2.753721, -68.328125, -4.971008, -609.506775
1733469285.411194, -18.370560, 13.904326, -16.516849, -3.682719, 1.280862, -2.837777, -69.142380, -6.205017, -608.322083
1733469285.421192, -17.601572, 13.792098, -17.459267, -3.102957, 1.603939, -2.911153, -70.468292, -7.427353, -609.083923
1733469285.431174, -16.682049, 13.883826, -17.864036, -2.513089, 1.883110, -2.952091, -71.365448, -8.801514, -608.404297
1733469285.441192, -15.732748, 13.559561, -18.138771, -1.872763, 2.105704, -3.001887, -72.927185, -9.961517, -609.685364
1733469285.451183, -14.803349, 13.151200, -17.920300, -1.190651, 2.255630, -3.083838, -74.377670, -11.377945, -609.788574
1733469285.461182, -13.770251, 12.960262, -16.991500, -0.535234, 2.272701, -3.186926, -75.332657, -12.905731, -610.217712
1733469285.471208, -12.821698, 13.005004, -15.727511, 0.025463, 2.185012, -3.288633, -76.565887, -14.237030, -611.746155
1733469285.481186, -11.801469, 13.055881, -14.656704, 0.454845, 2.071809, -3.347579, -77.320236, -15.632553, -612.330078
1733469285.491198, -10.806528, 12.830078, -13.999047, 0.758310, 2.017613, -3.345280, -78.261154, -16.827988, -613.887695
1733469285.501180, -9.971700, 12.468404, -13.697826, 0.984697, 2.073056, -3.280644, -79.323288, -18.165009, -615.163574
1733469285.511183, -9.351752, 12.160001, -13.511527, 1.187316, 2.230791, -3.183762, -80.113907, -19.900238, -615.907532
1733469285.521196, -8.851812, 11.848605, -13.217490, 1.403930, 2.427407, -3.066639, -80.834335, -21.312408, -618.129395
1733469285.531181, -8.409184, 11.517906, -12.789975, 1.643106, 2.626383, -2.963176, -81.528305, -22.809250, -619.184631
1733469285.541187, -8.017583, 11.090690, -12.079047, 1.887612, 2.752527, -2.883703, -82.196823, -24.317139, -621.700928
1733469285.551176, -7.716961, 10.785280, -11.271453, 2.133421, 2.808336, -2.865381, -82.446625, -26.041840, -622.957458
1733469285.561204, -7.245902, 10.510695, -10.472238, 2.374928, 2.782050, -2.868331, -82.792221, -27.602844, -624.649902
1733469285.571190, -6.575675, 10.218303, -9.730484, 2.613579, 2.687842, -2.858852, -83.052689, -29.028503, -626.554871
1733469285.581187, -5.820454, 9.794529, -9.071331, 2.834929, 2.545229, -2.823030, -83.205048, -30.957962, -627.469727
1733469285.591191, -5.160103, 9.263166, -8.510190, 3.033862, 2.396331, -2.758512, -83.336655, -32.681900, -629.293152
1733469285.601178, -4.571578, 8.732102, -8.067861, 3.212578, 2.278396, -2.668088, -83.295502, -34.499832, -631.193359
1733469285.611175, -3.991733, 8.200440, -7.629124, 3.359911, 2.237956, -2.551214, -83.148376, -36.264008, -631.253784
1733469285.621185, -3.449596, 7.792528, -7.186196, 3.465063, 2.268419, -2.416904, -82.856689, -37.913757, -633.533264
1733469285.631178, -2.822165, 7.382670, -6.694936, 3.522333, 2.364532, -2.257241, -82.430786, -39.789932, -633.998474
1733469285.641177, -2.231246, 6.985832, -6.100575, 3.540843, 2.485908, -2.071488, -82.264435, -41.216522, -634.792114
1733469285.651171, -1.645265, 6.483348, -5.505616, 3.528276, 2.636173, -1.858877, -81.792404, -42.910187, -636.870972
1733469285.661188, -1.011999, 5.903503, -4.844966, 3.486175, 2.774915, -1.636384, -81.403946, -44.488998, -638.428101
1733469285.671180, -0.484826, 5.363760, -4.016573, 3.426017, 2.841819, -1.407975, -80.901627, -46.034866, -639.489868
1733469285.681167, -0.041300, 4.828207, -3.265841, 3.368149, 2.823702, -1.189843, -79.945740, -47.386230, -640.327332
1733469285.691166, 0.551863, 4.279486, -2.718167, 3.329327, 2.732918, -0.965360, -79.924606, -48.643219, -640.239441
1733469285.701166, 1.067964, 3.650559, -2.462736, 3.319120, 2.612998, -0.720256, -78.974701, -49.880951, -641.776978
1733469285.711165, 1.424550, 3.211373, -2.227954, 3.341473, 2.511397, -0.461421, -78.453201, -50.822174, -642.894165
1733469285.721191, 1.693598, 2.892196, -2.014870, 3.357583, 2.521061, -0.189914, -77.763092, -51.946167, -642.234314
1733469285.731174, 1.880795, 2.577508, -1.460313, 3.317252, 2.599333, 0.091011, -76.994385, -52.663147, -644.020325
1733469285.741168, 2.004396, 2.297536, -0.649876, 3.193225, 2.701184, 0.370238, -76.490631, -53.548203, -644.750916
1733469285.751175, 2.131887, 2.012326, 0.282366, 3.004048, 2.741159, 0.641830, -75.625443, -54.049057, -644.559265
1733469285.761174, 2.186505, 1.670554, 1.036689, 2.771530, 2.698939, 0.884764, -75.261429, -54.496506, -645.872620
1733469285.771225, 2.275389, 1.219098, 1.615039, 2.521604, 2.569516, 1.078090, -74.500107, -54.790283, -646.358643
1733469285.781167, 2.391059, 0.818069, 1.940201, 2.280128, 2.377148, 1.252869, -74.240784, -54.723297, -646.985107
1733469285.791166, 2.426972, 0.626233, 1.919551, 2.094780, 2.154163, 1.459295, -73.773819, -54.929657, -646.832397
1733469285.801165, 2.482039, 0.558298, 1.698836, 1.996206, 1.995629, 1.710137, -73.230118, -54.783691, -647.781128
1733469285.811223, 2.375946, 0.478391, 1.777695, 1.948252, 1.898706, 1.984537, -72.757874, -54.593185, -648.272644
1733469285.821179, 2.108394, 0.400430, 2.215235, 1.882761, 1.834120, 2.262359, -72.629120, -54.273285, -648.690125
1733469285.831160, 1.744176, 0.381426, 2.796577, 1.758375, 1.794291, 2.532332, -72.498886, -53.697769, -648.273315
1733469285.841165, 1.447744, 0.382623, 3.393332, 1.560747, 1.762093, 2.787404, -72.224609, -53.211533, -649.366333
1733469285.851218, 1.288380, 0.300622, 3.984550, 1.308903, 1.650475, 3.038718, -72.147781, -52.374313, -649.675171
1733469285.861179, 1.192163, 0.070180, 4.318990, 1.052324, 1.437228, 3.301139, -71.941193, -51.364578, -650.020386
1733469285.871160, 0.693570, -0.010325, 4.525041, 0.843274, 1.172772, 3.558417, -71.768631, -50.036087, -650.220703
1733469285.881172, 0.044143, 0.083348, 4.680066, 0.669386, 0.908795, 3.826823, -71.614944, -48.917114, -649.574524
1733469285.891170, -0.629376, 0.148291, 4.731242, 0.525632, 0.677668, 4.112365, -71.760620, -47.498199, -650.390442
1733469285.901205, -1.535731, 0.261118, 4.861576, 0.384511, 0.521861, 4.388239, -71.709137, -45.828903, -650.820312
1733469285.911159, -2.551321, 0.386065, 5.144391, 0.196302, 0.486870, 4.627270, -71.720657, -43.983887, -651.047852
1733469285.921159, -3.490147, 0.443675, 5.614104, -0.085414, 0.502936, 4.809312, -71.513260, -42.029404, -651.182373
1733469285.931157, -4.292953, 0.180313, 6.088904, -0.480048, 0.513568, 4.926071, -71.533295, -39.792786, -650.943115
1733469285.941167, -4.910957, -0.284012, 6.533627, -0.940734, 0.445631, 5.022066, -70.983490, -37.789246, -651.072510
1733469285.951155, -5.821202, -0.490662, 6.705710, -1.404141, 0.262175, 5.100237, -70.467957, -35.218491, -651.253357
1733469285.961159, -7.168838, -0.017957, 6.542904, -1.800679, 0.062257, 5.151901, -69.879257, -32.478348, -651.091003
1733469285.971155, -8.520515, 0.817021, 6.284929, -2.126558, -0.063813, 5.211636, -69.299713, -29.822266, -650.752747
1733469285.981152, -9.886556, 1.196802, 6.147113, -2.435960, -0.124634, 5.259497, -68.599869, -26.997421, -650.399658
1733469285.991171, -11.320833, 1.417068, 6.088754, -2.787480, -0.134934, 5.239069, -67.810425, -24.077362, -649.872314
1733469286.001170, -12.590358, 1.529895, 5.919514, -3.209562, -0.157646, 5.126620, -66.703476, -21.366226, -648.391541
1733469286.011176, -13.591135, 1.285088, 5.511003, -3.652703, -0.258252, 4.956487, -65.818146, -18.346771, -648.051880
1733469286.021157, -14.976779, 1.430685, 4.762815, -4.038043, -0.417381, 4.763391, -64.675018, -15.300797, -647.304565
1733469286.031166, -16.981025, 1.998261, 3.866187, -4.346763, -0.508363, 4.477192, -63.669434, -12.761612, -645.611328
1733469286.041160, -18.992902, 2.270002, 3.138200, -4.661160, -0.495519, 4.030560, -62.471420, -10.209702, -644.403076
1733469286.051166, -20.469227, 2.515109, 2.605340, -5.031991, -0.489299, 3.469695, -61.383255, -7.963226, -641.975342
1733469286.061172, -21.603929, 3.307290, 1.826327, -5.419271, -0.532414, 2.881508, -60.448380, -5.519791, -639.932617
1733469286.070269, -22.548442, 4.702811, 0.704943, -5.762471, -0.608164, 2.347978, -59.942230, -3.415955, -637.466064
1733469286.080272, -23.555353, 6.135890, -0.868646, -6.017294, -0.672253, 1.868252, -59.024796, -1.951904, -634.204590
1733469286.091160, -24.385243, 7.160010, -2.770391, -6.175540, -0.606424, 1.406963, -58.558258, -0.449875, -632.475464
1733469286.101158, -25.170841, 8.122778, -4.338443, -6.284553, -0.461912, 0.935840, -58.533508, 0.633255, -629.477600
1733469286.111155, -25.674072, 8.703222, -5.746533, -6.363225, -0.338274, 0.425790, -58.609680, 1.603516, -626.994568
1733469286.121156, -25.900324, 9.473108, -6.990919, -6.377319, -0.267764, -0.083608, -58.900009, 2.168640, -624.117188
1733469286.131161, -26.317813, 10.627562, -8.039580, -6.315655, -0.271025, -0.623260, -59.358017, 2.245682, -621.657532
1733469286.141160, -26.325893, 11.366622, -9.531616, -6.173374, -0.285392, -1.205723, -60.109543, 1.829880, -619.023804
1733469286.151163, -25.491813, 12.074408, -11.208455, -5.916126, -0.248419, -1.733568, -60.715317, 1.443924, -616.946960
1733469286.161158, -24.153455, 12.726080, -12.624176, -5.528094, -0.132765, -2.129386, -61.846527, 0.824722, -614.821777
1733469286.171151, -22.575227, 13.215095, -13.555820, -5.055213, 0.062876, -2.367755, -62.652161, 0.171158, -612.754761
1733469286.181154, -21.106384, 13.591284, -14.035109, -4.571415, 0.273775, -2.468137, -63.903763, -0.687546, -611.697632
1733469286.191077, -19.786880, 13.515268, -14.270789, -4.106610, 0.469590, -2.491150, -65.132141, -1.769882, -610.569397
1733469286.201152, -18.822615, 13.262231, -14.377031, -3.686715, 0.676488, -2.505137, -66.114761, -2.997009, -609.759277
1733469286.211156, -18.013824, 12.867038, -14.313435, -3.318171, 0.903600, -2.538896, -67.553802, -4.196045, -609.327393
1733469286.221150, -17.265636, 12.458977, -14.044237, -2.991798, 1.133463, -2.609342, -68.537033, -4.989258, -608.615601
1733469286.231145, -16.617854, 12.577789, -13.717429, -2.693933, 1.337953, -2.726973, -69.440842, -6.270477, -608.556824
1733469286.241157, -15.845275, 12.901305, -13.382091, -2.410178, 1.465351, -2.830746, -69.440842, -6.270477, -608.556824
1733469286.251178, -15.262587, 13.379098, -13.325827, -2.134123, 1.553124, -2.891308, -70.778473, -7.388748, -608.238892
1733469286.261171, -14.697256, 13.433267, -13.717878, -1.857528, 1.659662, -2.949518, -72.242538, -8.743561, -608.686523
1733469286.271154, -14.039898, 13.172149, -14.265551, -1.567881, 1.795087, -3.032701, -73.180725, -9.867264, -608.906372
1733469286.281147, -13.266870, 13.121572, -14.746487, -1.262207, 1.947424, -3.117065, -74.119125, -11.225906, -609.581787
1733469286.291157, -12.392687, 13.084462, -15.214104, -0.913635, 2.102720, -3.177860, -75.384216, -12.565048, -610.293701
1733469286.301159, -11.456255, 13.083265, -15.548095, -0.506809, 2.258459, -3.205449, -76.651627, -13.991287, -611.267822
1733469286.311213, -10.579528, 13.150302, -15.549143, -0.056545, 2.387975, -3.218520, -77.550018, -15.302673, -611.983887
1733469286.321141, -9.673921, 13.189208, -15.176695, 0.429024, 2.406682, -3.188478, -78.796906, -16.720093, -613.387085
1733469286.331143, -8.903138, 13.253253, -14.785243, 0.944706, 2.362026, -3.100970, -79.315430, -18.247345, -614.762024
1733469286.341154, -8.408436, 13.151649, -14.212430, 1.444008, 2.337663, -3.003085, -80.291245, -19.640182, -616.134094
1733469286.351153, -7.948450, 12.795661, -13.371317, 1.840933, 2.321830, -2.923697, -81.100464, -21.069229, -617.524292
1733469286.361148, -7.418583, 12.417377, -12.593800, 2.134826, 2.317269, -2.844136, -81.907669, -22.362854, -619.103516
1733469286.371198, -6.895750, 11.831396, -12.027571, 2.381135, 2.349030, -2.770912, -82.474167, -24.088272, -620.454346
1733469286.381142, -6.458509, 11.256040, -11.448025, 2.599834, 2.376280, -2.711392, -82.756226, -25.298538, -622.244324
1733469286.391142, -5.984008, 10.875362, -10.793510, 2.813738, 2.352115, -2.639716, -82.833633, -26.930939, -623.902222
1733469286.401186, -5.489156, 10.371083, -10.207679, 3.037095, 2.303173, -2.546109, -83.145966, -28.416092, -625.075684
1733469286.411145, -5.159355, 9.842264, -9.624391, 3.253440, 2.267563, -2.448815, -83.675888, -29.958298, -626.748169
1733469286.421140, -4.759374, 9.300725, -8.964190, 3.441687, 2.265011, -2.346195, -83.463562, -31.642700, -627.968140
1733469286.431189, -4.449474, 8.812308, -8.226477, 3.578958, 2.267701, -2.248485, -83.243759, -33.065735, -629.532104
1733469286.441141, -4.131794, 8.354567, -7.531859, 3.679004, 2.302988, -2.148186, -83.342133, -34.795502, -630.954102
1733469286.451137, -3.776404, 7.779060, -6.853402, 3.743194, 2.379227, -2.046231, -83.237000, -36.552658, -632.686401
1733469286.461141, -3.152266, 7.133225, -6.295703, 3.762136, 2.530507, -1.930432, -82.935455, -38.119431, -633.793640
1733469286.471140, -2.433407, 6.543802, -5.622334, 3.733747, 2.693498, -1.786448, -82.519745, -39.786804, -634.544800
1733469286.481140, -1.793556, 6.075287, -4.937742, 3.687019, 2.802864, -1.622987, -82.204742, -41.285751, -636.793579
1733469286.491137, -1.268927, 5.810279, -4.377050, 3.653929, 2.892072, -1.456648, -81.459122, -42.845062, -637.836304
1733469286.501157, -0.764499, 5.569512, -3.746926, 3.626960, 2.948335, -1.291940, -81.319366, -44.093384, -638.752563
1733469286.511150, -0.164751, 5.350293, -3.016694, 3.614384, 2.925770, -1.108858, -80.480743, -45.566299, -639.865234
1733469286.521157, 0.489165, 5.143942, -2.376245, 3.599348, 2.862074, -0.889252, -79.941284, -46.873810, -640.984863
1733469286.531140, 1.135151, 4.889109, -1.969081, 3.570062, 2.808768, -0.626782, -78.977264, -48.068726, -642.178833
1733469286.541149, 1.664269, 4.591480, -1.438167, 3.534431, 2.798404, -0.310208, -78.409821, -49.125961, -642.604431
1733469286.551140, 2.066046, 4.162768, -0.774524, 3.457162, 2.827965, 0.036517, -77.686661, -49.888092, -643.630371
1733469286.561147, 2.536058, 3.713556, -0.013318, 3.310658, 2.856778, 0.405999, -77.366333, -50.636414, -644.601746
1733469286.571148, 2.771737, 3.232172, 0.662595, 3.123853, 2.831281, 0.789747, -76.323547, -51.233704, -644.447021
1733469286.581143, 2.620753, 2.790442, 1.168520, 2.928076, 2.795025, 1.151494, -75.612091, -51.603195, -646.378418
1733469286.591188, 2.255188, 2.354997, 1.671153, 2.723181, 2.780079, 1.464876, -75.149887, -51.840775, -646.712708
1733469286.600272, 1.941398, 1.796399, 2.356493, 2.485933, 2.771390, 1.722718, -74.485062, -51.772049, -647.758728
1733469286.611133, 1.698088, 1.348534, 3.144335, 2.192528, 2.703148, 1.940803, -73.858887, -51.477310, -648.326172
1733469286.621137, 1.503110, 1.076044, 3.627964, 1.880659, 2.536281, 2.144713, -73.217072, -51.375534, -649.392334
1733469286.631144, 1.373224, 0.816872, 3.695151, 1.403292, 2.137836, 2.593755, -72.607544, -50.885147, -649.942505
1733469286.641136, 1.232266, 0.623839, 3.563171, 1.255680, 1.964396, 2.820926, -72.247437, -50.325226, -650.253723
1733469286.651141, 0.943764, 0.427964, 3.351882, 1.153512, 1.797717, 3.042406, -71.720169, -49.605026, -650.661377
1733469286.661135, 0.569970, 0.370802, 3.488651, 1.052411, 1.622236, 3.232226, -71.558197, -48.822174, -651.143066
1733469286.671134, 0.221015, 0.330849, 4.039916, 0.914649, 1.354027, 3.398854, -71.129456, -48.006607, -650.987549
1733469286.681142, -0.165649, 0.285359, 4.879084, 0.750013, 0.991391, 3.573888, -71.039413, -46.935959, -651.764893
1733469286.691140, -0.558896, 0.087987, 5.540183, 0.567530, 0.653081, 3.740784, -70.779877, -45.888748, -652.101990
1733469286.701148, -1.211765, -0.217872, 5.885696, 0.345767, 0.384548, 3.882120, -70.648026, -44.539749, -652.506592
1733469286.711140, -1.872715, -0.492008, 6.067954, 0.068682, 0.188949, 4.025157, -70.866882, -43.141647, -652.194458
1733469286.721134, -2.335993, -0.690278, 6.033089, -0.239538, 0.102552, 4.172832, -70.608185, -41.740097, -652.126282
1733469286.731140, -2.900276, -0.553809, 5.905598, -0.551770, 0.099149, 4.336447, -70.376419, -39.973068, -652.175049
1733469286.741135, -3.562871, -0.057910, 5.955577, -0.862358, 0.100534, 4.578642, -70.041031, -37.904526, -652.154724
1733469286.751142, -4.080019, 0.299874, 6.206818, -1.196038, 0.050344, 4.878641, -69.521194, -35.845261, -651.956238
1733469286.761146, -4.939388, 0.280271, 6.513575, -1.558608, -0.038721, 5.115078, -69.142136, -33.647476, -652.361694
1733469286.771134, -6.527043, 0.238522, 6.775291, -1.943398, -0.108608, 5.254873, -68.469879, -31.419769, -651.276306
1733469286.781138, -8.317606, 0.390105, 6.849063, -2.326293, -0.146780, 5.340405, -67.941666, -28.578171, -651.470032
1733469286.791149, -10.028862, 0.658705, 6.701071, -2.705859, -0.114030, 5.373035, -66.899750, -25.686523, -651.126099
1733469286.801140, -11.808951, 0.748188, 6.566996, -3.139466, -0.099774, 5.316234, -66.156799, -22.980515, -650.845215
1733469286.811129, -13.660866, 0.614412, 6.808212, -3.644371, -0.315270, 5.111866, -65.262604, -20.097946, -650.299805
1733469286.821129, -15.669002, 0.415693, 7.087286, -4.136720, -0.638138, 4.750654, -64.098480, -17.185455, -649.140259
1733469286.831132, -17.898902, 0.713023, 6.484396, -4.569590, -0.856607, 4.225901, -63.114075, -14.389572, -647.531189
1733469286.841131, -20.247913, 1.146224, 5.132121, -4.952124, -0.963064, 3.562638, -61.946152, -11.533585, -645.710754
1733469286.851134, -22.129905, 1.783531, 3.757251, -5.241696, -1.085594, 2.908585, -60.986588, -9.254074, -644.035889
1733469286.861137, -23.161058, 2.564938, 2.246659, -5.367995, -1.207723, 2.314553, -60.289505, -6.910324, -641.899902
1733469286.871132, -24.013693, 3.111415, 0.553210, -5.373294, -1.255758, 1.738894, -59.817108, -5.136536, -639.331543
1733469286.881135, -24.707862, 3.455880, -0.949451, -5.387010, -1.261011, 1.229445, -59.626083, -3.290207, -637.379517
1733469286.891135, -24.988732, 3.848829, -1.959056, -5.499034, -1.205085, 0.788425, -59.278091, -1.876480, -634.907715
1733469286.901126, -25.264214, 4.814590, -2.706046, -5.686764, -1.016678, 0.404867, -59.076126, -0.540176, -632.541321
1733469286.911120, -25.740661, 6.062268, -3.619285, -5.875981, -0.721627, 0.019995, -58.917038, 0.471924, -629.661987
1733469286.921134, -26.206782, 6.837990, -4.680515, -6.007169, -0.428539, -0.421258, -59.464645, 1.135284, -627.169434
1733469286.931136, -26.685323, 7.905504, -5.673809, -6.084529, -0.148591, -0.917578, -59.616074, 1.509171, -624.350952
1733469286.941133, -26.652702, 9.216330, -6.804471, -6.114937, 0.038310, -1.376102, -60.226044, 1.702789, -622.095886
1733469286.951131, -25.912145, 10.708516, -8.034342, -6.078403, 0.176341, -1.761254, -61.179764, 1.588058, -619.314331
1733469286.961133, -24.796597, 12.032360, -9.675717, -5.916173, 0.266347, -2.067600, -61.738312, 1.124252, -617.480225
1733469286.971133, -23.598449, 13.101670, -11.283424, -5.619949, 0.317896, -2.277793, -62.828339, 0.343903, -614.362976
1733469286.981137, -22.507591, 13.859884, -12.780248, -5.168894, 0.402711, -2.414535, -63.764236, -0.304352, -612.887085
1733469286.991122, -21.778855, 14.183550, -14.367455, -4.588319, 0.569061, -2.534360, -64.817627, -1.498367, -611.381042
1733469287.001134, -21.213973, 14.161852, -15.616180, -3.981038, 0.780025, -2.651493, -65.986176, -2.368591, -610.321655
1733469287.011124, -20.416555, 13.726557, -16.177172, -3.408106, 0.959258, -2.777265, -67.229691, -3.595490, -609.671753
1733469287.021127, -19.617789, 13.334955, -16.160412, -2.895709, 1.120180, -2.926146, -68.477356, -4.698029, -609.110046
1733469287.031126, -18.760665, 12.929886, -16.003442, -2.436522, 1.230367, -3.098572, -69.534897, -6.150620, -609.074951
1733469287.041123, -17.867777, 12.505215, -15.714193, -1.996471, 1.316036, -3.271271, -71.110580, -7.341614, -608.791443
1733469287.051123, -16.876877, 12.232575, -15.425692, -1.610665, 1.417683, -3.412870, -72.127808, -8.823380, -608.737366
1733469287.061135, -15.845425, 12.359767, -14.979472, -1.291499, 1.538113, -3.473386, -73.496048, -10.316406, -609.155273
1733469287.071124, -14.661492, 12.611607, -14.509461, -1.002533, 1.689468, -3.491942, -74.704544, -11.901398, -609.038879
1733469287.081119, -13.461100, 12.393585, -14.197017, -0.724304, 1.827616, -3.473287, -76.035278, -13.245361, -610.304077
1733469287.091122, -12.362311, 12.045079, -13.841179, -0.445509, 1.942907, -3.447879, -77.230347, -14.628998, -611.030518
1733469287.101169, -11.468974, 12.070667, -13.406482, -0.181680, 2.018900, -3.428506, -78.276886, -16.255920, -612.104004
1733469287.111118, -10.669760, 12.287193, -12.868385, 0.057992, 2.033996, -3.405629, -78.950592, -17.635086, -612.913818
1733469287.121118, -9.913491, 12.506861, -12.346599, 0.287098, 2.018893, -3.386854, -79.912994, -19.346329, -614.168640
1733469287.131115, -9.132084, 12.580482, -12.079645, 0.527868, 1.980178, -3.327368, -80.789444, -21.013107, -615.300171
1733469287.141188, -8.187122, 12.502222, -12.035053, 0.795053, 1.989049, -3.219249, -81.479568, -22.415131, -616.065186
1733469287.151118, -7.318027, 12.150573, -12.258462, 1.084088, 2.068226, -3.107086, -82.211502, -23.976486, -617.508789
1733469287.161129, -6.740426, 11.637616, -12.376676, 1.375589, 2.177636, -3.002284, -82.835327, -25.502609, -619.182495
1733469287.170442, -6.223428, 11.307366, -12.141745, 1.665346, 2.242422, -2.917423, -83.315033, -27.164444, -619.330200
1733469287.181125, -5.701492, 11.102362, -11.544840, 1.945617, 2.228818, -2.829620, -83.890594, -28.547165, -621.522583
1733469287.191117, -5.213973, 11.008240, -10.814908, 2.220796, 2.173655, -2.724322, -84.071930, -30.025513, -623.055176
1733469287.201118, -4.729895, 10.944345, -10.180145, 2.485536, 2.104995, -2.592348, -84.212143, -31.664124, -624.314453
1733469287.211111, -4.157980, 10.615142, -9.643395, 2.707932, 2.064973, -2.417703, -84.201324, -33.038315, -625.535095
1733469287.221180, -3.607613, 10.001179, -9.162310, 2.871692, 2.087868, -2.214265, -84.303574, -34.353638, -626.314636
1733469287.231116, -3.213617, 9.354445, -8.764873, 2.978052, 2.208688, -2.001680, -84.386932, -35.852066, -627.654663
1733469287.241114, -3.031957, 8.738836, -8.332271, 3.032892, 2.394342, -1.781806, -84.091156, -36.985336, -629.159058
1733469287.251134, -3.043928, 8.416068, -7.717111, 3.068276, 2.590792, -1.554139, -83.958389, -38.211349, -629.875488
1733469287.261122, -2.954594, 8.117690, -7.090428, 3.108005, 2.745525, -1.322912, -83.716415, -39.551666, -631.731689
1733469287.271179, -2.831892, 7.730728, -6.471826, 3.156645, 2.848709, -1.101779, -82.911423, -40.679214, -632.090149
1733469287.281119, -2.680608, 7.187244, -5.967997, 3.199622, 2.922959, -0.896635, -82.739380, -41.745560, -634.981384
1733469287.291147, -2.476502, 6.638373, -5.549311, 3.251882, 2.959263, -0.699074, -82.297684, -42.655045, -635.719727
1733469287.301130, -2.336442, 6.285976, -5.058649, 3.309402, 2.979249, -0.503664, -81.557327, -43.768936, -636.805298
1733469287.311119, -2.130839, 5.977873, -4.525490, 3.353750, 2.986691, -0.318890, -81.003082, -44.746262, -638.143799
1733469287.321116, -1.897554, 5.588216, -3.967641, 3.374176, 2.979272, -0.125243, -80.354248, -45.624435, -639.205017
1733469287.331107, -1.553089, 5.313033, -3.500173, 3.381506, 2.991133, 0.103335, -79.863327, -46.284286, -640.531616
1733469287.341110, -1.090110, 5.000589, -3.162142, 3.401478, 3.038629, 0.394899, -79.129974, -46.991959, -641.630371
1733469287.351173, -0.625485, 4.696526, -2.832939, 3.425226, 3.118376, 0.735552, -78.053665, -47.712189, -642.823242
1733469287.361117, -0.248997, 4.281880, -2.400935, 3.421776, 3.222526, 1.093760, -77.595673, -47.941025, -644.014038
1733469287.371109, -0.072125, 3.818602, -1.766921, 3.360718, 3.316764, 1.413489, -76.900375, -48.440384, -644.405457
1733469287.381112, -0.125396, 3.331981, -0.928651, 3.251299, 3.307114, 1.656349, -76.413162, -48.737732, -645.564453
1733469287.391119, -0.275632, 2.827702, 0.106093, 3.125891, 3.189445, 1.830997, -75.836655, -48.774109, -646.892517
1733469287.401109, -0.403273, 2.321927, 1.156100, 2.987042, 2.957507, 1.926582, -75.031387, -49.268738, -647.658447
1733469287.411117, -0.582390, 1.958008, 2.256685, 2.823471, 2.618337, 1.939077, -74.275497, -49.293625, -648.491821
1733469287.421109, -0.662895, 1.647061, 3.277961, 2.647633, 2.154973, 1.932190, -73.854828, -49.244141, -648.609375
1733469287.431106, -0.502034, 1.409586, 4.142567, 2.489098, 1.649451, 2.010126, -73.121704, -49.386734, -649.151855
1733469287.441117, -0.108787, 1.212214, 4.556016, 2.374087, 1.248498, 2.231409, -72.638885, -49.114456, -649.212341
1733469287.451177, 0.328455, 1.092055, 4.377947, 2.280275, 1.000357, 2.555527, -72.641861, -48.738327, -649.122437
1733469287.461109, 0.363919, 1.009605, 4.217835, 2.151920, 0.899607, 2.892732, -72.569962, -48.348297, -649.790466
1733469287.471124, 0.046687, 0.635511, 4.384681, 1.935365, 0.906958, 3.178389, -72.868118, -47.807663, -649.086121
1733469287.481111, -0.601394, 0.225504, 4.743961, 1.615949, 1.036801, 3.380325, -72.725555, -46.984787, -649.985474
1733469287.490336, -1.286285, -0.010774, 5.078850, 1.198995, 1.215400, 3.487849, -72.256134, -45.947037, -650.410889
1733469287.501115, -1.893963, -0.168791, 5.680393, 0.733487, 1.296667, 3.512932, -71.832123, -44.706497, -650.349976
1733469287.511109, -2.263418, -0.278924, 6.336404, 0.310648, 1.200042, 3.559948, -71.481247, -43.568665, -651.150818
1733469287.521117, -2.285565, -0.087089, 6.766762, 0.009319, 0.943788, 3.696853, -71.210938, -41.937088, -651.271790
1733469287.531114, -2.143409, 0.140210, 6.807164, -0.185048, 0.636229, 3.893060, -71.184891, -40.618240, -651.998352
1733469287.541127, -2.157774, 0.256628, 6.606949, -0.332936, 0.297531, 4.126952, -70.953262, -38.906601, -651.851685
1733469287.551115, -2.327463, 0.300023, 6.547693, -0.482114, -0.060050, 4.402336, -70.739960, -37.117310, -651.655518
1733469287.561119, -2.553865, 0.223110, 6.468983, -0.621597, -0.361778, 4.690024, -70.402069, -35.015976, -651.429565
1733469287.571111, -3.223194, 0.399083, 6.433220, -0.751885, -0.557801, 4.999307, -70.090683, -32.728073, -650.930664
1733469287.581107, -4.448427, 0.875230, 6.564452, -0.948490, -0.530073, 5.269635, -69.361664, -30.404785, -650.743591
1733469287.591103, -6.348076, 0.838868, 6.991518, -1.347249, -0.333338, 5.395895, -68.499298, -28.099716, -650.812744
1733469287.601108, -8.338855, 0.476446, 7.934684, -1.980961, -0.175356, 5.447508, -67.786819, -25.192184, -649.942261
1733469287.611103, -9.970503, 0.527323, 9.079411, -2.743346, -0.113269, 5.406782, -66.779816, -22.287704, -650.143066
1733469287.621101, -11.465383, 0.566678, 9.610774, -3.484738, -0.178405, 5.296694, -65.813248, -19.304245, -649.437378
1733469287.631108, -12.728923, 0.511012, 9.375694, -4.059661, -0.388307, 5.152832, -64.596085, -16.366486, -647.884644
1733469287.641100, -14.070424, 0.851588, 8.502558, -4.415032, -0.703218, 4.964393, -63.331772, -13.215820, -646.232178
1733469287.651110, -15.379454, 1.460762, 7.373094, -4.598762, -1.061043, 4.749854, -62.217407, -10.372620, -644.657837
1733469287.661018, -16.788292, 2.214637, 6.300192, -4.740426, -1.330452, 4.484956, -61.011902, -7.675507, -642.744995
1733469287.671107, -18.816031, 2.946215, 5.709872, -5.014499, -1.496740, 4.121474, -59.769852, -5.212036, -640.553162
1733469287.681099, -21.211879, 3.611504, 5.508908, -5.453424, -1.515687, 3.654306, -58.617996, -3.022171, -638.126648
1733469287.691116, -23.555353, 4.409970, 4.805163, -5.962271, -1.296744, 3.087235, -57.683212, -0.841339, -635.304260
1733469287.701096, -25.416246, 5.057452, 3.420267, -6.444427, -0.996725, 2.446304, -57.113068, 0.947037, -632.369507
1733469287.711098, -26.647165, 6.090101, 2.048240, -6.800611, -0.796567, 1.747833, -57.113068, 0.947037, -632.369507
1733469287.721122, -27.219230, 7.368156, 0.609025, -6.957711, -0.719313, 1.120018, -56.371918, 2.321976, -629.352905
1733469287.731110, -27.062709, 8.989030, -1.026963, -6.926791, -0.710491, 0.557978, -56.006775, 3.566360, -626.298340
1733469287.741105, -26.720637, 10.377517, -2.699911, -6.775118, -0.635479, 0.120469, -55.738113, 4.191757, -623.217773
1733469287.751112, -26.203490, 12.167183, -4.242675, -6.588439, -0.429963, -0.200667, -55.685150, 4.444931, -620.110840
1733469287.761104, -25.865907, 13.936498, -5.465813, -6.424317, -0.152742, -0.505933, -56.365295, 4.575485, -617.027710
1733469287.771113, -25.758617, 14.988002, -6.356306, -6.272344, 0.118218, -0.842257, -56.702805, 4.522934, -613.765686
1733469287.781122, -25.563490, 15.563957, -7.254132, -6.078680, 0.371405, -1.194999, -57.612808, 4.377197, -611.578247
1733469287.791105, -25.095274, 15.992519, -8.236802, -5.826310, 0.574230, -1.544830, -58.070801, 3.036133, -609.622375
1733469287.801110, -24.416667, 16.242863, -9.088988, -5.543290, 0.707222, -1.861655, -59.121979, 2.449493, -607.220764
1733469287.811117, -23.690027, 16.806847, -9.743802, -5.226853, 0.722947, -2.107512, -59.960175, 1.339050, -605.257446
1733469287.821144, -22.966978, 17.584962, -10.539725, -4.820593, 0.715418, -2.268894, -60.955551, 0.216965, -603.252258
1733469287.831146, -22.316952, 17.804780, -12.048670, -4.297605, 0.840297, -2.367911, -61.944229, -1.184952, -602.497131
1733469287.841171, -21.712566, 17.473333, -14.046781, -3.673910, 1.119564, -2.437731, -63.133301, -2.447723, -601.427246
1733469287.851130, -21.121647, 16.822708, -15.770008, -2.996330, 1.497609, -2.494615, -64.130600, -3.586884, -600.081421
1733469287.861149, -20.469676, 15.970971, -16.838869, -2.297072, 1.873649, -2.577584, -65.610855, -4.638550, -599.973938
1733469287.871165, -19.836559, 15.080478, -17.104177, -1.597182, 2.174809, -2.692701, -66.905746, -5.952362, -600.137573
1733469287.881104, -18.420090, 14.085388, -15.412823, -0.959224, 2.353215, -2.815241, -68.401001, -6.937820, -601.271729
1733469287.891094, -17.709161, 13.749750, -13.884873, -0.471412, 2.422837, -2.977029, -70.149506, -8.112717, -601.711548
1733469287.901104, -17.039084, 13.302035, -12.538434, -0.137004, 2.417089, -3.213486, -71.458130, -9.521088, -603.168701
1733469287.911091, -16.219070, 13.021464, -11.574169, 0.091433, 2.361980, -3.493241, -72.899368, -10.812912, -603.858398
1733469287.921090, -15.292365, 13.062315, -11.038916, 0.281355, 2.267197, -3.765652, -74.437424, -12.108612, -604.603027
1733469287.931092, -14.184897, 13.226169, -10.854263, 0.483333, 2.167148, -3.981412, -75.666092, -13.684860, -606.109070
1733469287.941090, -12.992584, 13.346028, -10.918906, 0.698376, 2.086371, -4.110253, -77.154572, -15.491028, -607.260925
1733469287.951105, -11.759720, 13.281235, -11.055077, 0.935231, 2.068784, -4.141092, -78.432999, -17.040024, -607.969238
1733469287.961105, -10.686669, 13.036278, -11.141717, 1.177880, 2.128900, -4.079819, -79.605286, -18.954300, -609.358948
1733469287.971092, -9.954342, 12.763489, -11.022156, 1.421844, 2.269317, -3.995617, -80.583496, -20.922348, -610.185486
1733469287.981089, -9.429414, 12.586318, -10.569054, 1.639985, 2.455660, -3.929091, -81.648819, -22.456329, -612.507568
