SamplingTime, AccelerationX, AccelerationY, AccelerationZ, GyroX, GyroY, GyroZ, MagneticFieldX, MagneticFieldY, MagneticFieldZ
1733469327.041504, -5.402067, -3.320159, -8.024765, 0.115132, 0.082241, 0.038236, -69.760513, -29.796799, -647.501221
1733469327.051343, -5.466860, -3.396325, -7.844602, 0.199549, -0.004934, 0.008099, -69.695572, -29.793045, -646.712646
1733469327.061492, -5.492299, -3.573945, -7.669526, 0.252472, -0.056884, -0.023241, -69.676346, -29.864212, -647.579590
1733469327.071520, -5.497835, -3.614197, -7.445668, 0.266563, -0.078337, -0.051168, -69.782883, -29.973511, -647.395813
1733469327.081517, -5.433491, -3.602076, -7.166893, 0.237605, -0.083279, -0.062333, -69.392944, -30.186127, -647.812256
1733469327.091519, -5.317971, -3.638289, -6.978799, 0.175920, -0.071709, -0.059971, -69.648575, -30.355255, -647.915344
1733469327.101404, -5.279364, -3.708469, -6.939294, 0.105636, -0.032002, -0.049432, -69.502014, -30.436615, -647.229065
1733469327.111518, -5.292532, -3.775207, -7.014861, 0.040291, 0.031001, -0.039536, -69.801971, -30.477249, -647.841797
1733469327.121512, -5.281908, -3.768025, -7.079056, -0.020621, 0.092026, -0.032729, -69.638535, -30.471954, -647.018677
1733469327.131514, -5.258265, -3.778200, -7.200861, -0.059623, 0.136132, -0.030977, -69.698334, -30.555420, -647.841187
1733469327.141525, -5.229834, -3.755305, -7.296479, -0.076757, 0.151510, -0.029956, -69.361130, -30.520157, -647.751099
1733469327.151381, -5.209783, -3.663428, -7.320272, -0.084904, 0.120962, -0.027691, -69.308090, -30.450333, -647.770752
1733469327.161511, -5.139902, -3.624672, -7.386262, -0.076204, 0.067332, -0.021810, -69.609711, -30.455597, -648.167175
1733469327.171512, -5.166986, -3.636493, -7.527669, -0.063561, 0.004646, -0.023387, -69.633759, -30.439926, -647.595398
1733469327.181508, -5.258116, -3.655647, -7.717260, -0.032932, -0.029736, -0.036580, -69.685486, -30.392410, -648.091797
1733469327.191500, -5.306149, -3.533093, -7.952341, 0.023981, -0.048564, -0.053916, -69.348190, -30.481186, -648.022705
1733469327.201401, -5.297620, -3.454534, -8.000075, 0.085381, -0.069544, -0.068534, -69.256836, -30.493973, -647.498291
1733469327.211506, -5.208586, -3.446753, -8.010849, 0.136547, -0.098551, -0.071938, -69.762024, -30.443115, -648.034424
1733469327.221516, -5.130625, -3.397522, -8.034193, 0.182758, -0.097458, -0.063175, -69.807190, -30.515411, -647.085327
1733469327.231508, -5.109526, -3.366248, -8.102577, 0.228308, -0.059882, -0.042903, -69.714340, -30.579788, -647.733093
1733469327.241502, -5.070620, -3.425504, -8.084321, 0.253492, -0.000791, -0.023103, -69.513397, -30.747055, -647.287415
1733469327.251407, -5.074810, -3.472041, -7.970896, 0.258534, 0.078787, -0.006028, -69.652344, -30.784485, -647.717773
1733469327.261246, -5.104438, -3.494188, -7.933187, 0.246991, 0.195886, 0.003558, -69.570374, -31.019135, -647.446228
1733469327.271506, -5.116559, -3.528006, -7.968502, 0.240697, 0.333195, 0.010921, -69.377151, -31.043716, -648.349609
1733469327.281509, -5.000440, -3.509151, -7.892336, 0.239877, 0.425675, 0.013892, -69.389557, -31.314651, -648.553223
1733469327.291502, -4.814440, -3.520674, -7.718457, 0.248982, 0.480448, 0.016374, -69.138962, -31.373184, -648.730164
1733469327.301417, -4.618565, -3.409343, -7.626280, 0.269713, 0.546797, 0.026741, -69.129807, -31.443176, -648.221924
1733469327.311251, -4.358943, -3.338864, -7.640346, 0.302894, 0.639235, 0.057252, -68.886169, -31.459854, -648.942383
1733469327.321502, -3.889979, -3.260454, -7.590218, 0.341220, 0.737337, 0.130933, -68.572678, -31.707855, -648.656128
1733469327.331505, -3.343503, -3.137452, -7.350049, 0.389504, 0.811542, 0.250007, -68.209106, -31.758743, -649.570251
1733469327.341498, -2.734777, -2.986767, -7.191284, 0.469633, 0.872289, 0.436680, -67.675186, -31.672531, -650.099609
1733469327.351502, -2.040608, -2.864064, -6.745065, 0.595499, 0.911603, 0.709123, -67.510696, -31.623245, -649.726257
1733469327.361495, -1.613393, -2.551920, -6.504597, 0.708886, 1.080674, 0.981546, -67.092636, -31.486282, -650.269165
1733469327.371506, -1.025018, -2.230498, -5.795764, 0.758770, 1.216842, 1.311223, -66.472046, -31.380981, -650.157227
1733469327.381488, -0.339977, -1.877952, -4.624550, 0.765495, 1.251064, 1.710859, -65.949249, -30.990631, -651.305603
1733469327.391491, -0.065242, -1.142034, -3.470096, 0.756875, 1.209895, 2.158535, -65.199356, -30.533905, -651.925049
1733469327.401494, -0.577601, -0.498144, -2.347515, 0.702309, 1.148267, 2.534443, -64.799057, -29.998993, -651.764343
1733469327.411490, -1.661426, -0.560842, -0.900369, 0.479067, 1.005393, 2.724381, -64.231293, -29.385406, -652.630493
1733469327.421493, -2.335693, -0.594211, 0.810737, 0.057796, 0.711994, 2.818329, -63.579773, -28.467484, -652.056763
1733469327.431515, -2.707393, -0.011971, 2.279729, -0.455633, 0.291717, 2.888293, -63.104187, -27.315613, -652.559692
1733469327.441240, -3.032705, 0.423774, 2.768296, -0.978128, -0.035869, 2.951091, -62.554794, -25.915405, -652.572144
1733469327.451492, -3.150769, 0.942268, 2.610428, -1.466077, -0.220071, 3.072486, -61.907333, -24.495148, -651.767090
1733469327.461501, -2.858228, 1.828721, 2.287510, -1.905547, -0.305702, 3.313156, -61.488510, -22.699326, -651.734924
1733469327.471492, -3.016993, 2.562694, 2.504933, -2.340460, -0.361601, 3.600608, -60.882660, -20.826050, -651.020386
1733469327.481498, -3.993977, 2.639009, 3.282750, -2.858494, -0.421280, 3.798779, -59.904572, -18.586197, -649.839050
1733469327.491496, -5.242105, 2.758719, 3.998915, -3.459510, -0.551734, 3.955864, -59.188660, -16.171310, -649.355103
1733469327.501499, -6.906524, 3.373729, 4.369717, -4.042542, -0.776112, 4.069540, -58.239166, -13.622467, -647.337036
1733469327.511552, -9.226505, 3.440767, 4.080917, -4.558054, -1.002642, 4.031380, -57.595596, -10.972076, -646.510742
1733469327.521510, -12.096255, 2.995745, 2.791789, -5.003529, -1.080306, 3.809119, -56.500595, -8.503281, -644.100952
1733469327.530799, -15.305233, 2.161066, 0.686238, -5.407392, -0.924225, 3.364091, -55.368408, -6.116425, -642.274109
1733469327.541516, -19.038991, 1.178396, -1.693748, -5.783129, -0.742530, 2.605665, -55.320572, -3.847031, -640.479187
1733469327.551508, -22.761974, 0.077213, -4.668843, -5.916935, -0.604364, 1.535217, -54.594513, -2.255753, -637.754272
1733469327.561297, -25.017761, -0.884209, -8.310274, -5.581301, -0.474891, 0.396384, -54.457275, -1.180634, -635.819702
1733469327.571499, -25.546730, -0.131831, -10.704775, -4.977899, -0.608276, -0.635951, -54.776031, -0.450821, -633.312500
1733469327.581542, -25.321376, 1.839495, -10.853664, -4.402784, -1.107388, -1.451504, -55.209442, -0.058212, -630.852783
1733469327.591487, -24.467544, 4.466682, -10.558729, -4.024485, -1.698569, -1.993255, -56.224884, 0.268768, -628.865662
1733469327.601504, -24.161984, 6.527192, -10.846631, -3.873354, -2.118149, -2.384972, -57.423584, 0.251434, -626.248230
1733469327.611507, -24.596083, 7.908796, -11.855338, -3.925731, -2.231890, -2.759959, -58.746445, -0.022888, -624.761353
1733469327.621492, -25.190144, 9.272893, -13.636325, -4.076629, -1.999150, -3.138726, -60.131790, -0.676239, -622.998779
1733469327.631487, -25.203462, 10.461464, -15.612739, -4.212778, -1.593728, -3.515984, -61.784500, -1.534149, -620.183899
1733469327.641505, -24.556878, 11.407623, -17.684022, -4.191365, -1.130674, -3.858621, -63.425415, -2.410690, -619.066528
1733469327.651492, -23.494899, 12.493244, -19.747375, -3.958732, -0.690121, -4.159067, -65.008667, -3.708252, -617.708313
1733469327.661507, -22.076185, 13.135039, -21.515344, -3.554032, -0.223310, -4.418424, -66.758850, -5.271957, -616.099365
1733469327.671488, -20.478355, 13.251457, -22.960843, -3.016384, 0.301192, -4.622445, -68.736572, -6.955353, -615.958984
1733469327.681255, -18.752884, 13.382540, -23.802554, -2.351204, 0.843324, -4.762387, -70.450714, -8.771118, -615.517578
1733469327.691498, -16.717962, 13.434314, -23.929297, -1.640473, 1.286256, -4.867363, -72.049225, -10.697098, -616.394165
1733469327.701495, -14.703989, 13.651139, -22.943485, -0.971867, 1.533926, -4.933249, -73.795990, -12.820511, -616.722961
1733469327.711494, -12.897415, 14.041095, -21.627422, -0.375914, 1.714823, -4.944979, -75.039429, -15.147141, -617.494141
1733469327.721475, -11.155932, 14.231584, -20.398299, 0.138665, 1.864321, -4.896937, -76.277740, -17.347565, -619.220337
1733469327.731547, -9.605836, 14.244452, -19.091065, 0.587614, 1.993824, -4.803289, -77.528015, -19.318329, -620.250305
1733469327.741489, -8.206126, 14.066833, -17.918504, 0.992532, 2.124708, -4.661627, -78.618637, -21.579483, -621.554688
1733469327.751483, -6.816142, 13.674483, -16.588974, 1.342264, 2.199019, -4.465059, -79.419861, -24.091583, -622.468689
1733469327.761338, -5.650316, 13.159580, -15.343990, 1.672304, 2.256522, -4.241523, -79.814621, -26.006561, -624.390564
1733469327.771483, -4.881777, 12.519280, -14.536246, 1.992230, 2.383610, -4.030977, -80.277420, -28.174118, -625.998657
1733469327.781474, -4.282479, 11.914595, -13.838785, 2.300387, 2.563782, -3.826844, -80.699982, -30.120483, -627.144653
1733469327.791468, -3.582474, 11.519103, -12.749573, 2.584930, 2.676093, -3.621258, -80.931061, -32.387177, -628.037415
1733469327.801476, -2.851793, 11.191247, -11.373954, 2.862288, 2.642112, -3.413736, -80.701401, -34.674957, -630.355652
1733469327.811483, -2.053028, 10.727819, -10.055348, 3.115738, 2.524494, -3.218076, -80.716187, -36.727402, -631.692078
1733469327.821477, -1.373524, 10.233716, -8.822483, 3.311619, 2.347608, -3.019096, -80.726746, -38.595795, -632.576721
1733469327.830579, -0.696563, 9.755025, -7.718906, 3.455616, 2.221348, -2.784184, -80.726746, -38.595795, -632.576721
1733469327.841487, 0.054767, 9.199121, -6.984186, 3.549230, 2.200344, -2.513366, -79.819962, -42.507553, -634.577698
1733469327.851487, 0.786645, 8.613140, -6.224625, 3.598049, 2.238333, -2.203771, -79.255936, -44.212738, -635.919800
1733469327.861473, 1.399860, 8.218995, -5.479879, 3.610471, 2.371226, -1.839172, -78.817184, -45.598816, -636.817078
1733469327.871472, 2.107795, 7.882161, -4.956446, 3.569673, 2.615584, -1.424280, -78.296997, -46.929810, -637.635437
1733469327.881472, 2.810643, 7.378032, -4.126107, 3.461820, 2.858091, -0.954799, -77.382965, -48.099960, -638.695007
1733469327.890677, 3.367744, 6.617873, -3.125481, 3.282703, 3.071009, -0.457278, -77.382965, -48.099960, -638.695007
1733469327.901472, 3.616442, 5.795165, -2.235436, 3.096452, 3.228572, 0.048465, -75.723633, -49.581512, -640.666626
1733469327.911486, 3.541174, 5.124639, -1.520318, 2.931417, 3.360072, 0.518689, -75.071045, -50.062958, -642.331909
1733469327.921471, 3.261950, 4.469376, -0.969203, 2.786107, 3.451869, 0.938340, -74.389923, -50.218628, -643.767334
1733469327.931466, 2.969259, 3.718644, -0.120309, 2.623026, 3.446227, 1.295373, -73.714020, -50.552704, -644.921631
1733469327.941486, 2.501641, 2.940080, 0.683844, 2.403928, 3.357199, 1.560472, -73.714020, -50.552704, -644.921631
1733469327.951497, 2.069937, 2.170793, 1.220145, 2.168863, 3.196351, 1.750524, -72.757202, -50.451492, -645.658447
1733469327.961351, 2.013823, 1.504008, 1.615488, 1.985352, 2.920378, 1.926425, -71.994522, -50.401596, -646.789185
1733469327.971482, 1.844134, 1.056890, 1.564162, 1.905199, 2.646942, 2.098604, -71.390045, -50.359314, -647.222778
1733469327.981548, 1.592443, 0.740407, 1.194407, 1.919225, 2.410885, 2.263307, -71.039322, -49.999619, -648.158875
1733469327.991471, 1.505953, 0.534506, 1.036240, 2.003104, 2.193596, 2.452673, -70.457169, -49.576050, -648.755554
1733469328.001472, 1.314716, 0.361076, 1.276109, 2.117542, 1.976962, 2.649649, -69.874374, -49.546600, -649.199158
1733469328.011472, 0.788291, 0.089483, 2.249951, 2.165035, 1.714682, 2.797978, -69.573410, -49.128403, -649.256226
1733469328.021480, 0.201711, -0.201263, 3.484611, 2.083912, 1.400381, 2.903451, -69.246643, -48.795959, -650.228516
1733469328.031487, -0.178667, -0.351798, 4.589086, 1.881455, 1.060651, 3.013673, -68.820755, -48.114914, -650.237610
1733469328.041479, -0.431256, -0.552761, 5.208137, 1.617609, 0.781237, 3.166699, -68.648468, -47.680405, -649.955750
1733469328.051480, -0.788141, -0.609624, 5.344906, 1.340717, 0.642589, 3.372496, -68.444000, -46.903748, -649.614868
1733469328.061484, -1.365593, -0.575057, 5.209633, 1.060187, 0.651510, 3.616241, -68.515106, -45.924469, -650.225952
1733469328.071472, -2.145953, -0.709731, 5.260510, 0.756857, 0.744645, 3.821210, -68.385849, -44.642166, -650.482483
1733469328.081469, -2.715025, -0.985962, 5.661389, 0.381246, 0.811947, 3.971830, -68.284714, -43.410049, -650.769897
1733469328.091480, -3.260005, -1.107019, 6.202479, -0.052548, 0.782324, 4.103962, -67.829315, -41.985168, -650.924133
1733469328.101471, -3.949984, -1.026813, 6.400898, -0.478446, 0.735586, 4.195429, -67.493378, -40.270538, -651.227661
1733469328.111467, -4.810101, -1.025616, 6.158186, -0.861885, 0.722164, 4.253267, -67.034103, -38.562012, -651.691650
1733469328.121488, -5.743989, -1.076942, 5.843797, -1.219246, 0.762554, 4.269481, -66.828354, -36.338379, -651.422424
1733469328.131483, -6.788759, -1.134852, 5.915623, -1.609808, 0.777556, 4.196293, -66.069366, -34.534821, -651.818848
1733469328.141463, -7.792677, -0.972495, 6.284630, -2.052099, 0.701366, 4.066231, -65.670944, -32.122879, -651.521423
1733469328.150593, -8.690204, -0.486173, 6.456264, -2.475855, 0.552766, 3.917260, -64.725861, -29.988281, -651.804688
1733469328.161491, -9.260772, -0.191835, 6.275053, -2.845817, 0.341349, 3.784296, -64.129532, -27.646469, -651.373169
1733469328.171493, -9.532664, 0.147543, 5.932532, -3.155503, 0.080164, 3.726004, -63.274536, -25.204712, -651.263184
1733469328.181490, -9.993248, 0.914735, 5.467459, -3.416567, -0.168236, 3.724168, -62.288406, -22.597748, -650.476135
1733469328.191485, -11.137676, 1.303493, 5.022137, -3.686184, -0.335242, 3.708884, -61.789703, -19.917267, -649.545227
1733469328.201489, -13.049596, 1.771859, 4.607043, -4.013270, -0.345591, 3.615056, -60.771561, -17.639069, -648.468201
1733469328.211469, -14.940118, 2.655918, 4.166061, -4.434718, -0.219406, 3.430959, -60.205292, -14.870316, -647.353577
1733469328.221464, -16.401030, 3.419219, 4.015076, -4.954176, -0.114761, 3.175680, -59.162766, -12.183044, -646.101318
1733469328.230604, -17.765874, 4.149451, 3.824737, -5.500566, -0.193960, 2.828661, -58.170639, -9.738449, -644.634583
1733469328.241476, -18.917036, 4.805462, 2.972102, -5.928580, -0.429592, 2.469627, -57.301880, -7.446350, -642.575256
1733469328.251481, -19.946543, 5.621286, 1.434576, -6.157020, -0.725225, 2.159239, -56.664169, -4.976776, -640.193115
1733469328.261475, -21.064785, 6.538864, -0.225654, -6.245619, -0.975564, 1.878904, -55.881866, -2.998688, -637.659851
1733469328.271472, -22.257247, 7.579743, -1.697190, -6.327621, -1.110868, 1.614588, -55.591309, -1.083023, -634.629211
1733469328.281474, -23.730728, 8.861240, -3.074454, -6.437147, -1.111077, 1.305020, -55.136902, 0.436646, -631.853271
1733469328.291473, -25.393501, 10.157401, -4.674379, -6.577427, -0.914729, 0.924988, -54.773407, 1.895721, -628.771912
1733469328.301473, -26.786029, 11.048642, -6.554277, -6.723151, -0.643960, 0.467646, -54.639084, 2.573166, -626.002808
1733469328.311471, -28.095508, 11.758822, -8.647258, -6.752740, -0.343632, -0.105594, -54.723663, 3.282181, -622.710083
1733469328.321472, -29.084462, 12.114511, -10.891972, -6.561893, -0.005118, -0.761372, -55.257446, 3.649445, -619.636780
1733469328.331466, -28.913726, 12.121693, -12.722189, -6.225996, 0.241778, -1.385212, -55.967957, 3.200455, -616.919556
1733469328.340642, -28.079047, 12.357822, -13.635727, -5.852688, 0.375124, -1.958336, -56.773224, 2.887466, -615.148010
1733469328.351461, -27.323976, 13.238738, -14.451700, -5.507040, 0.516945, -2.494080, -57.941360, 2.176682, -613.050354
1733469328.361471, -26.506356, 14.262409, -15.084817, -5.189357, 0.687121, -2.972702, -59.092346, 1.034714, -611.590332
1733469328.371465, -25.563190, 15.196297, -15.848867, -4.849931, 0.858169, -3.414105, -60.551651, -0.201782, -610.014771
1733469328.381470, -24.492833, 15.955708, -16.790237, -4.398751, 0.968232, -3.809572, -62.469543, -1.530411, -608.983826
1733469328.390565, -23.097462, 16.487520, -17.710808, -3.809761, 1.040664, -4.113728, -64.102982, -3.131897, -608.103760
1733469328.401461, -21.540483, 16.852935, -18.330457, -3.157607, 1.104861, -4.310543, -65.772400, -4.704803, -607.594482
1733469328.411304, -20.023307, 17.062577, -18.532617, -2.527441, 1.199220, -4.438713, -67.480362, -6.356613, -607.368774
1733469328.421474, -18.829798, 17.098191, -18.355446, -1.974041, 1.339204, -4.535583, -69.261215, -8.180664, -606.999023
1733469328.431473, -17.791911, 17.402704, -17.664270, -1.538363, 1.483503, -4.618200, -70.998093, -10.180939, -606.718384
1733469328.441474, -16.875381, 17.770812, -16.895881, -1.208039, 1.662510, -4.692852, -72.601791, -12.042847, -608.277954
1733469328.451459, -15.855002, 17.853113, -16.333543, -0.939542, 1.873272, -4.745890, -74.296753, -13.817688, -608.735291
1733469328.461458, -14.745589, 17.660978, -16.029779, -0.674629, 2.126977, -4.789515, -75.567719, -15.969589, -609.482971
1733469328.470572, -13.557616, 17.392678, -15.871312, -0.387698, 2.449847, -4.780547, -77.082443, -18.077499, -610.742310
1733469328.481456, -12.343905, 17.169119, -15.954062, -0.049077, 2.871454, -4.732714, -78.267853, -20.232315, -612.144531
1733469328.491450, -11.142465, 16.887202, -15.904831, 0.353017, 3.281981, -4.660795, -79.128311, -22.604401, -614.601074
1733469328.501521, -9.888502, 16.692823, -15.351771, 0.803529, 3.604182, -4.559465, -80.086670, -24.908691, -616.224609
1733469328.511460, -8.718485, 16.764200, -14.460978, 1.274588, 3.788004, -4.429350, -80.907104, -27.003281, -618.816956
1733469328.521469, -7.587674, 16.727688, -13.268815, 1.745311, 3.788997, -4.286744, -81.574417, -29.459991, -620.558899
1733469328.531465, -6.480206, 16.573861, -12.031911, 2.206743, 3.603646, -4.125299, -81.849991, -31.582581, -621.958069
1733469328.541498, -5.328296, 16.262914, -10.930279, 2.662648, 3.292253, -3.941837, -82.069595, -33.869080, -624.569580
1733469328.550572, -4.276792, 15.725117, -10.112060, 3.089483, 2.966325, -3.734613, -82.001190, -36.014191, -626.012146
1733469328.561459, -3.347244, 15.053244, -9.641899, 3.465448, 2.728469, -3.506226, -82.269775, -38.250061, -627.375000
1733469328.571473, -1.833659, 13.438504, -8.461408, 3.999102, 2.536535, -3.013287, -81.753860, -40.373108, -628.891357
1733469328.581457, -1.176002, 12.796858, -7.914782, 4.154662, 2.611089, -2.728729, -81.392456, -42.225464, -630.580872
1733469328.591453, -0.499939, 12.176012, -7.370251, 4.246107, 2.801190, -2.410547, -81.102066, -44.384903, -631.129333
1733469328.601459, 0.019902, 11.608736, -6.766612, 4.319890, 3.066149, -2.053701, -80.599792, -46.132462, -632.188599
1733469328.611450, 0.571616, 11.085603, -6.019023, 4.405600, 3.329226, -1.668535, -80.205429, -47.980408, -633.702515
1733469328.621450, 1.176600, 10.440964, -5.108029, 4.474431, 3.538557, -1.259833, -79.510849, -49.595840, -634.777954
1733469328.631450, 1.723376, 9.790788, -4.135086, 4.523273, 3.676082, -0.837501, -78.646652, -51.073013, -635.348999
1733469328.641443, 2.251896, 9.172935, -3.032705, 4.574041, 3.713382, -0.414689, -77.957748, -52.366882, -637.000916
1733469328.651450, 2.661305, 8.414871, -1.750311, 4.588449, 3.598873, -0.013234, -77.498642, -53.775528, -637.974670
1733469328.661450, 2.930353, 7.574207, -0.385616, 4.565788, 3.346580, 0.356331, -76.557220, -54.764328, -638.989258
1733469328.671458, 3.000982, 6.842179, 0.977732, 4.484840, 3.004511, 0.673843, -76.104340, -55.546921, -639.498840
1733469328.681474, 2.957887, 5.906196, 2.222717, 4.303283, 2.640925, 0.922643, -75.403046, -56.356461, -640.167786
1733469328.691447, 2.854337, 4.977994, 3.253570, 4.030131, 2.308976, 1.130942, -75.090073, -57.076584, -640.606262
1733469328.701447, 2.916437, 4.001459, 3.970783, 3.683363, 2.061835, 1.354814, -74.745392, -57.621994, -640.225220
1733469328.711444, 2.780117, 3.122937, 4.059519, 3.334682, 2.018781, 1.605054, -74.537857, -57.702225, -640.698242
1733469328.721446, 2.492364, 2.259677, 3.745878, 3.013435, 2.152318, 1.842854, -74.118454, -57.838547, -640.905029
1733469328.731446, 2.388665, 1.398663, 3.740342, 2.727275, 2.290415, 2.082964, -73.946457, -57.742188, -640.424561
1733469328.741448, 2.485930, 0.958878, 4.081665, 2.509814, 2.344366, 2.329350, -73.518936, -57.642075, -641.898865
1733469328.751271, 2.464232, 0.880318, 4.784064, 2.352132, 2.227119, 2.574212, -73.498627, -57.216278, -642.475708
1733469328.761451, 2.490568, 0.472406, 5.851728, 2.196840, 1.924191, 2.807970, -73.410904, -56.700119, -642.293274
1733469328.771450, 2.341529, 0.013467, 6.675932, 2.022969, 1.566366, 3.043650, -73.298782, -56.152756, -642.598633
1733469328.781445, 2.030133, -0.134823, 6.968922, 1.838718, 1.313736, 3.315528, -73.258926, -55.177490, -642.474365
1733469328.790560, 2.030133, -0.134823, 6.968922, 1.838718, 1.313736, 3.315528, -73.564072, -54.190506, -643.269775
1733469328.801446, 1.355417, -0.121805, 7.168389, 1.385795, 1.150776, 4.005248, -73.536392, -52.799957, -643.087830
1733469328.811491, 1.355417, -0.121805, 7.168389, 1.385795, 1.150776, 4.005248, -73.572220, -51.389252, -643.378906
1733469328.821465, 0.010624, -0.277428, 7.329100, 0.768300, 1.428260, 4.718795, -73.304611, -49.708374, -643.709106
1733469328.831444, -0.934038, -0.183905, 7.982268, 0.315980, 1.516112, 4.965216, -73.347031, -48.023682, -643.839600
1733469328.841444, -1.717241, 0.042497, 8.666411, -0.203745, 1.447614, 5.142522, -73.074615, -45.666397, -645.363647
1733469328.851441, -2.326865, -0.075118, 8.954913, -0.708883, 1.232324, 5.273831, -73.168442, -43.311386, -645.755920
1733469328.861442, -3.259855, -0.049231, 8.627506, -1.106426, 1.032421, 5.365753, -72.684158, -40.787277, -646.224609
1733469328.871443, -4.274548, 0.600945, 7.877821, -1.380452, 0.924650, 5.486687, -71.879761, -38.243210, -646.876465
1733469328.881441, -5.347599, 1.162684, 7.447613, -1.581142, 0.904999, 5.620708, -71.353607, -35.462738, -647.117004
1733469328.891437, -6.672939, 1.408838, 7.718457, -1.847838, 0.906529, 5.684215, -70.497452, -32.600525, -646.715942
1733469328.901442, -7.693468, 1.707365, 8.353220, -2.228552, 0.871091, 5.741627, -69.775055, -29.575836, -647.148193
1733469328.911449, -8.442254, 1.803432, 8.721179, -2.679259, 0.834312, 5.815566, -68.378464, -26.777756, -646.968811
1733469328.921442, -9.624541, 1.937208, 8.890269, -3.166138, 0.777363, 5.853790, -66.925293, -23.630463, -646.804260
1733469328.931436, -11.734880, 2.338836, 8.820987, -3.672053, 0.794026, 5.753982, -65.705902, -20.538391, -646.067810
1733469328.941441, -14.238317, 2.719065, 8.648305, -4.249277, 0.829236, 5.492321, -63.837479, -17.148178, -645.445618
1733469328.951442, -16.598252, 3.229778, 8.374768, -4.878960, 0.884797, 5.061968, -62.307388, -13.786957, -644.673157
1733469328.961445, -19.002779, 3.946841, 7.776068, -5.548239, 0.905869, 4.450014, -60.608154, -11.089340, -642.898315
1733469328.971438, -20.864869, 4.748600, 6.867767, -6.126716, 0.777444, 3.794093, -59.104782, -8.084030, -641.304260
1733469328.981442, -21.992987, 5.839009, 5.204845, -6.494974, 0.581545, 3.220546, -57.391617, -5.443085, -639.362976
1733469328.991454, -23.512108, 7.204153, 3.169324, -6.709934, 0.414489, 2.632205, -56.258774, -2.829910, -636.928040
1733469329.001444, -25.431060, 8.616881, 1.059734, -6.814458, 0.335637, 1.953594, -55.399506, -0.948364, -634.621338
1733469329.011459, -26.558729, 9.782858, -0.966659, -6.840502, 0.281520, 1.257707, -54.797653, 0.814911, -631.830566
1733469329.021454, -26.852917, 10.973674, -2.532766, -6.822999, 0.103937, 0.602801, -54.484131, 2.032715, -628.927795
1733469329.031447, -27.255592, 12.101193, -3.552995, -6.786077, -0.308049, -0.064068, -54.423172, 2.906204, -625.303711
1733469329.041468, -28.197860, 13.688848, -4.889708, -6.693996, -0.777813, -0.742810, -54.503510, 3.480637, -622.517334
1733469329.051461, -28.697649, 15.498864, -7.142951, -6.520137, -1.087732, -1.320807, -54.869614, 3.643677, -619.353882
1733469329.061500, -28.675653, 17.139790, -9.597756, -6.301447, -1.160763, -1.783507, -55.362747, 3.292236, -616.660034
1733469329.071439, -28.460324, 18.439243, -11.881974, -6.075154, -1.022080, -2.149487, -56.461044, 3.107574, -613.449463
1733469329.081441, -27.736377, 19.092112, -14.168437, -5.836555, -0.593922, -2.417703, -57.505615, 2.429184, -610.906494
1733469329.091446, -26.929531, 18.929905, -16.570270, -5.477496, 0.061647, -2.638822, -58.430023, 1.462234, -609.208191
1733469329.101487, -25.900623, 18.372804, -18.217331, -4.993429, 0.676875, -2.829262, -59.798401, 0.285797, -607.248413
1733469329.111436, -24.721778, 18.151490, -18.884415, -4.412578, 1.087844, -3.008393, -61.326797, -0.941986, -606.310181
1733469329.121442, -23.630471, 17.829769, -19.098247, -3.781891, 1.312775, -3.214604, -62.835678, -2.331284, -605.770325
1733469329.131430, -22.640169, 17.388937, -18.866758, -3.191617, 1.398299, -3.462152, -64.581528, -3.507355, -604.799194
1733469329.141459, -21.639992, 17.013646, -18.340183, -2.665837, 1.375495, -3.749776, -66.070496, -5.230804, -604.702393
1733469329.151434, -20.531776, 16.670228, -18.129942, -2.128538, 1.343123, -4.015405, -67.752518, -6.834412, -604.749390
1733469329.161437, -19.096901, 16.350751, -18.227207, -1.546698, 1.360510, -4.210822, -69.374359, -8.587067, -605.206177
1733469329.171431, -17.712304, 15.845724, -18.089241, -0.988885, 1.444549, -4.379585, -71.165710, -10.386063, -605.290649
1733469329.181430, -16.524780, 15.550789, -17.439215, -0.529902, 1.609054, -4.526427, -72.796860, -12.274994, -605.981628
1733469329.191431, -15.211560, 15.560515, -16.411055, -0.190084, 1.850165, -4.628024, -74.634521, -14.142975, -607.306152
1733469329.201430, -13.929615, 15.569344, -15.389928, 0.056071, 2.138643, -4.711573, -76.104950, -16.315292, -608.045227
1733469329.211471, -12.680739, 15.416264, -14.532056, 0.250461, 2.402012, -4.780994, -77.474854, -18.416168, -609.340027
1733469329.221435, -11.345074, 15.228619, -13.820529, 0.470031, 2.600214, -4.815136, -78.779861, -20.489761, -610.329834
1733469329.231440, -10.157251, 15.213356, -13.429975, 0.750866, 2.780484, -4.827342, -79.882706, -22.871246, -611.535461
1733469329.241433, -8.995315, 15.278448, -12.991088, 1.077649, 2.878403, -4.815868, -80.933624, -25.304031, -613.668579
1733469329.251441, -7.707683, 15.178790, -12.510901, 1.444879, 2.871421, -4.768188, -81.933136, -27.852066, -615.435486
1733469329.261437, -6.468983, 15.002666, -12.100146, 1.871720, 2.769210, -4.684381, -82.481903, -30.178299, -617.077332
1733469329.271430, -5.243751, 14.725088, -11.477354, 2.340808, 2.571295, -4.570336, -82.870941, -32.699341, -618.598022
1733469329.281436, -4.047847, 14.468310, -10.670059, 2.786651, 2.316760, -4.417132, -83.324280, -34.938812, -619.856018
1733469329.291437, -2.794632, 13.958794, -9.810690, 3.158069, 2.028677, -4.217596, -83.600250, -37.308273, -621.102539
1733469329.301428, -1.618031, 13.304279, -9.056816, 3.441492, 1.805891, -3.955575, -83.304611, -39.539017, -621.982666
1733469329.311445, -0.599598, 12.651710, -8.775348, 3.647960, 1.796373, -3.631193, -83.478210, -41.668121, -622.742920
1733469329.321445, 0.297180, 11.903522, -8.587104, 3.785476, 1.957264, -3.244964, -83.387924, -43.483795, -623.721069
1733469329.331440, 1.100136, 11.285967, -8.096741, 3.885759, 2.233895, -2.803437, -83.302933, -45.281403, -624.149719
1733469329.341428, 1.660229, 10.626664, -7.542334, 3.973652, 2.536913, -2.364024, -82.842682, -47.097137, -626.191956
1733469329.351440, 1.984644, 9.978284, -6.560412, 4.035825, 2.735959, -1.889023, -82.214371, -48.539429, -626.998108
1733469329.361435, 2.404826, 9.829844, -5.302408, 4.090656, 2.760488, -1.413763, -82.046112, -49.691391, -628.534851
1733469329.371432, 2.594417, 9.153183, -4.097227, 4.146127, 2.649850, -1.005182, -81.782547, -50.817505, -628.790894
1733469329.381443, 2.743456, 8.423699, -3.045275, 4.182936, 2.455711, -0.636284, -81.582367, -51.603577, -629.522827
1733469329.391433, 2.741062, 7.833379, -1.986439, 4.162519, 2.207410, -0.314237, -81.025284, -52.479019, -629.748047
1733469329.401421, 2.571971, 7.089530, -1.381754, 4.103792, 2.014449, -0.032711, -80.768219, -53.080872, -630.053833
1733469329.411425, 2.382979, 6.353014, -1.202338, 4.044254, 1.908671, 0.213503, -80.768219, -53.080872, -630.053833
1733469329.421438, 2.397793, 5.641188, -1.088015, 4.019491, 1.850079, 0.461116, -80.459717, -53.722107, -630.348389
1733469329.431427, 2.527229, 4.957195, -0.838868, 4.011263, 1.881650, 0.727707, -80.184525, -54.005035, -630.622192
1733469329.441426, 2.656067, 4.402189, -0.530615, 3.975840, 2.036025, 1.025343, -80.096283, -54.279877, -630.442200
1733469329.451423, 2.703054, 4.221426, 0.245406, 3.877861, 2.222146, 1.361536, -79.691254, -54.324310, -631.589722
1733469329.461442, 2.549226, 4.039467, 1.372775, 3.713436, 2.390375, 1.727452, -79.476501, -54.492294, -632.065796
1733469329.471422, 2.413655, 3.787477, 2.609829, 3.503603, 2.495406, 2.087190, -79.351593, -54.157303, -632.620239
1733469329.481421, 2.324620, 3.623475, 4.126257, 3.229910, 2.450364, 2.452390, -79.511124, -53.430496, -632.932068
1733469329.491467, 2.044947, 3.371784, 5.649867, 2.899979, 2.245750, 2.807432, -79.339981, -52.884430, -633.640564
1733469329.501415, 1.610400, 2.810493, 6.955605, 2.531015, 1.936291, 3.122979, -79.210022, -51.871140, -634.430054
1733469329.510732, 1.158494, 2.302175, 7.552509, 2.143547, 1.663002, 3.410275, -78.959259, -51.110977, -634.845520
1733469329.521431, 0.554856, 2.010980, 7.261314, 1.790459, 1.526999, 3.688380, -79.025192, -49.742798, -635.300049
1733469329.531483, -0.097713, 1.662623, 6.567594, 1.495301, 1.566918, 3.957811, -78.692917, -48.345840, -635.841431
1733469329.541430, -0.723199, 1.180192, 5.978621, 1.273844, 1.721653, 4.238095, -78.810822, -46.693939, -636.280884
1733469329.551433, -1.575385, 0.762853, 5.954230, 1.059550, 1.918533, 4.472470, -78.476532, -45.035599, -637.629517
1733469329.561437, -2.341828, 0.385616, 6.607847, 0.758891, 1.993214, 4.677248, -78.009415, -43.066208, -638.558594
1733469329.571426, -2.853888, 0.073023, 7.537994, 0.412492, 1.886378, 4.881486, -77.385071, -40.815781, -639.070862
1733469329.581411, -3.775506, -0.136021, 7.895329, 0.094683, 1.744263, 5.017329, -76.810120, -38.486252, -639.873291
1733469329.591423, -4.953005, -0.024391, 8.001721, -0.187096, 1.620857, 5.119714, -76.071045, -36.295837, -640.116943
1733469329.601422, -6.076185, 0.230442, 8.110657, -0.454612, 1.551892, 5.234186, -75.204010, -33.844986, -641.204468
1733469329.611416, -7.124695, 0.639401, 8.337957, -0.740507, 1.533639, 5.355046, -74.486313, -31.289734, -641.531677
1733469329.621438, -8.026561, 1.070208, 8.884134, -1.095449, 1.483367, 5.485286, -73.194214, -28.674194, -642.244141
1733469329.631437, -8.816947, 1.322497, 9.613917, -1.539694, 1.332484, 5.610200, -71.728867, -25.814178, -642.709351
1733469329.640963, -10.159645, 1.481113, 9.914239, -2.030558, 1.156412, 5.685652, -70.400589, -23.050110, -642.447510
1733469329.651431, -12.180202, 1.692551, 9.526528, -2.507559, 1.051078, 5.615416, -69.333771, -20.474716, -643.053101
1733469329.661433, -14.638748, 1.851017, 8.888474, -2.958285, 0.947859, 5.340542, -67.504501, -17.680252, -642.065796
1733469329.671420, -16.867300, 2.026692, 8.167220, -3.342694, 0.843305, 4.943612, -65.878250, -14.792496, -641.449768
1733469329.681414, -18.899678, 2.171990, 7.615357, -3.713163, 0.696690, 4.425365, -64.458282, -12.121094, -640.989502
1733469329.691420, -20.752042, 2.559701, 7.577349, -4.095304, 0.389238, 3.854196, -62.865723, -9.817764, -640.009521
1733469329.701415, -22.107011, 3.110068, 6.977751, -4.438465, 0.085455, 3.297060, -61.346420, -7.649658, -638.650391
1733469329.711415, -23.358131, 3.681833, 5.524620, -4.733856, -0.052310, 2.745359, -60.124115, -5.498154, -636.844910
1733469329.721424, -24.495526, 4.333954, 4.241029, -5.033837, -0.129089, 2.198175, -59.004715, -3.814865, -635.250305
1733469329.731424, -25.472660, 5.218761, 3.251176, -5.328763, -0.202916, 1.646707, -58.285751, -2.308945, -632.915405
1733469329.741418, -26.288035, 6.335207, 2.014421, -5.604221, -0.275931, 1.082338, -57.856644, -1.035126, -630.742737
1733469329.751513, -26.922498, 7.386561, 0.839916, -5.826191, -0.468597, 0.526175, -57.612808, 0.213959, -628.494507
1733469329.761495, -27.757327, 8.670751, -0.724845, -5.920928, -0.637469, -0.012549, -57.532272, 1.035400, -625.529236
1733469329.771444, -28.408849, 9.847800, -2.839972, -5.948030, -0.623689, -0.527842, -57.545944, 1.643982, -622.786255
1733469329.781428, -28.541577, 10.869227, -4.808904, -5.985036, -0.444401, -0.990211, -58.009094, 1.818909, -620.139771
1733469329.791432, -28.234072, 12.326098, -6.450727, -6.010046, -0.184818, -1.395124, -58.333588, 1.637039, -618.078552
1733469329.801454, -27.581652, 13.548937, -7.972093, -6.016590, 0.107895, -1.752301, -59.415390, 1.355957, -615.258911
1733469329.811463, -26.894067, 14.167988, -9.511415, -5.961016, 0.380229, -2.096586, -60.046875, 0.855682, -613.027222
1733469329.821415, -26.147525, 14.815021, -11.372009, -5.772516, 0.654666, -2.385528, -61.127594, 0.022339, -610.595093
1733469329.831460, -24.988432, 15.131803, -13.428329, -5.423635, 0.943509, -2.608960, -62.156723, -0.970444, -609.068420
1733469329.841415, -23.940820, 15.114445, -14.968250, -4.957579, 1.193834, -2.840347, -63.401474, -2.190216, -607.951172
1733469329.851421, -23.002442, 14.993239, -15.909620, -4.436861, 1.339166, -3.066380, -64.771301, -3.473022, -607.352600
1733469329.861410, -21.899763, 14.720001, -16.601694, -3.864682, 1.467270, -3.288976, -66.140121, -4.885452, -606.152405
1733469329.871414, -20.805762, 14.577396, -16.988507, -3.306239, 1.593710, -3.487610, -67.645020, -6.283188, -605.873413
1733469329.881410, -19.529952, 14.632463, -16.751032, -2.823570, 1.676088, -3.645766, -69.171600, -7.976654, -605.851318
1733469329.891411, -18.445379, 14.637101, -16.412851, -2.408626, 1.695077, -3.814624, -70.440994, -9.564209, -605.743042
1733469329.901409, -17.585411, 14.479832, -16.555306, -2.005771, 1.732961, -4.003389, -72.100479, -11.208923, -606.111450
1733469329.911418, -16.723349, 14.519486, -17.046566, -1.572420, 1.844022, -4.192726, -73.624710, -12.950241, -605.867432
1733469329.921411, -15.637279, 14.506318, -17.460314, -1.115036, 2.018881, -4.348120, -75.046463, -14.902252, -606.458984
1733469329.931444, -14.485219, 14.337377, -17.761235, -0.643965, 2.302913, -4.482059, -76.542725, -17.067474, -607.012024
1733469329.941416, -13.207613, 14.340370, -17.734001, -0.173526, 2.615800, -4.569466, -77.752563, -19.049545, -609.150452
1733469329.951409, -11.679215, 14.546421, -17.271023, 0.307619, 2.886557, -4.595925, -79.163742, -21.202240, -610.772461
1733469329.961406, -10.220099, 14.760403, -16.617256, 0.801510, 3.072240, -4.563959, -80.177811, -23.577179, -612.082703
1733469329.971405, -8.636634, 14.855273, -15.389030, 1.313345, 2.992915, -4.485239, -81.182083, -25.710358, -613.863037
1733469329.981407, -7.038654, 14.734665, -13.545944, 1.808064, 2.613788, -4.361024, -81.860397, -27.997787, -615.649536
1733469329.991405, -5.693262, 14.407707, -12.047024, 2.249363, 2.126035, -4.196928, -82.449219, -30.225098, -617.242920
1733469330.001406, -4.748300, 13.829956, -11.222820, 2.602520, 1.741642, -4.020209, -82.939819, -32.469070, -618.131958
1733469330.011409, -3.978565, 13.036278, -10.935366, 2.864812, 1.598124, -3.835068, -83.338333, -34.302185, -618.961365
1733469330.021407, -3.231574, 12.262353, -10.864139, 3.040558, 1.706369, -3.628627, -83.569962, -36.420959, -620.116455
1733469330.031417, -2.374449, 11.525537, -10.696096, 3.161736, 1.956780, -3.377036, -83.350967, -38.596420, -621.001282
1733469330.041419, -1.421108, 10.771813, -10.300155, 3.259276, 2.287550, -3.094162, -83.563950, -40.299408, -622.416321
1733469330.051406, -0.624737, 9.947010, -9.677213, 3.345259, 2.590217, -2.795801, -83.562088, -42.012360, -623.458496
1733469330.061404, 0.010026, 9.288605, -8.884733, 3.465392, 2.836831, -2.498793, -83.280579, -43.692947, -624.988159
1733469330.071404, 0.551863, 8.919898, -8.068759, 3.597335, 3.011974, -2.198357, -82.854858, -45.516998, -626.317566
1733469330.081413, 0.976535, 8.591144, -7.121254, 3.738097, 3.081363, -1.903921, -82.487732, -46.773666, -627.419006
1733469330.091410, 1.375020, 8.348282, -6.150554, 3.900305, 3.069296, -1.605055, -82.051392, -48.244293, -628.831055
1733469330.101404, 1.821239, 8.272565, -5.129727, 4.064580, 2.979336, -1.286212, -81.599731, -49.526947, -629.742188
1733469330.111400, 2.387468, 8.179640, -3.937414, 4.191514, 2.838404, -0.921930, -80.934753, -50.599960, -630.705566
1733469330.121402, 2.679710, 8.016685, -3.050512, 4.256838, 2.754749, -0.538084, -80.538086, -51.491440, -631.255249
1733469330.131401, 2.751686, 7.417087, -2.443881, 4.260220, 2.742986, -0.178806, -79.817993, -52.469131, -631.677979
1733469330.141409, 2.801216, 6.802825, -1.786823, 4.232424, 2.745332, 0.175350, -79.651184, -53.040390, -632.809204
1733469330.151418, 2.742408, 6.437709, -1.238251, 4.198492, 2.788960, 0.521871, -79.216415, -53.566833, -633.861328
1733469330.160702, 2.694674, 6.328174, -0.591817, 4.209027, 2.812844, 0.875507, -78.784424, -54.050308, -633.859253
1733469330.171400, 2.667141, 6.181529, 0.515950, 4.210744, 2.747748, 1.218535, -78.523438, -54.333878, -634.595215
1733469330.181402, 2.413355, 5.745635, 1.893215, 4.130371, 2.588673, 1.516484, -78.013336, -54.383926, -635.048462
1733469330.191418, 2.235586, 5.418378, 3.182792, 4.011533, 2.370677, 1.835043, -77.885345, -54.344116, -635.286560
1733469330.201405, 2.071583, 5.141997, 4.234445, 3.880171, 2.209180, 2.184799, -77.669830, -53.993256, -636.250305
1733469330.211397, 1.646014, 4.658368, 5.000589, 3.732464, 2.126825, 2.528750, -77.652603, -53.585022, -636.211914
1733469330.221396, 1.097143, 4.112191, 5.987449, 3.551377, 2.058115, 2.825955, -77.499039, -53.119720, -637.116150
1733469330.231399, 0.720954, 3.369240, 7.503278, 3.264377, 1.915471, 3.067585, -77.331390, -52.509354, -636.742920
1733469330.241442, 0.520440, 2.624045, 8.921843, 2.818575, 1.780500, 3.250969, -77.599747, -51.466599, -637.475220
1733469330.251394, 0.287903, 1.796100, 10.068516, 2.201853, 1.631900, 3.371053, -77.341476, -50.501068, -638.147217
1733469330.261401, -0.008380, 1.068412, 10.744579, 1.560524, 1.488080, 3.497747, -77.217880, -49.217926, -638.875122
1733469330.271421, -0.216376, 0.590769, 10.480169, 1.022724, 1.399241, 3.659762, -77.124680, -47.639267, -639.131836
1733469330.281410, -0.462829, 0.206799, 9.930999, 0.599779, 1.304615, 3.857616, -77.009888, -46.066193, -639.659668
1733469330.291396, -0.826299, 0.149488, 9.317185, 0.283699, 1.234713, 4.090971, -76.829987, -43.949722, -640.384766
1733469330.301397, -1.307384, 0.564583, 8.972121, 0.037573, 1.184871, 4.367088, -76.335892, -42.065750, -640.600464
1733469330.311391, -2.045097, 0.913538, 9.136573, -0.256205, 1.152396, 4.623845, -76.026169, -39.875107, -641.294434
1733469330.321451, -2.872892, 0.871489, 9.605537, -0.646944, 1.067960, 4.858701, -75.507660, -37.462250, -641.123779
1733469330.331398, -3.880851, 0.844555, 9.662699, -1.051682, 1.001271, 5.058097, -74.991028, -34.855545, -641.215942
1733469330.341397, -5.472546, 1.129016, 9.057265, -1.372651, 1.040025, 5.201068, -74.109848, -32.004349, -642.354736
1733469330.351400, -7.049876, 1.478719, 8.639926, -1.632233, 1.153556, 5.292542, -73.232040, -29.279205, -642.872375
1733469330.361453, -8.612093, 1.700033, 9.415048, -2.003156, 1.173856, 5.287878, -72.312958, -26.413406, -642.729736
1733469330.371391, -10.081385, 2.320430, 10.635942, -2.535742, 1.100129, 5.206640, -70.808441, -23.786865, -642.613342
1733469330.381394, -11.033529, 2.904915, 11.168352, -3.144441, 0.972772, 5.148797, -69.477051, -20.782257, -642.353821
1733469330.391399, -11.529428, 3.249979, 11.136330, -3.764878, 0.721683, 5.156381, -67.887009, -17.464905, -641.505432
1733469330.401437, -13.118280, 4.142119, 10.602423, -4.313388, 0.407530, 5.113624, -66.272842, -14.546585, -640.598633
1733469330.411386, -15.869966, 5.035605, 9.459940, -4.770931, 0.145636, 4.932318, -64.648880, -11.658630, -639.027222
1733469330.421392, -18.771888, 5.441422, 8.214207, -5.188650, -0.009775, 4.611563, -62.925674, -8.794998, -637.397095
1733469330.431395, -21.337275, 6.172252, 7.071724, -5.604954, -0.050171, 4.241370, -61.205460, -6.037766, -634.394043
1733469330.441399, -23.337331, 7.266103, 5.851429, -6.012215, 0.010541, 3.917399, -59.564240, -3.446671, -633.183716
1733469330.451393, -25.206005, 8.048259, 4.438850, -6.405691, 0.181027, 3.580304, -58.377655, -1.283417, -630.737305
1733469330.461397, -27.501147, 8.542063, 2.989909, -6.791117, 0.392067, 3.100201, -56.969833, 0.620438, -628.437134
1733469330.470865, -29.936798, 9.098415, 1.698387, -7.199607, 0.488172, 2.384050, -56.022400, 1.836685, -625.251892
1733469330.481402, -32.060156, 9.914988, 0.433201, -7.535311, 0.362473, 1.489257, -55.828125, 2.933029, -622.146912
1733469330.491392, -33.522564, 11.128249, -1.014094, -7.736146, -0.010539, 0.508937, -55.602493, 3.399643, -618.482117
1733469330.501401, -34.658014, 13.068151, -3.060987, -7.776087, -0.448740, -0.474153, -56.372360, 3.372162, -614.976562
1733469330.511407, -35.248484, 14.663288, -5.983559, -7.599001, -0.755649, -1.404664, -56.876526, 2.843307, -611.708740
1733469330.521424, -35.332730, 15.883732, -9.132383, -7.257340, -0.783686, -2.241154, -57.841339, 1.787598, -608.592957
1733469330.531400, -34.490271, 17.388488, -12.188731, -6.787081, -0.573812, -2.882493, -58.730621, 0.505051, -605.226807
1733469330.541418, -32.318281, 18.300978, -14.747534, -6.149606, -0.217262, -3.259035, -60.009247, -0.903442, -603.961182
1733469330.551394, -29.906871, 18.610578, -16.623391, -5.376067, 0.241051, -3.434255, -61.660110, -2.503174, -602.388733
1733469330.561450, -27.585842, 18.589330, -17.540370, -4.608649, 0.732947, -3.459667, -63.149109, -4.083069, -601.308838
1733469330.571396, -25.656115, 18.135479, -17.663821, -3.951951, 1.216663, -3.453116, -65.048492, -5.788467, -600.790894
1733469330.581396, -24.462007, 17.604116, -16.872987, -3.448566, 1.546652, -3.530858, -66.696701, -7.469986, -600.864685
1733469330.591384, -23.406913, 17.270873, -16.231789, -3.019273, 1.759045, -3.684994, -68.290161, -9.002411, -600.489990
1733469330.601389, -22.399103, 17.162835, -15.964537, -2.601229, 1.909962, -3.867228, -69.816116, -10.926239, -600.891174
1733469330.611393, -21.419426, 17.015890, -15.983840, -2.184028, 2.056735, -4.059146, -71.506256, -12.852234, -601.470093
1733469330.621387, -20.387226, 16.680253, -16.383672, -1.724664, 2.267756, -4.251185, -72.965302, -14.661591, -602.282349
1733469330.631395, -19.327941, 16.352397, -16.935385, -1.229900, 2.570002, -4.421512, -74.985901, -16.820923, -602.635437
1733469330.641394, -18.074427, 16.183905, -17.189919, -0.748412, 2.932907, -4.586230, -76.462280, -19.003769, -605.070923
1733469330.651440, -16.645537, 16.072425, -16.792332, -0.291592, 3.184510, -4.747750, -78.076736, -21.127335, -606.437439
1733469330.661385, -14.958673, 16.298378, -15.894357, 0.197937, 3.252652, -4.847905, -79.184662, -23.576660, -608.283936
1733469330.671384, -13.235596, 16.721703, -15.013141, 0.736598, 3.127270, -4.884490, -80.472961, -25.946472, -609.678223
1733469330.681385, -11.660810, 16.894684, -14.070424, 1.283135, 2.865352, -4.872643, -81.403778, -28.157150, -611.171143
1733469330.691408, -10.326341, 16.833183, -13.301436, 1.793800, 2.607602, -4.810575, -82.209320, -30.448608, -612.670410
1733469330.701383, -9.228301, 16.664691, -12.745084, 2.234045, 2.494379, -4.713699, -82.748032, -32.805588, -614.139404
1733469330.711396, -8.260445, 16.245855, -12.230330, 2.557863, 2.527797, -4.606206, -82.995865, -35.233292, -615.706177
1733469330.721412, -7.354539, 15.827618, -11.599458, 2.803550, 2.687469, -4.486355, -83.308609, -37.611221, -617.341675
1733469330.731395, -6.410475, 15.436316, -11.248857, 3.031062, 2.970520, -4.332815, -83.575760, -40.045609, -618.742432
1733469330.741387, -5.319318, 14.994286, -10.644172, 3.292374, 3.199939, -4.147122, -83.500366, -42.121887, -620.515991
1733469330.751387, -3.943998, 14.559589, -9.600898, 3.571129, 3.278165, -3.883132, -83.498917, -44.607788, -622.190308
1733469330.761185, -2.549376, 13.907768, -8.728361, 3.831117, 3.329339, -3.577930, -83.014130, -46.612198, -623.521545
1733469330.771387, -1.541118, 13.142970, -8.057835, 4.065767, 3.374682, -3.260942, -82.625336, -48.601929, -624.859070
1733469330.781158, -0.668282, 12.514043, -7.080402, 4.287664, 3.353145, -2.939344, -82.039642, -50.477646, -626.125549
1733469330.791391, 0.198569, 11.862072, -6.127061, 4.487205, 3.298894, -2.611106, -81.500885, -52.302979, -627.150391
1733469330.801387, 1.109862, 11.295993, -5.230732, 4.678501, 3.250450, -2.251988, -80.990860, -53.998978, -627.958313
1733469330.811386, 2.001253, 10.856358, -4.277840, 4.819150, 3.232518, -1.843439, -80.336624, -55.362350, -628.982300
1733469330.821391, 2.843563, 10.401459, -3.306841, 4.888245, 3.273736, -1.403485, -79.960571, -56.531342, -629.451721
1733469330.831391, 3.516035, 9.789741, -2.267758, 4.878466, 3.328845, -0.937255, -79.527695, -57.771347, -629.645386
1733469330.841384, 3.970335, 8.999654, -1.117045, 4.806216, 3.385039, -0.462790, -79.142044, -58.272339, -631.318604
1733469330.851379, 4.168305, 8.352322, 0.228796, 4.672924, 3.405466, -0.008332, -78.681229, -58.816391, -631.657532
1733469330.861379, 4.188506, 7.715614, 1.932570, 4.400214, 3.338536, 0.397689, -78.134201, -59.221176, -632.496582
1733469330.871370, 4.094085, 6.855048, 3.406201, 3.994999, 3.185740, 0.747145, -77.775223, -59.269989, -632.556702
1733469330.881385, 3.846734, 5.998822, 4.272603, 3.567924, 3.016526, 1.042897, -77.775223, -59.269989, -632.556702
1733469330.891389, 3.602974, 5.260211, 4.567688, 3.171011, 2.884964, 1.305805, -77.694763, -59.372726, -633.573425
1733469330.901439, 3.306841, 4.469376, 4.673332, 2.825904, 2.731247, 1.517472, -77.400116, -59.324020, -634.221985
1733469330.911381, 3.228132, 3.972579, 4.619911, 2.606920, 2.532181, 1.747206, -77.160858, -59.014374, -634.756226
1733469330.921375, 3.404854, 3.687519, 4.292504, 2.520583, 2.340006, 2.008743, -77.261978, -58.675323, -635.353638
1733469330.931383, 3.407697, 3.265841, 3.975123, 2.510240, 2.188617, 2.280480, -77.150482, -58.082352, -636.211975
1733469330.941372, 3.435979, 3.084480, 3.830274, 2.557045, 2.110168, 2.614174, -77.027267, -57.370697, -635.420166
1733469330.951387, 3.422212, 3.204040, 4.053383, 2.628301, 2.086098, 3.015422, -76.854202, -56.517075, -636.252014
1733469330.961439, 3.187730, 3.399317, 4.806958, 2.636376, 2.096814, 3.465136, -76.692200, -55.644104, -636.842468
1733469330.971392, 2.453009, 3.582324, 6.009895, 2.517957, 2.122179, 3.899080, -76.411270, -54.477219, -637.218994
1733469330.981391, 1.471536, 3.582324, 7.464522, 2.242878, 2.146224, 4.298682, -76.498825, -53.033035, -638.315369
1733469330.991406, 0.544382, 3.346346, 8.971672, 1.819631, 2.099674, 4.657454, -76.605682, -51.243713, -638.619019
1733469331.001387, -0.447267, 3.058144, 10.223391, 1.304301, 2.033772, 4.987695, -76.448273, -49.205231, -639.632385
1733469331.011381, -1.646163, 2.602048, 10.770167, 0.741935, 2.032236, 5.254567, -76.124191, -47.107635, -640.408203
1733469331.021386, -3.988291, 2.220323, 10.592696, -0.281879, 2.156009, 5.740275, -75.669144, -44.578629, -641.142639
1733469331.031384, -5.424662, 2.397344, 10.519673, -0.281879, 2.156009, 5.740275, -75.307373, -41.979660, -642.386719
1733469331.041380, -7.154323, 2.316689, 10.926538, -1.137865, 2.124275, 5.992573, -74.563950, -39.311844, -642.614929
1733469331.051372, -8.776694, 2.112135, 11.591677, -1.654688, 1.984098, 5.990771, -73.709610, -36.410492, -644.198792
1733469331.061368, -10.441113, 1.677587, 12.398822, -2.236815, 1.744018, 5.909667, -72.268433, -33.440613, -645.251221
1733469331.071379, -12.185289, 1.692850, 13.016227, -2.824727, 1.437079, 5.791921, -71.193665, -30.076767, -645.507385
1733469331.080410, -12.185289, 1.692850, 13.016227, -2.824727, 1.437079, 5.791921, -69.542908, -26.779068, -645.604614
1733469331.091369, -15.595081, 2.462586, 12.669816, -3.915474, 1.043779, 5.604468, -68.090607, -23.699707, -645.385742
1733469331.101368, -17.457321, 2.700061, 12.295423, -4.536690, 1.012301, 5.417174, -66.540497, -20.462784, -645.096252
1733469331.111366, -19.401264, 3.277064, 11.893646, -5.243435, 1.004271, 5.099454, -64.926605, -16.904861, -644.040161
1733469331.121371, -21.416583, 3.797503, 10.837204, -5.884639, 0.992209, 4.619862, -63.393768, -13.765259, -643.205139
1733469331.131378, -23.379080, 4.348319, 9.676914, -6.449918, 0.844005, 3.978877, -61.971985, -10.412735, -641.446777
1733469331.141371, -25.157224, 5.451298, 9.058013, -6.961071, 0.394726, 3.230081, -60.444366, -7.660446, -639.756348
1733469331.151383, -26.601376, 6.896947, 7.654113, -7.303509, -0.163583, 2.461993, -59.256454, -5.125320, -637.259521
1733469331.161377, -27.683106, 8.287529, 5.036054, -7.476823, -0.595101, 1.742792, -58.384430, -2.847458, -634.457153
1733469331.171380, -28.275522, 9.691579, 2.457947, -7.598632, -0.843837, 1.078996, -57.582947, -1.103271, -631.335876
1733469331.181384, -28.435335, 10.897059, 0.069581, -7.691628, -0.976014, 0.480485, -57.078003, 0.486237, -628.065979
1733469331.191384, -28.435185, 12.460174, -2.171691, -7.693602, -1.041240, -0.013663, -57.005127, 1.277237, -624.028015
1733469331.201377, -28.926445, 15.319000, -4.157980, -7.598279, -1.145305, -0.436804, -57.077789, 2.019516, -621.070190
1733469331.211400, -29.568989, 18.182914, -6.028600, -7.463127, -1.154160, -0.790418, -57.058426, 2.384750, -617.261230
1733469331.221366, -29.643509, 19.675699, -8.799439, -7.279184, -0.858631, -1.072004, -57.236313, 2.304321, -613.944519
1733469331.231365, -29.697528, 20.359243, -11.637616, -7.063356, -0.424666, -1.372107, -57.683731, 1.733292, -611.171509
1733469331.241357, -29.582756, 20.046950, -14.383017, -6.703063, 0.060869, -1.718857, -58.415649, 1.063705, -607.970886
1733469331.251363, -28.912978, 19.459622, -17.189320, -6.139179, 0.539639, -2.061650, -59.448761, 0.028687, -605.889038
1733469331.261363, -27.778425, 19.330784, -19.293076, -5.457101, 0.889353, -2.372347, -60.439713, -1.040115, -603.654297
1733469331.271371, -26.441114, 18.674773, -20.666449, -4.677706, 1.084927, -2.648984, -61.578125, -2.381348, -601.989380
1733469331.281376, -25.191940, 17.919552, -21.890186, -3.799325, 1.233841, -2.906384, -62.983856, -3.753693, -601.243530
1733469331.291374, -24.066665, 17.459566, -22.595727, -2.882356, 1.344568, -3.153517, -64.546982, -5.209961, -600.592773
1733469331.301372, -23.050925, 16.705542, -22.652140, -1.968734, 1.403921, -3.402269, -65.903458, -6.701675, -600.341370
1733469331.311371, -21.818809, 15.920693, -22.233006, -1.084384, 1.481400, -3.609325, -67.276016, -8.199127, -600.414062
1733469331.321360, -20.645500, 15.829414, -20.935348, -0.329478, 1.532199, -3.795597, -68.830963, -9.560547, -600.710938
1733469331.331369, -19.478177, 15.638776, -18.979734, 0.235649, 1.524058, -3.984044, -70.675003, -11.240005, -601.656128
1733469331.341362, -18.501942, 15.324686, -17.395072, 0.663736, 1.599290, -4.187487, -72.174377, -12.875641, -602.438354
1733469331.351363, -17.384897, 15.037083, -16.051626, 0.978339, 1.705128, -4.373285, -73.674652, -14.542252, -603.807129
1733469331.361378, -16.148890, 14.607024, -14.796017, 1.233801, 1.815469, -4.564873, -75.301758, -16.485580, -605.200317
1733469331.371361, -14.950293, 14.296975, -13.615376, 1.496625, 1.855093, -4.726819, -76.844284, -18.515198, -606.109558
1733469331.381359, -13.534272, 14.093917, -12.529157, 1.786309, 1.813942, -4.839862, -78.037460, -20.552109, -607.411377
1733469331.391358, -12.382512, 13.915549, -11.533019, 2.076730, 1.755270, -4.945240, -79.236008, -22.817368, -608.774170
1733469331.401357, -11.443985, 13.939042, -10.717195, 2.316837, 1.736351, -5.048987, -80.501007, -25.221405, -609.757812
1733469331.411366, -10.251074, 14.075661, -9.869947, 2.497041, 1.695203, -5.127673, -81.515701, -27.406784, -610.830994
1733469331.421357, -8.815451, 14.066982, -9.051878, 2.657169, 1.643739, -5.133937, -82.275742, -30.090927, -611.974792
1733469331.431359, -7.283760, 13.980192, -8.556278, 2.817820, 1.648315, -5.062061, -82.722672, -32.706680, -612.680664
1733469331.441355, -5.797110, 13.723265, -8.218995, 2.965336, 1.713820, -4.910409, -83.000824, -35.277710, -614.332947
1733469331.451359, -4.286519, 13.155240, -8.020276, 3.102728, 1.876988, -4.688758, -83.619568, -37.810379, -615.580688
1733469331.461353, -3.022231, 12.556540, -7.875726, 3.221975, 2.155548, -4.406479, -83.739441, -40.144165, -616.399414
1733469331.471353, -1.992724, 11.981034, -7.639598, 3.306466, 2.552199, -4.080577, -83.846771, -42.468567, -617.728088
1733469331.481391, -1.066318, 11.481095, -7.126192, 3.380245, 2.960519, -3.708664, -83.603226, -44.577682, -619.286011
1733469331.491364, -0.097115, 10.970980, -6.266224, 3.502929, 3.245958, -3.298239, -83.358353, -46.613358, -620.529785
1733469331.501350, 0.868946, 10.417471, -5.200655, 3.663088, 3.391984, -2.859907, -83.341965, -48.486420, -621.804749
1733469331.511354, 1.782633, 9.909750, -4.089895, 3.808184, 3.413264, -2.408857, -83.156311, -50.007477, -623.218201
1733469331.521366, 2.584241, 9.105598, -2.980781, 3.894954, 3.344901, -1.964398, -82.720566, -51.430313, -624.529663
1733469331.530799, 3.102885, 8.207323, -1.988983, 3.935126, 3.242915, -1.530748, -81.984818, -52.825333, -624.940552
1733469331.541365, 3.440617, 7.524976, -1.167173, 3.960240, 3.176337, -1.104970, -81.729019, -53.688889, -626.523682
1733469331.551369, 3.698443, 6.796390, -0.048483, 3.888810, 3.072357, -0.724527, -81.398117, -54.684708, -627.446716
1733469331.561351, 3.960907, 6.023063, 1.444153, 3.643585, 2.843953, -0.383815, -81.252518, -55.224854, -628.508789
1733469331.571351, 4.156334, 5.267543, 2.475006, 3.318482, 2.586598, -0.061548, -80.796295, -55.759613, -629.058899
1733469331.581354, 4.145261, 4.670339, 2.407370, 3.034267, 2.489375, 0.264251, -80.217361, -56.022064, -629.617676
1733469331.591355, 3.955371, 4.065205, 1.618780, 2.884686, 2.563450, 0.592443, -79.736359, -56.361938, -630.697266
1733469331.601365, 3.851672, 3.403956, 1.050606, 2.889990, 2.694896, 0.955344, -79.922394, -56.227936, -631.029785
1733469331.611357, 3.891176, 2.964171, 1.334468, 2.964546, 2.759279, 1.332000, -79.572586, -56.382263, -631.826111
1733469331.621365, 3.960608, 2.651279, 2.391807, 2.997064, 2.679995, 1.716349, -79.298904, -56.044083, -632.607300
1733469331.631360, 3.789572, 2.539500, 3.658190, 2.947440, 2.489458, 2.069952, -79.003052, -55.494217, -632.464478
1733469331.641364, 3.455731, 2.377442, 4.737078, 2.811626, 2.285072, 2.377256, -79.116791, -54.978775, -633.766907
1733469331.651368, 3.242048, 2.240973, 5.857714, 2.560507, 2.025679, 2.676166, -79.028076, -54.126068, -634.072693
1733469331.661347, 3.046322, 2.216731, 6.709152, 2.291966, 1.721009, 3.024122, -78.864273, -53.197159, -634.472290
1733469331.671212, 2.740313, 2.290054, 6.964733, 2.077292, 1.512323, 3.400126, -78.986313, -51.905838, -634.627930
1733469331.681352, 2.105401, 2.425775, 7.001095, 1.856557, 1.436896, 3.804751, -78.807739, -50.682098, -635.056702
1733469331.691346, 1.088314, 2.280477, 6.910414, 1.587083, 1.516384, 4.160831, -78.869202, -48.915512, -635.566711
1733469331.701356, -0.030077, 1.955913, 6.859687, 1.300217, 1.670615, 4.446249, -78.732346, -47.324829, -636.908203
1733469331.711408, -0.996287, 1.647660, 7.028478, 1.002180, 1.821526, 4.653303, -78.476395, -45.327194, -637.186829
1733469331.721368, -1.758391, 1.347038, 7.482179, 0.691356, 1.889172, 4.839296, -78.032425, -43.234100, -638.118469
1733469331.731374, -2.352303, 1.133505, 8.173356, 0.419767, 1.836287, 5.029189, -77.721573, -41.225327, -638.381287
1733469331.741358, -3.368492, 1.071555, 9.434651, 0.115799, 1.618178, 5.171318, -77.074677, -38.809967, -639.945801
1733469331.751350, -4.470274, 1.243937, 10.851719, -0.259435, 1.321592, 5.300971, -76.237488, -36.219421, -640.192749
1733469331.761352, -5.643433, 1.696890, 11.729792, -0.698442, 1.080784, 5.417662, -75.619446, -33.643707, -640.511841
1733469331.771362, -7.062895, 2.115876, 12.186636, -1.193111, 0.958893, 5.515897, -74.365494, -30.938339, -641.227234
1733469331.781367, -8.268974, 2.567632, 12.359617, -1.716192, 0.957515, 5.629430, -73.271393, -28.256699, -641.192627
1733469331.791362, -9.382128, 2.991854, 12.397475, -2.221162, 1.011229, 5.798175, -72.027008, -24.923874, -641.302734
1733469331.801360, -10.537031, 3.140893, 12.266991, -2.736927, 1.170832, 5.982968, -70.316162, -21.777496, -641.847046
1733469331.811347, -12.504915, 2.815282, 12.334179, -3.390081, 1.419002, 6.054780, -68.749405, -18.384186, -641.093872
1733469331.821346, -15.444696, 2.568230, 12.952032, -4.271995, 1.631302, 5.886840, -66.701813, -15.380753, -640.877136
1733469331.831354, -19.205238, 2.418144, 13.470377, -5.266865, 1.668820, 5.374205, -64.628067, -12.203705, -639.315125
1733469331.841353, -22.874502, 2.509123, 13.253253, -6.176018, 1.421016, 4.560801, -63.117279, -8.951218, -638.382202
1733469331.851361, -25.960628, 3.597288, 12.175114, -6.933325, 0.933944, 3.546426, -61.553650, -6.342300, -636.212646
1733469331.861353, -28.041638, 5.409998, 10.505308, -7.489549, 0.242215, 2.491609, -60.375214, -3.995651, -633.573486
1733469331.871342, -29.118730, 7.716213, 8.015338, -7.744720, -0.535073, 1.525626, -59.748337, -2.281387, -630.560791
1733469331.880930, -29.690046, 9.696966, 4.970662, -7.719150, -1.208958, 0.687980, -59.261612, -0.903900, -627.037415
1733469331.891342, -29.699174, 10.951677, 1.755249, -7.446187, -1.585189, 0.052436, -59.120193, 0.086472, -623.699585
1733469331.901349, -29.252655, 11.789648, -1.436671, -7.040393, -1.481968, -0.384715, -59.396469, 0.510010, -620.008301
1733469331.911350, -28.271631, 13.029545, -3.292476, -6.725978, -1.131219, -0.605911, -59.460358, 0.654373, -617.126465
1733469331.921349, -27.051486, 15.053842, -3.784485, -6.600247, -0.682256, -0.652981, -59.644257, 0.690399, -614.213196
1733469331.931352, -26.243443, 17.134254, -4.086304, -6.624373, -0.227294, -0.632733, -59.645569, 0.038071, -610.809143
1733469331.941235, -25.879973, 18.398243, -5.131522, -6.634114, 0.249503, -0.605294, -60.196426, -0.231064, -609.435425
1733469331.951359, -25.723901, 18.270452, -7.226449, -6.584225, 0.814695, -0.656341, -60.755569, -0.785904, -607.005432
1733469331.961348, -25.847502, 17.772009, -9.616610, -6.451251, 1.433215, -0.823672, -61.319778, -1.564041, -604.916565
1733469331.971344, -25.810242, 17.529896, -11.967716, -6.168807, 1.992530, -1.067625, -62.413284, -2.712158, -603.732971
1733469331.981351, -25.337088, 16.809989, -13.705757, -5.770804, 2.327517, -1.404324, -63.055634, -3.709732, -602.592407
1733469331.991344, -24.795400, 16.129288, -14.896573, -5.283626, 2.387513, -1.813974, -64.134186, -5.017822, -601.501892
1733469332.001398, -24.149863, 15.607202, -16.638056, -4.592205, 2.371693, -2.249436, -65.702560, -6.149658, -601.072571
1733469332.011337, -23.504776, 14.801852, -18.732533, -3.722928, 2.370410, -2.692178, -66.802383, -7.707123, -600.971558
1733469332.021365, -22.605454, 14.337976, -20.065056, -2.774968, 2.412929, -3.087193, -68.448776, -9.059097, -601.280029
1733469332.031358, -21.484219, 14.745289, -20.460698, -1.866630, 2.492274, -3.397508, -70.049713, -10.568573, -601.093872
1733469332.041352, -20.202124, 15.119832, -19.981857, -1.044294, 2.550836, -3.669803, -71.374161, -12.076324, -602.725647
1733469332.051347, -18.907310, 15.351920, -18.817826, -0.374869, 2.583922, -3.908800, -73.142181, -13.608597, -603.648682
1733469332.061337, -17.363349, 15.683966, -17.463756, 0.127326, 2.579674, -4.093653, -74.500900, -15.506500, -605.324036
1733469332.071351, -15.909320, 15.771055, -16.222063, 0.501271, 2.593915, -4.232537, -75.784058, -17.383377, -606.507507
1733469332.081352, -14.619295, 15.621717, -15.601815, 0.821883, 2.748474, -4.305387, -77.315109, -19.525604, -607.794189
1733469332.091388, -13.445986, 15.349676, -15.373169, 1.109494, 3.049826, -4.348711, -78.415619, -21.311676, -609.463501
1733469332.101335, -12.446407, 15.161432, -14.955231, 1.391819, 3.401519, -4.386837, -79.581696, -23.553833, -612.145752
1733469332.111334, -11.317391, 15.077485, -14.252383, 1.700987, 3.653251, -4.409498, -80.565552, -25.624176, -614.123901
1733469332.121334, -10.100838, 14.974684, -13.352313, 2.072665, 3.725363, -4.418036, -81.474075, -28.041992, -616.296753
1733469332.131340, -8.751406, 14.891485, -12.464962, 2.507207, 3.619546, -4.397747, -82.188461, -30.319672, -617.553223
1733469332.141348, -7.186795, 14.746187, -11.414656, 2.981269, 3.319135, -4.308408, -82.540939, -32.618729, -619.773193
1733469332.151345, -5.478233, 14.470854, -10.134057, 3.435054, 2.912212, -4.167997, -83.027451, -35.065109, -621.667114
1733469332.161332, -4.023157, 13.857639, -8.836549, 3.767122, 2.501929, -4.001101, -83.228729, -37.527756, -623.313110
1733469332.171397, -2.881122, 12.997522, -7.773374, 3.979250, 2.177611, -3.795436, -82.973694, -39.505310, -624.386230
1733469332.181334, -1.754501, 12.075605, -7.057358, 4.117233, 2.004437, -3.547425, -82.920929, -41.869431, -625.582031
1733469332.191334, -0.731279, 11.102512, -6.581361, 4.178820, 2.004274, -3.275684, -82.867584, -43.842072, -626.539917
1733469332.201329, 0.057760, 10.218303, -6.127061, 4.164845, 2.129172, -2.991974, -82.632050, -45.979996, -627.394714
1733469332.211328, 0.691924, 9.441085, -5.610812, 4.063184, 2.379658, -2.691815, -81.744080, -47.542007, -628.373169
1733469332.221332, 1.253065, 8.895357, -5.338322, 3.901973, 2.795722, -2.350621, -81.258133, -49.399963, -629.152222
1733469332.231329, 1.726219, 8.526650, -5.045032, 3.748518, 3.250660, -1.974391, -81.239044, -50.864670, -629.745972
1733469332.241333, 2.259528, 8.166023, -4.155137, 3.636902, 3.523060, -1.582971, -80.711090, -51.948914, -631.523743
1733469332.251335, 2.960879, 7.625682, -2.906860, 3.558305, 3.514853, -1.196381, -80.102097, -53.229736, -632.815979
1733469332.261352, 3.527707, 7.063942, -2.017414, 3.527606, 3.344889, -0.824846, -79.325043, -54.370392, -633.671387
1733469332.270893, 3.863643, 6.425139, -1.522263, 3.528674, 3.099574, -0.487977, -79.047089, -55.069550, -634.447388
1733469332.281353, 4.104260, 5.839458, -1.136498, 3.561169, 2.860341, -0.162914, -78.639313, -55.810318, -635.035828
1733469332.291330, 4.420893, 5.508011, -0.656759, 3.624091, 2.612242, 0.213121, -77.951569, -56.169083, -635.774902
1733469332.301329, 4.735432, 5.389946, -0.022296, 3.672689, 2.413460, 0.644587, -77.361862, -56.782562, -636.132629
1733469332.311334, 4.707000, 5.146037, 0.385766, 3.653847, 2.361293, 1.092119, -77.094666, -56.772812, -636.125732
1733469332.321332, 4.444087, 4.825813, 0.718859, 3.553758, 2.483735, 1.544348, -76.815002, -56.898849, -636.823730
1733469332.331328, 3.991284, 4.531027, 1.235857, 3.407156, 2.684868, 1.982966, -76.729355, -56.813309, -636.632263
1733469332.341324, 3.454234, 4.199579, 2.108095, 3.203646, 2.839529, 2.377222, -76.415421, -56.221161, -638.217529
1733469332.351332, 2.882020, 3.876811, 3.223643, 2.974848, 2.849076, 2.730782, -76.125275, -55.625977, -638.857666
1733469332.361323, 2.482338, 3.728071, 4.530877, 2.754100, 2.656745, 3.081183, -76.143814, -54.783524, -639.356628
1733469332.371327, 2.090288, 3.563320, 5.778406, 2.532523, 2.323480, 3.428823, -76.143814, -54.783524, -639.356628
1733469332.381327, 1.525256, 3.358017, 6.576273, 2.314296, 1.963103, 3.774411, -75.776703, -53.636734, -639.951782
1733469332.391341, 0.937330, 3.139397, 7.023391, 2.088752, 1.636799, 4.109401, -75.832520, -52.320435, -640.224182
1733469332.401329, 0.184952, 2.904466, 7.269096, 1.836415, 1.393282, 4.428093, -75.743622, -51.017471, -640.521851
1733469332.411325, -0.894983, 2.523339, 7.085490, 1.521001, 1.401971, 4.661686, -75.870895, -49.534134, -641.265198
1733469332.421320, -2.261772, 2.138920, 6.944532, 1.107594, 1.576041, 4.764035, -75.647385, -47.547668, -641.558167
1733469332.431325, -3.225439, 2.000056, 7.147141, 0.629323, 1.765348, 4.838157, -75.267670, -45.845352, -642.158936
1733469332.441322, -3.726276, 2.083853, 7.268946, 0.211864, 1.893625, 4.962371, -74.991547, -43.862961, -642.449890
1733469332.451331, -4.279486, 2.269554, 7.386411, -0.097337, 1.949702, 5.103629, -74.568359, -41.541412, -643.983765
1733469332.461319, -4.880730, 2.443881, 7.785046, -0.401468, 1.922510, 5.233829, -73.887085, -39.254730, -644.735352
1733469332.471317, -5.409250, 2.505532, 8.509741, -0.774099, 1.790388, 5.348156, -73.244736, -36.748947, -645.440674
1733469332.481320, -5.998223, 2.612972, 9.188647, -1.212465, 1.614242, 5.433123, -72.192230, -34.105286, -645.990417
1733469332.491323, -6.616676, 3.101838, 9.631574, -1.672533, 1.400808, 5.516981, -71.183456, -31.541473, -645.862793
1733469332.501318, -7.299771, 3.697545, 9.910947, -2.105273, 1.158565, 5.603356, -70.207520, -28.801804, -646.366394
1733469332.511329, -8.267178, 4.174590, 10.179697, -2.538755, 0.934110, 5.705549, -68.535080, -25.739182, -646.229370
1733469332.521335, -9.601198, 5.022586, 10.078841, -2.998414, 0.796343, 5.814221, -67.153931, -22.541046, -646.204651
1733469332.531333, -11.261876, 5.526416, 9.405472, -3.461289, 0.789523, 5.861603, -65.497116, -19.343063, -646.411621
1733469332.541333, -12.990639, 5.343260, 8.338855, -3.903992, 0.926092, 5.845597, -63.733536, -16.367645, -644.927124
1733469332.551329, -15.533880, 5.025429, 7.242161, -4.385149, 1.259701, 5.606436, -62.041672, -13.042999, -644.882690
1733469332.561329, -18.661306, 4.566042, 6.909516, -4.927242, 1.459751, 5.054733, -59.798187, -10.258469, -643.787842
1733469332.571320, -21.079449, 4.524443, 6.843377, -5.366048, 1.325735, 4.353945, -57.687469, -7.433380, -642.575867
1733469332.581325, -22.917897, 5.120150, 6.314857, -5.613041, 0.906882, 3.627949, -56.009369, -4.968521, -640.728516
1733469332.591345, -24.358458, 6.117185, 5.590162, -5.757854, 0.327860, 2.949715, -54.441284, -2.640091, -638.452515
1733469332.601329, -25.699061, 6.990321, 4.546589, -5.866958, -0.130181, 2.348591, -53.139450, -0.691681, -635.901489
1733469332.611324, -27.608138, 8.149264, 3.143736, -6.095772, -0.234186, 1.729299, -52.230591, 1.067398, -633.385132
1733469332.621333, -29.489083, 9.373898, 2.319682, -6.577724, -0.167627, 1.017331, -51.527542, 2.608810, -630.462524
1733469332.631322, -30.759506, 11.011831, 1.659780, -7.149693, -0.186085, 0.236770, -51.628418, 3.753372, -627.283936
1733469332.641320, -31.802031, 13.511677, -0.016759, -7.555906, -0.331582, -0.549119, -51.701981, 4.491760, -623.782593
1733469332.651315, -31.844977, 15.813103, -2.875735, -7.737876, -0.489127, -1.242295, -52.087677, 4.812759, -620.834045
1733469332.661315, -31.252113, 17.775002, -6.173150, -7.718591, -0.508825, -1.820363, -52.838806, 4.947006, -617.241821
1733469332.671323, -30.392744, 19.262400, -9.648184, -7.565765, -0.215225, -2.270373, -53.515900, 4.516479, -613.487793
1733469332.681334, -29.192650, 20.363284, -12.742091, -7.310702, 0.300838, -2.618923, -54.847076, 3.707993, -610.552246
1733469332.691322, -27.706300, 21.409400, -15.195998, -6.906374, 0.811696, -2.884051, -56.397736, 2.503647, -608.341919
1733469332.701328, -25.696667, 21.890934, -17.177349, -6.271699, 1.137087, -3.056521, -58.021088, 1.186813, -606.198730
1733469332.711359, -23.671173, 21.382166, -18.790592, -5.431960, 1.295381, -3.145432, -59.268738, -0.208130, -604.473083
1733469332.721318, -22.133048, 20.712388, -20.026001, -4.434890, 1.298920, -3.182108, -60.878845, -1.702896, -603.136353
1733469332.731317, -20.944775, 19.938313, -20.701016, -3.455750, 1.235786, -3.254876, -62.691299, -2.865601, -602.489868
1733469332.741322, -20.236092, 19.060688, -20.728848, -2.643557, 1.232435, -3.400727, -64.121918, -4.437225, -602.018799
1733469332.751320, -19.744682, 18.863915, -20.251953, -2.057467, 1.358920, -3.588231, -65.657623, -5.856247, -602.269226
1733469332.761320, -18.985720, 18.717120, -19.764135, -1.644479, 1.607411, -3.797276, -67.119125, -7.300659, -602.536377
1733469332.770601, -17.923742, 18.260277, -19.670312, -1.217865, 1.920153, -3.956050, -69.049088, -8.884567, -602.408630
1733469332.781329, -16.529718, 17.926136, -19.934572, -0.715878, 2.293364, -4.030036, -70.558594, -10.549026, -603.783325
1733469332.791320, -15.130906, 17.461811, -19.883695, -0.180186, 2.671867, -4.070297, -72.186722, -12.105164, -604.668091
1733469332.801324, -13.840431, 17.159692, -19.108572, 0.350070, 2.968607, -4.061477, -73.910782, -13.741821, -605.950562
1733469332.810769, -12.688221, 17.009456, -18.017864, 0.832684, 3.192371, -4.056590, -75.607773, -15.617477, -607.819214
1733469332.821323, -11.703606, 16.661100, -16.615011, 1.259007, 3.248322, -4.079178, -76.774780, -17.349533, -608.706970
1733469332.831321, -10.662427, 16.396391, -14.943260, 1.686928, 3.058624, -4.108732, -78.206696, -19.253937, -611.419250
1733469332.841328, -9.459940, 16.126594, -13.557167, 2.135562, 2.688972, -4.099356, -79.166046, -21.304840, -612.351990
1733469332.850390, -8.297255, 15.517270, -12.527810, 2.575562, 2.278065, -4.086073, -80.212250, -23.417526, -614.240845
1733469332.861322, -7.599944, 14.771326, -11.808203, 2.956668, 1.982144, -4.099054, -80.928009, -25.393616, -615.515381
1733469332.871321, -7.108834, 14.238617, -11.127052, 3.234760, 1.853420, -4.122702, -81.707657, -27.607117, -616.971069
1733469332.881363, -6.613084, 13.910012, -10.365098, 3.399697, 1.882799, -4.142751, -82.203125, -29.838699, -618.729431
1733469332.890308, -5.972935, 13.491626, -9.666440, 3.491431, 2.014658, -4.137357, -82.419601, -32.163818, -619.765930
1733469332.900401, -5.067029, 12.983606, -8.868572, 3.546961, 2.172186, -4.086956, -82.899155, -34.408768, -621.038818
1733469332.911322, -4.083012, 12.459725, -8.122329, 3.591826, 2.308067, -3.980063, -82.959488, -36.760559, -622.377869
1733469332.921330, -3.053355, 11.877485, -7.568969, 3.634244, 2.491130, -3.819586, -83.005051, -39.146225, -623.807861
1733469332.931367, -1.963395, 11.251251, -7.191134, 3.683839, 2.701360, -3.589710, -82.779327, -41.148743, -625.295166
1733469332.941323, -0.709432, 10.714352, -6.511929, 3.780654, 2.862546, -3.276328, -82.460251, -43.392746, -626.377563
1733469332.950411, 0.479140, 10.338013, -5.605724, 3.910503, 2.918577, -2.890285, -82.338028, -45.349762, -627.834412
1733469332.961318, 1.555333, 9.935338, -4.688445, 4.042535, 2.897843, -2.467725, -81.626099, -47.178864, -628.451050
1733469332.971323, 2.436699, 9.342624, -3.875764, 4.139560, 2.859129, -2.025122, -81.498734, -48.800049, -629.871643
1733469332.980920, 3.138050, 8.841487, -3.082535, 4.190992, 2.850979, -1.551393, -80.811996, -49.946045, -630.733276
1733469332.990342, 3.739593, 8.469039, -2.176030, 4.176403, 2.854956, -1.034643, -80.232925, -51.144501, -631.458984
1733469333.000428, 4.181772, 7.836970, -1.385495, 4.097034, 2.901726, -0.493555, -79.870483, -52.072601, -632.541687
1733469333.011316, 4.472069, 6.991817, -0.859369, 3.969190, 3.021763, 0.048092, -79.348694, -52.633987, -633.323120
1733469333.021323, 4.436755, 6.406584, -0.298826, 3.820790, 3.168624, 0.567688, -79.002594, -53.226837, -634.265625
1733469333.031320, 4.104859, 6.014235, 0.464176, 3.670450, 3.265171, 1.037713, -78.447021, -53.348999, -635.209045
1733469333.041310, 3.429544, 5.340117, 1.336114, 3.492839, 3.325197, 1.413998, -78.145081, -53.399658, -636.383972
1733469333.051312, 2.762161, 4.382885, 2.321179, 3.268761, 3.247087, 1.670976, -77.573959, -53.244385, -637.245605
1733469333.060848, 2.495955, 3.875315, 3.441366, 3.038873, 2.955082, 1.885908, -77.287247, -53.115997, -638.211548
1733469333.071269, 2.465579, 3.703231, 4.337096, 2.868751, 2.507962, 2.115724, -76.686218, -52.730606, -639.067627
1733469333.081378, 2.374599, 3.466804, 4.781969, 2.775028, 2.037707, 2.377443, -76.250015, -52.343643, -639.729187
1733469333.091303, 2.239626, 3.191172, 4.580706, 2.720150, 1.736475, 2.674635, -76.371307, -51.875381, -639.247986
1733469333.101304, 1.948880, 2.856432, 3.990386, 2.684252, 1.655769, 2.995703, -76.196121, -50.978912, -639.639038
1733469333.110854, 1.402703, 2.612224, 3.533393, 2.671232, 1.780932, 3.326369, -75.785690, -50.280334, -639.823120
1733469333.121302, 0.758663, 2.454805, 3.786729, 2.607272, 2.009421, 3.635306, -75.765182, -49.137848, -641.058472
1733469333.131314, 0.029628, 2.376096, 4.925920, 2.445878, 2.125736, 3.929717, -75.173370, -47.975754, -641.883179
1733469333.141317, -0.577452, 2.402881, 6.478859, 2.220200, 2.080724, 4.227287, -74.927444, -46.637939, -642.137329
1733469333.151263, -1.329081, 2.412158, 7.684639, 1.962185, 1.936204, 4.501232, -74.879105, -45.191666, -642.524658
1733469333.160868, -2.127697, 2.194735, 8.841787, 1.627628, 1.726425, 4.736916, -74.475906, -43.402008, -644.173218
1733469333.171300, -2.970905, 1.815254, 9.754875, 1.186188, 1.480779, 4.902465, -73.871597, -41.716263, -643.845947
1733469333.181310, -3.930232, 1.198298, 10.051756, 0.687104, 1.353664, 5.013614, -73.413910, -39.737869, -645.338257
1733469333.191307, -4.854543, 0.730232, 9.853786, 0.181450, 1.368737, 5.067472, -72.738190, -37.555954, -645.166138
1733469333.201304, -5.637148, 0.675913, 9.926959, -0.321247, 1.347181, 5.097102, -72.216705, -35.184784, -645.190247
1733469333.210875, -6.233005, 0.952892, 10.446650, -0.781682, 1.198480, 5.137437, -71.158081, -32.725281, -646.310181
1733469333.221307, -7.123199, 1.124976, 10.926239, -1.260475, 1.031272, 5.142612, -70.085831, -30.295059, -645.886108
1733469333.231298, -8.173655, 1.278354, 11.288212, -1.805581, 0.877407, 5.128663, -69.239334, -27.653824, -646.521973
1733469333.241309, -9.232042, 1.322647, 11.077971, -2.344655, 0.811501, 5.097075, -68.016830, -24.807358, -646.168823
1733469333.251314, -10.540024, 1.455076, 10.450690, -2.804327, 0.785286, 5.021005, -66.904572, -22.101013, -645.718506
1733469333.260898, -11.904420, 1.631499, 9.898827, -3.167804, 0.757625, 4.895128, -65.394897, -19.123077, -645.713745
1733469333.271295, -13.004106, 1.706467, 9.728838, -3.507116, 0.691917, 4.747088, -64.070663, -16.691040, -644.424927
1733469333.281310, -14.015657, 1.811662, 10.088418, -3.907228, 0.552291, 4.596077, -62.476456, -13.982483, -644.343079
1733469333.291298, -15.298949, 2.126799, 10.444705, -4.385857, 0.421819, 4.382668, -61.060852, -11.078644, -643.197571
1733469333.301306, -16.749536, 2.605191, 10.290578, -4.906365, 0.332445, 4.084379, -59.668182, -8.715088, -640.917297
1733469333.310896, -18.398392, 3.453187, 9.880421, -5.411925, 0.294240, 3.708297, -58.266190, -6.031433, -639.851318
1733469333.321294, -20.145711, 5.010765, 9.398139, -5.918267, 0.296436, 3.258493, -56.931259, -3.601913, -636.877747
1733469333.331291, -21.831677, 7.015909, 9.248801, -6.462523, 0.196218, 2.788918, -55.664551, -1.427567, -635.013611
1733469333.341301, -23.342269, 9.141960, 8.453178, -7.009316, 0.112141, 2.312019, -54.756454, 0.643051, -631.998718
1733469333.351305, -24.780137, 10.952425, 6.611588, -7.549843, 0.097410, 1.808369, -53.933578, 2.177856, -628.119995
1733469333.360908, -26.032604, 12.615797, 4.241029, -8.018390, 0.103420, 1.262439, -53.568146, 3.368164, -625.150208
1733469333.371298, -27.171495, 14.527118, 1.327585, -8.296904, 0.169190, 0.687212, -53.320633, 4.195374, -620.838074
1733469333.381305, -28.270434, 16.435297, -1.637634, -8.410170, 0.318482, 0.054756, -53.112656, 4.721710, -617.566589
1733469333.391302, -29.016677, 18.119767, -4.036325, -8.395307, 0.407357, -0.602685, -53.936920, 4.679199, -613.695923
1733469333.401309, -28.952781, 19.371935, -6.482301, -8.200250, 0.516327, -1.202099, -54.343140, 4.068817, -610.148987
1733469333.410916, -28.341661, 20.388872, -9.067440, -7.808675, 0.620964, -1.736622, -55.542664, 3.176208, -608.015137
1733469333.421294, -27.788002, 21.371243, -10.939556, -7.289743, 0.619216, -2.210629, -56.417816, 1.944321, -604.868774
1733469333.431294, -27.043555, 21.663934, -12.540529, -6.703990, 0.624627, -2.620926, -57.839462, 0.673019, -602.942749
1733469333.441295, -26.074203, 21.875671, -14.173075, -6.076896, 0.678614, -2.933821, -59.306763, -0.825241, -601.275391
1733469333.451362, -24.773403, 21.971738, -15.736040, -5.411134, 0.822354, -3.168352, -60.813232, -2.590195, -599.188721
1733469333.460926, -23.366061, 21.737705, -17.098790, -4.725248, 1.019622, -3.341841, -62.505905, -4.144180, -598.652588
1733469333.471460, -21.817312, 21.581184, -18.156728, -4.007624, 1.240986, -3.416986, -63.922318, -5.689560, -597.867554
1733469333.481452, -20.171598, 21.008671, -19.035100, -3.244863, 1.443161, -3.433988, -65.401138, -7.382385, -598.209290
1733469333.491437, -18.824111, 20.214245, -19.198654, -2.509658, 1.595765, -3.435126, -66.936966, -8.611664, -598.126587
1733469333.501362, -17.769615, 19.665224, -18.923321, -1.840657, 1.741938, -3.423229, -68.316605, -10.339951, -598.060669
1733469333.510945, -16.911743, 19.092711, -18.533066, -1.258074, 1.971039, -3.391614, -70.115952, -11.603958, -599.274170
1733469333.521258, -15.567099, 17.136947, -17.387590, -0.355049, 2.586082, -3.424770, -71.697006, -13.104736, -599.833679
1733469333.531122, -14.879664, 16.436793, -16.540193, 0.048374, 2.824285, -3.488259, -73.385040, -14.488419, -601.182861
1733469333.541295, -14.019996, 16.089933, -15.617826, 0.491047, 2.904069, -3.556098, -74.871750, -16.000275, -603.394043
1733469333.551297, -13.155540, 15.927875, -14.763545, 0.970435, 2.873751, -3.655007, -76.333649, -17.611526, -603.869690
1733469333.560935, -13.155540, 15.927875, -14.763545, 1.442716, 2.740207, -3.813677, -77.670334, -19.236771, -606.330811
1733469333.571295, -11.561899, 15.458462, -12.994978, 1.877520, 2.573807, -4.003228, -78.642502, -21.129852, -607.492798
1733469333.581285, -10.604518, 15.493178, -12.143989, 2.264335, 2.400635, -4.171411, -79.758698, -22.908676, -609.669189
1733469333.591283, -9.510816, 15.560665, -11.298986, 2.615638, 2.220224, -4.268893, -80.566650, -24.836334, -611.238586
1733469333.600397, -9.510816, 15.560665, -11.298986, 2.615638, 2.220224, -4.268893, -81.369308, -27.007660, -612.073486
1733469333.610947, -7.377284, 15.198991, -10.629358, 3.317092, 2.191704, -4.176157, -81.706726, -29.013077, -614.325195
1733469333.621290, -6.349423, 14.789582, -10.113108, 3.643292, 2.300138, -4.000755, -82.246780, -31.179123, -615.831177
1733469333.631284, -5.375581, 14.242657, -9.413851, 3.938788, 2.445904, -3.769724, -82.805511, -33.116150, -616.977539
1733469333.641282, -4.718223, 13.647249, -8.648455, 4.206190, 2.640144, -3.540392, -83.336655, -35.418350, -618.624084
1733469333.651289, -4.070891, 13.066056, -7.617153, 4.420638, 2.780394, -3.318931, -83.572357, -37.283844, -619.944824
1733469333.661289, -3.370587, 12.442217, -6.317550, 4.559755, 2.810033, -3.121471, -83.556625, -39.165298, -621.240295
1733469333.671280, -2.770391, 11.674127, -5.290437, 4.638520, 2.776614, -2.966813, -83.615112, -41.204941, -623.279175
1733469333.681281, -2.207903, 10.859500, -4.701464, 4.735726, 2.705430, -2.821463, -83.794434, -43.138412, -624.350403
1733469333.691275, -1.499818, 10.281749, -4.044405, 4.850187, 2.606227, -2.666113, -83.375275, -45.033127, -625.453552
1733469333.701285, -0.762404, 9.748441, -3.398569, 4.932968, 2.542430, -2.497514, -82.910217, -46.966202, -626.749268
1733469333.711276, 0.052672, 9.310901, -2.631527, 4.957807, 2.530473, -2.278742, -82.160492, -48.584808, -627.130615
1733469333.721281, 0.820463, 8.956858, -1.899799, 4.909981, 2.632533, -2.011413, -81.804840, -50.249023, -627.952881
1733469333.730621, 1.535132, 8.430583, -1.149217, 4.789064, 2.785165, -1.668121, -81.804840, -50.249023, -627.952881
1733469333.741283, 2.357391, 8.006210, -0.067187, 4.651061, 2.874923, -1.252103, -80.905777, -52.931595, -628.775146
1733469333.751282, 3.019088, 7.543980, 1.052701, 4.481648, 2.887548, -0.801640, -80.426315, -53.871384, -629.772400
1733469333.761278, 3.344251, 6.972065, 2.216731, 4.292003, 2.786372, -0.359783, -79.995010, -54.764130, -630.779724
1733469333.771291, 3.589507, 6.287024, 3.294421, 4.040854, 2.588139, 0.039500, -79.639755, -55.383804, -631.828003
1733469333.781279, 3.623923, 5.420473, 3.947590, 3.789113, 2.354648, 0.379943, -79.421371, -55.910416, -632.412720
1733469333.791288, 3.544616, 4.568586, 4.403236, 3.550323, 2.167861, 0.669245, -79.216599, -56.083359, -632.265320
1733469333.801285, 3.591302, 4.017470, 4.724059, 3.267360, 2.076636, 0.952023, -78.646591, -56.223221, -632.871216
1733469333.811276, 3.741539, 3.706075, 4.991013, 2.975487, 2.027471, 1.284164, -78.285614, -56.179092, -633.279968
1733469333.821282, 3.928735, 3.433435, 5.012112, 2.778907, 2.032427, 1.705173, -78.009689, -55.755768, -633.960449
1733469333.831283, 3.856460, 3.293075, 4.912303, 2.660375, 2.132071, 2.175571, -77.994797, -55.080612, -634.245239
1733469333.841274, 3.328240, 3.083432, 5.295226, 2.509694, 2.242274, 2.611298, -77.994797, -55.080612, -634.245239
1733469333.851278, 2.692878, 2.682404, 6.025008, 2.287076, 2.341921, 2.972075, -78.236404, -54.308640, -635.022827
1733469333.861288, 2.175282, 2.113182, 6.690896, 1.998103, 2.410568, 3.265097, -78.158676, -53.274185, -635.472717
1733469333.871277, 1.908478, 1.833809, 7.456591, 1.679528, 2.349512, 3.527405, -78.108734, -52.277939, -636.424988
1733469333.881286, 1.818695, 1.875109, 8.569147, 1.363140, 2.082652, 3.813680, -77.645432, -50.972534, -637.372192
1733469333.891272, 1.629554, 1.958008, 9.392154, 1.073083, 1.696817, 4.150089, -77.816040, -49.186417, -637.697815
1733469333.901292, 1.126023, 1.995268, 9.594763, 0.802842, 1.390111, 4.532810, -77.555313, -47.625183, -638.371155
1733469333.911327, 0.117316, 1.856853, 9.204059, 0.518342, 1.299590, 4.911235, -77.214935, -45.554214, -638.906189
1733469333.921275, -1.155202, 1.554884, 8.755895, 0.218314, 1.387684, 5.262815, -77.022034, -43.616638, -638.995605
1733469333.931277, -2.520346, 1.434875, 8.484751, -0.066395, 1.569151, 5.545792, -76.516296, -41.029022, -640.038879
1733469333.941275, -3.959112, 1.591994, 8.937106, -0.381669, 1.693590, 5.742211, -76.136139, -38.431976, -640.782532
1733469333.951272, -5.651812, 1.806425, 10.024073, -0.753540, 1.701098, 5.822698, -75.275284, -35.829178, -641.663025
1733469333.961274, -7.614160, 1.672350, 11.402685, -1.243248, 1.575984, 5.770672, -74.208862, -33.049042, -642.336060
1733469333.971269, -9.253889, 1.298705, 12.729372, -1.864968, 1.315254, 5.663124, -73.397552, -30.067932, -642.511108
1733469333.981266, -10.507553, 1.240795, 13.160029, -2.458466, 1.025505, 5.588856, -72.032974, -27.195801, -642.980774
1733469333.991265, -11.785158, 1.848324, 12.710517, -2.953026, 0.822016, 5.510219, -70.635818, -24.117050, -642.985901
1733469334.001268, -12.979266, 2.512266, 12.351387, -3.388844, 0.561819, 5.438553, -69.115265, -21.245331, -642.929016
1733469334.011285, -14.394389, 3.212869, 12.314127, -3.826178, 0.286167, 5.294284, -67.823502, -18.224411, -642.232300
1733469334.021287, -15.970821, 3.659088, 12.334328, -4.344757, -0.055269, 5.049188, -66.564529, -15.205856, -641.489624
1733469334.030987, -17.269975, 4.383334, 12.038046, -4.833266, -0.435642, 4.814910, -64.911575, -12.196701, -639.936279
1733469334.041338, -19.134759, 5.691616, 11.147403, -5.261670, -0.672672, 4.553170, -63.341736, -9.271011, -638.131958
1733469334.051269, -21.501128, 7.045088, 10.216358, -5.707260, -0.724670, 4.232002, -61.776733, -6.814026, -635.940002
1733469334.061271, -23.504626, 8.334216, 9.155577, -6.183642, -0.552723, 3.881881, -60.159409, -4.150681, -633.774597
1733469334.071263, -24.962695, 9.937284, 7.710377, -6.675519, -0.140495, 3.548671, -58.278824, -1.850113, -631.199951
1733469334.081316, -26.243892, 11.559804, 6.605752, -7.212364, 0.326154, 3.173178, -56.955734, 0.255371, -627.474976
1733469334.091277, -27.292552, 12.728175, 5.466561, -7.773296, 0.747482, 2.714644, -55.855713, 1.983749, -625.134949
1733469334.101268, -28.402863, 14.205996, 4.022109, -8.274001, 0.978107, 2.081914, -54.935287, 3.435089, -622.149292
1733469334.111280, -29.198486, 15.611990, 2.152986, -8.579905, 1.032882, 1.342157, -54.007278, 4.284103, -618.475586
1733469334.120551, -30.002190, 16.588825, -0.179565, -8.699213, 0.934166, 0.446009, -53.577988, 4.613449, -615.185059
1733469334.131290, -30.884603, 17.629704, -2.465280, -8.583744, 0.602152, -0.529613, -53.823547, 4.584045, -611.547363
1733469334.141278, -30.528914, 19.024476, -5.247940, -8.125469, 0.235073, -1.319237, -54.179962, 3.971802, -608.424683
1733469334.151263, -29.549835, 20.400095, -8.155100, -7.468662, 0.073087, -1.895877, -54.701843, 2.964294, -605.214661
1733469334.160898, -28.707675, 21.569812, -10.277859, -6.843914, 0.165917, -2.288016, -55.663040, 1.744263, -602.165405
1733469334.171269, -27.450121, 21.847389, -11.845462, -6.306931, 0.443573, -2.521228, -56.630692, 0.491928, -599.681458
1733469334.181176, -26.261848, 21.560235, -13.276147, -5.772335, 0.827554, -2.716722, -57.795715, -1.399811, -597.005859
1733469334.191268, -25.456798, 21.403265, -14.317176, -5.207417, 1.148699, -2.954199, -59.302811, -3.057877, -595.690247
1733469334.201261, -24.432678, 21.345505, -15.043667, -4.604565, 1.380112, -3.177322, -60.601212, -4.797974, -594.869873
1733469334.211275, -23.150583, 21.207090, -15.843181, -3.968597, 1.591287, -3.342436, -62.070511, -6.605835, -593.997559
1733469334.221274, -21.687277, 20.583401, -16.635362, -3.338948, 1.828547, -3.444822, -63.683044, -8.307251, -593.223755
1733469334.231258, -20.170401, 19.913024, -17.038037, -2.720650, 2.103665, -3.450857, -65.321121, -9.895309, -593.086060
1733469334.241265, -19.001432, 19.709218, -17.196952, -2.152520, 2.484738, -3.408693, -66.850754, -11.449387, -593.584106
1733469334.251258, -18.135180, 19.139098, -17.099239, -1.651580, 2.899232, -3.385296, -68.526215, -13.169754, -594.496826
1733469334.261276, -17.368586, 18.409615, -16.893188, -1.143397, 3.264474, -3.399061, -70.428238, -14.651993, -595.145813
1733469334.271275, -16.455947, 17.989882, -16.611869, -0.540030, 3.481737, -3.393751, -72.046707, -16.166122, -596.608093
1733469334.281301, -15.362545, 17.317261, -16.399982, 0.153696, 3.567251, -3.435489, -73.825165, -17.918839, -597.414246
1733469334.291271, -14.342615, 16.521637, -15.800534, 0.885588, 3.473796, -3.539186, -75.392761, -19.312943, -600.164124
1733469334.301269, -13.419500, 16.081404, -14.620791, 1.580771, 3.295727, -3.657543, -76.926743, -20.835342, -601.845276
1733469334.311254, -12.411242, 15.959000, -13.162423, 2.151995, 3.110956, -3.724314, -78.043839, -22.359360, -603.832520
1733469334.321261, -11.561600, 15.843031, -11.520001, 2.571742, 2.984133, -3.803944, -79.438614, -23.944351, -605.817871
1733469334.331262, -10.973823, 15.597925, -9.979930, 2.843359, 2.867686, -3.917961, -80.186340, -25.789703, -607.778687
1733469334.341319, -10.109367, 15.363742, -8.353968, 3.036919, 2.664479, -4.006713, -81.023056, -27.534821, -609.859131
1733469334.351256, -9.059509, 15.146618, -7.229890, 3.193140, 2.455259, -4.049278, -82.070786, -29.558456, -611.294373
1733469334.361255, -8.033444, 14.806491, -6.722619, 3.325560, 2.333741, -4.038123, -82.700485, -31.440491, -612.286377
1733469334.371260, -7.026533, 14.252533, -6.506393, 3.439517, 2.322122, -3.971530, -83.183426, -33.400177, -613.688049
1733469334.381305, -6.019322, 13.749750, -6.421997, 3.531871, 2.434561, -3.851752, -83.313965, -35.580719, -614.405640
1733469334.391259, -5.033510, 13.123966, -6.459855, 3.622905, 2.655455, -3.677596, -83.274323, -37.613190, -616.390198
1733469334.401257, -3.897910, 12.489054, -6.213851, 3.746941, 2.823115, -3.441577, -83.412338, -39.527267, -617.709717
1733469334.411258, -2.742259, 11.915792, -5.657947, 3.898324, 2.934473, -3.147683, -83.667618, -41.459198, -619.143250
1733469334.421257, -1.808670, 11.161020, -5.231780, 4.047598, 3.057135, -2.827145, -83.530746, -43.111176, -620.790955
1733469334.431266, -1.234660, 10.349685, -4.887763, 4.164764, 3.270247, -2.513569, -83.419937, -45.006119, -622.507812
1733469334.441264, -0.726191, 9.682900, -4.206163, 4.236514, 3.468243, -2.206705, -83.062531, -46.459137, -624.196655
1733469334.451255, -0.173430, 9.183858, -3.160346, 4.276997, 3.564349, -1.893819, -82.754227, -47.923157, -625.685852
1733469334.461256, 0.303914, 8.665065, -2.162114, 4.309290, 3.576506, -1.592190, -82.347534, -49.145813, -626.984192
1733469334.471265, 0.804152, 8.282890, -1.211466, 4.344173, 3.499668, -1.278291, -81.919189, -50.488159, -628.083923
1733469334.481318, 1.206528, 7.968502, -0.151284, 4.349043, 3.335502, -0.955450, -81.328583, -51.701736, -628.892456
1733469334.491252, 1.629254, 7.445369, 0.811784, 4.299565, 3.127772, -0.627571, -80.965912, -52.627945, -630.370972
1733469334.501251, 1.815254, 6.698677, 1.365742, 4.195521, 2.972182, -0.328908, -80.639099, -53.418549, -630.630005
1733469334.511010, 1.782483, 5.991939, 1.648707, 4.051167, 2.930198, -0.060228, -80.110275, -54.126389, -631.484985
1733469334.521274, 1.915062, 5.339519, 1.951274, 3.847652, 2.960723, 0.197466, -79.389572, -54.582916, -632.441284
1733469334.531261, 2.128445, 4.523096, 2.460641, 3.599829, 2.943709, 0.455210, -79.121033, -55.169434, -633.430725
1733469334.541257, 2.308010, 3.859603, 2.950704, 3.353659, 2.893529, 0.696777, -78.709625, -55.364334, -634.358459
1733469334.551264, 2.383128, 3.644274, 3.364602, 3.134051, 2.795400, 0.943512, -78.544952, -55.547241, -634.886963
1733469334.561308, 2.591873, 3.551798, 3.953575, 2.943276, 2.604451, 1.215656, -78.464035, -55.424377, -635.366150
1733469334.571260, 2.606687, 3.354127, 4.453065, 2.768686, 2.382459, 1.509932, -77.703583, -55.270523, -635.838196
1733469334.581246, 2.415001, 3.024475, 4.546739, 2.618909, 2.202023, 1.826003, -77.491898, -55.339340, -635.598389
1733469334.591317, 2.187402, 2.728642, 4.470274, 2.533026, 2.078252, 2.159558, -77.302261, -54.743820, -636.824097
1733469334.601250, 1.921496, 2.211195, 4.436755, 2.457345, 2.009085, 2.468659, -77.471085, -54.033554, -637.033875
1733469334.611256, 1.606509, 1.851765, 4.540454, 2.377208, 1.967236, 2.753469, -77.116104, -53.336075, -638.146423
1733469334.621253, 1.383400, 1.717092, 4.959738, 2.277869, 1.894536, 3.008506, -77.096100, -52.423950, -638.547974
1733469334.631257, 1.318756, 1.481861, 5.757008, 2.124586, 1.717265, 3.252611, -77.020401, -51.302795, -638.966370
1733469334.641267, 1.089960, 1.579275, 6.875998, 1.942025, 1.435663, 3.511672, -76.566879, -50.288086, -639.232544
1733469334.651249, 0.757166, 1.875258, 7.937227, 1.741847, 1.109068, 3.824524, -76.798965, -48.918549, -639.815186
1733469334.661306, 0.132280, 2.017115, 8.700978, 1.498448, 0.859260, 4.154767, -76.684860, -47.269592, -639.962646
1733469334.671248, -0.713622, 2.102558, 9.042900, 1.174827, 0.784294, 4.501710, -76.465485, -45.590332, -640.237183
1733469334.681257, -1.632995, 2.529474, 9.339631, 0.765491, 0.852626, 4.856936, -76.320435, -43.617950, -640.075684
1733469334.691249, -2.726098, 2.771139, 9.588927, 0.263534, 1.048649, 5.168164, -75.756699, -41.351669, -640.688232
1733469334.701255, -3.849577, 2.926612, 9.848997, -0.297730, 1.231863, 5.409620, -75.518906, -38.623672, -641.403687
1733469334.711247, -4.871003, 3.080739, 10.327389, -0.839690, 1.238491, 5.594179, -74.845612, -36.094498, -642.095398
1733469334.721264, -6.093991, 3.152715, 10.659285, -1.273901, 1.039269, 5.724638, -74.021820, -33.222275, -642.166016
1733469334.731259, -7.620145, 3.025223, 10.662727, -1.602522, 0.783922, 5.779886, -73.081482, -30.355026, -642.885742
1733469334.741252, -9.271546, 2.827552, 10.834361, -1.921625, 0.535032, 5.772964, -72.193146, -27.327957, -642.297852
1733469334.751251, -10.920103, 2.892196, 11.191995, -2.317312, 0.351369, 5.720345, -71.044876, -24.156616, -642.249023
1733469334.761257, -12.414983, 2.803909, 11.345373, -2.798399, 0.237270, 5.648354, -69.826050, -21.228424, -642.303101
1733469334.771242, -13.895797, 3.008314, 11.330709, -3.323553, 0.217120, 5.516396, -68.160690, -18.193924, -641.406372
1733469334.781253, -15.417462, 3.352182, 11.282675, -3.924424, 0.289472, 5.310025, -66.807098, -15.248779, -639.486450
1733469334.791262, -17.012299, 3.781941, 11.724854, -4.645679, 0.247411, 5.020638, -65.333679, -12.068130, -639.035583
1733469334.801257, -18.882171, 4.968567, 12.149975, -5.357663, -0.004716, 4.666790, -63.650040, -9.048737, -637.349487
1733469334.811248, -20.656873, 6.365883, 11.318139, -5.920190, -0.342754, 4.320642, -62.189301, -6.391708, -634.506531
1733469334.821251, -22.444294, 7.467964, 9.825953, -6.362971, -0.752475, 3.969886, -60.612869, -3.961700, -632.232239
1733469334.831244, -24.529793, 8.555829, 7.821707, -6.714301, -0.978393, 3.634004, -58.958908, -1.717239, -629.597778
1733469334.841246, -27.022905, 9.414300, 4.778078, -7.025560, -0.755070, 3.232531, -57.678207, 0.311264, -626.499084
1733469334.851250, -29.491776, 10.414777, 2.153135, -7.402480, -0.192272, 2.731925, -56.281830, 1.863464, -623.287170
1733469334.861256, -31.352969, 11.704055, 0.253486, -7.837529, 0.411665, 2.128920, -55.593079, 2.903442, -620.255310
1733469334.871242, -32.343719, 13.549984, -1.524807, -8.132550, 0.779849, 1.470510, -55.096970, 3.527313, -616.757812
1733469334.881249, -33.074250, 15.423746, -3.804835, -8.150711, 0.926046, 0.741799, -55.027100, 3.671417, -613.108459
1733469334.891247, -33.765875, 16.126295, -6.567445, -7.911030, 0.896446, -0.081377, -55.128510, 3.262817, -610.433350
1733469334.901240, -33.737893, 15.941193, -9.540894, -7.400273, 0.808045, -0.910559, -55.774414, 2.661041, -608.119141
1733469334.911246, -32.935686, 15.854104, -12.517784, -6.665583, 0.807838, -1.638749, -56.636902, 1.747925, -605.466492
1733469334.921237, -31.686810, 16.368259, -14.559140, -5.872804, 0.856412, -2.235050, -57.714630, 0.413925, -603.579285
1733469334.931239, -29.999945, 16.955886, -15.535077, -5.096755, 0.940714, -2.674822, -59.023483, -0.906296, -602.429382
1733469334.941291, -28.184841, 16.982821, -16.417490, -4.311394, 1.110790, -2.996478, -60.555984, -2.361298, -601.217285
1733469334.951243, -26.574441, 16.833183, -16.792182, -3.521991, 1.294274, -3.218888, -62.151352, -3.799728, -600.804810
1733469334.961242, -24.815002, 16.374993, -16.395044, -2.795099, 1.423996, -3.382680, -64.075836, -5.414261, -600.603027
1733469334.971234, -23.081151, 15.434071, -15.588797, -2.172317, 1.485283, -3.523012, -65.416519, -6.835083, -600.579407
1733469334.981288, -21.523873, 14.689475, -14.404116, -1.670246, 1.468393, -3.630006, -67.151398, -8.507126, -600.265137
1733469334.991236, -20.144962, 14.114417, -13.301137, -1.322382, 1.442977, -3.740741, -68.373199, -10.017944, -600.931274
1733469335.001232, -19.076999, 13.843424, -12.422615, -1.126337, 1.444762, -3.852333, -70.243835, -11.591705, -601.664307
1733469335.011242, -18.072781, 13.691093, -11.895741, -1.019469, 1.477115, -3.980695, -71.666550, -13.181946, -601.887817
1733469335.021242, -17.220744, 13.642011, -11.788151, -0.918937, 1.541024, -4.115486, -73.202057, -15.033371, -602.561890
1733469335.031289, -16.265159, 13.626599, -12.086678, -0.766220, 1.664813, -4.224409, -74.641846, -16.946289, -603.204773
1733469335.041271, -15.304635, 13.414113, -12.625523, -0.528607, 1.847897, -4.320060, -75.839127, -18.938263, -603.992554
1733469335.051255, -14.314782, 13.152846, -13.119028, -0.206949, 2.041184, -4.386497, -77.234436, -21.026947, -604.675842
1733469335.060765, -13.119926, 13.147160, -13.176339, 0.173806, 2.169645, -4.405368, -78.412918, -23.052597, -605.784546
1733469335.071243, -11.952902, 13.269115, -12.918214, 0.581680, 2.243592, -4.389420, -79.338455, -25.207123, -607.476379
1733469335.081241, -10.941950, 13.440599, -12.451644, 0.974345, 2.256804, -4.352949, -80.543808, -27.215622, -608.471619
1733469335.091253, -9.844508, 13.578565, -11.760319, 1.333759, 2.206720, -4.276813, -81.269257, -29.331512, -609.623352
1733469335.101255, -8.653692, 13.474866, -11.226112, 1.666013, 2.161507, -4.144670, -81.883789, -31.214508, -611.124512
1733469335.111256, -7.654263, 13.100174, -10.853814, 1.968123, 2.181371, -3.996629, -82.530273, -33.297577, -612.249329
1733469335.121242, -6.911013, 12.514342, -10.458172, 2.236989, 2.257807, -3.864525, -82.821442, -35.133804, -613.846497
1733469335.131231, -6.175544, 11.896189, -10.000131, 2.473486, 2.390728, -3.740239, -83.386307, -37.034241, -614.724854
1733469335.141232, -5.258415, 11.393856, -9.506627, 2.685989, 2.529134, -3.598633, -83.494019, -39.047089, -616.081360
1733469335.151230, -4.329914, 10.945243, -8.762928, 2.888699, 2.616127, -3.415534, -83.654984, -40.875183, -617.500977
1733469335.161241, -3.387646, 10.444405, -8.205079, 3.077672, 2.687370, -3.212308, -83.447891, -42.690750, -618.888184
1733469335.171233, -2.554613, 9.894338, -7.578995, 3.237626, 2.728881, -2.997637, -83.292892, -44.314178, -620.124146
1733469335.181232, -1.816152, 9.345467, -7.009474, 3.384350, 2.757302, -2.762107, -83.365921, -45.677460, -621.474243
1733469335.191240, -0.941221, 8.875605, -6.520309, 3.537919, 2.774824, -2.487147, -83.132004, -47.204269, -622.361206
1733469335.201225, -0.211588, 8.529343, -5.783643, 3.713291, 2.730044, -2.183291, -82.711792, -48.743164, -623.846802
1733469335.211229, 0.447865, 8.153304, -4.917092, 3.864496, 2.659274, -1.855243, -82.395447, -49.898590, -624.592651
1733469335.221229, 0.982820, 7.541286, -4.218284, 3.957287, 2.634828, -1.528617, -82.077225, -50.905792, -625.189697
1733469335.231226, 1.183334, 6.970120, -3.654150, 3.986383, 2.694702, -1.215634, -81.718903, -51.787659, -625.970093
1733469335.241225, 1.236605, 6.468385, -3.261501, 3.952979, 2.894879, -0.904724, -81.478699, -52.718597, -627.336060
1733469335.251226, 1.157597, 5.921310, -2.999186, 3.877707, 3.191844, -0.622676, -80.989105, -53.468323, -628.300964
1733469335.261233, 0.797718, 5.341614, -2.696320, 3.766371, 3.558259, -0.409101, -80.196747, -54.257950, -629.733948
1733469335.271239, 0.565929, 4.808305, -2.235735, 3.680999, 3.798324, -0.206395, -79.754715, -54.683731, -631.016479
1733469335.281240, 0.870442, 4.554220, -1.037737, 3.656888, 3.787375, 0.032241, -79.302917, -55.038742, -631.840332
1733469335.291237, 1.067964, 4.504990, -0.186149, 3.655634, 3.655976, 0.269820, -78.848145, -55.540543, -633.093750
1733469335.301222, 1.076493, 4.567688, 0.334889, 3.703526, 3.457542, 0.525606, -78.071503, -55.947205, -633.695557
1733469335.311234, 1.196652, 4.626944, 1.013047, 3.800793, 3.167955, 0.825073, -77.788055, -56.245483, -634.261536
1733469335.321239, 1.410484, 4.777480, 1.756596, 3.924081, 2.872174, 1.188025, -77.788055, -56.245483, -634.261536
1733469335.331251, 1.473631, 4.873846, 2.634071, 4.007421, 2.617389, 1.565511, -77.301819, -56.267593, -634.865051
1733469335.341241, 1.281347, 4.658219, 3.828328, 3.929587, 2.419025, 1.902030, -77.227264, -56.008804, -634.952209
1733469335.351305, 1.092654, 4.193743, 5.012411, 3.670025, 2.286988, 2.205547, -76.830490, -55.873260, -635.716797
1733469335.361226, 1.135151, 3.854365, 5.997026, 3.305991, 2.226015, 2.535536, -76.802917, -55.470215, -636.159790
1733469335.371225, 1.338209, 3.287688, 6.577620, 2.910636, 2.234053, 2.889290, -76.691071, -54.800217, -636.377930
1733469335.381252, 1.252616, 2.743905, 7.040300, 2.514796, 2.300636, 3.266946, -76.518799, -53.838699, -636.133240
1733469335.391282, 0.934786, 2.521094, 7.376984, 2.118282, 2.436783, 3.651043, -76.535843, -52.470078, -638.070679
1733469335.401224, 0.564433, 2.262072, 8.169764, 1.653280, 2.547760, 4.017056, -76.205170, -51.288040, -638.849487
1733469335.411244, 0.030227, 2.084901, 9.226954, 1.109967, 2.552345, 4.330182, -75.912796, -49.539978, -639.924866
1733469335.421229, -0.694468, 2.042553, 9.981127, 0.593771, 2.443844, 4.606960, -75.802414, -47.650482, -640.719177
1733469335.431234, -1.476325, 1.916259, 10.202142, 0.149578, 2.302762, 4.845189, -75.291458, -45.545578, -641.969238
1733469335.441295, -2.387169, 1.886781, 10.294768, -0.259543, 2.145810, 5.046758, -74.588974, -43.311584, -642.866577
1733469335.451221, -3.368043, 2.211195, 10.559477, -0.672230, 1.983077, 5.221577, -74.044601, -40.952011, -643.469727
1733469335.460778, -4.457405, 2.328960, 10.923844, -1.119020, 1.763107, 5.336919, -73.375763, -38.415985, -644.653809
1733469335.471229, -5.656900, 2.314445, 11.103858, -1.554634, 1.480970, 5.385634, -72.850723, -35.806564, -644.499939
1733469335.481220, -6.891709, 2.296638, 11.010933, -1.937369, 1.148549, 5.365187, -71.757828, -32.928116, -644.570190
1733469335.491230, -8.002918, 2.355745, 10.544064, -2.225950, 0.825314, 5.319868, -70.914185, -30.116394, -645.125854
1733469335.501227, -9.193285, 2.577059, 10.315567, -2.459812, 0.523868, 5.291245, -69.696091, -27.224792, -645.026123
1733469335.511234, -10.534038, 2.729839, 10.200047, -2.718431, 0.380222, 5.290599, -68.525314, -24.268707, -644.732544
1733469335.521235, -11.985224, 2.775927, 10.206781, -3.107385, 0.402268, 5.305571, -67.331589, -21.357880, -644.546387
1733469335.531237, -13.784915, 2.767847, 10.712406, -3.673524, 0.527287, 5.278131, -65.544998, -18.357346, -643.642517
1733469335.541228, -16.131832, 3.045724, 11.350312, -4.410861, 0.658204, 5.100989, -63.928497, -15.140701, -642.897339
1733469335.551222, -18.698865, 3.590554, 11.561151, -5.214587, 0.704557, 4.740485, -62.577652, -12.127090, -641.674500
1733469335.561219, -21.090522, 4.047548, 11.234492, -5.946671, 0.494709, 4.228818, -60.943344, -9.106613, -639.742920
1733469335.571230, -23.292140, 5.402217, 10.353426, -6.508151, 0.100336, 3.691391, -59.395569, -6.338440, -637.777832
1733469335.581223, -25.104701, 7.351695, 8.544756, -6.962633, -0.203790, 3.183598, -57.945862, -3.887802, -634.285034
1733469335.591226, -26.728418, 8.869619, 6.068852, -7.391516, -0.242462, 2.671785, -56.991257, -1.590988, -632.309753
1733469335.601226, -28.122442, 10.122535, 3.547010, -7.815717, -0.040416, 2.116967, -56.103256, 0.110352, -629.333740
1733469335.611230, -28.717551, 11.476007, 1.194557, -8.189915, 0.353689, 1.566941, -55.466278, 1.749329, -626.062378
1733469335.621234, -28.768278, 13.471873, -1.018583, -8.458164, 0.681464, 0.997292, -54.758942, 2.761322, -622.895264
1733469335.631230, -28.857762, 15.497518, -3.090615, -8.497842, 0.813070, 0.388321, -54.811661, 3.350769, -619.264160
1733469335.641227, -28.693759, 16.918626, -5.428403, -8.266771, 0.868949, -0.218968, -54.924896, 3.475876, -616.149414
1733469335.651230, -28.066927, 18.012327, -7.473800, -7.862467, 0.850510, -0.761444, -55.432709, 2.928955, -612.877563
1733469335.661223, -27.447577, 19.448250, -8.822184, -7.407112, 0.749822, -1.224737, -55.854370, 2.624283, -609.815796
1733469335.671226, -26.941053, 20.256891, -10.276961, -6.931947, 0.682679, -1.653911, -56.649765, 1.840744, -606.904541
1733469335.681216, -26.256761, 20.398748, -11.813290, -6.443543, 0.659915, -2.011510, -57.566742, 0.650757, -604.213379
1733469335.691225, -25.123854, 20.545542, -13.429526, -5.902981, 0.728368, -2.241152, -58.787048, -0.506088, -602.923828
1733469335.701220, -23.951743, 20.075531, -15.417911, -5.235902, 0.975912, -2.392653, -59.749100, -1.854309, -601.365417
1733469335.711223, -22.986730, 19.416975, -17.103129, -4.488100, 1.343629, -2.488644, -61.006363, -3.144653, -600.563416
1733469335.721215, -21.697453, 18.543241, -17.996915, -3.771461, 1.758460, -2.559618, -62.408417, -4.469025, -599.792114
1733469335.731217, -20.504093, 17.564312, -18.260426, -3.105939, 2.158797, -2.646078, -63.899002, -5.507065, -599.648071
1733469335.741223, -19.446005, 16.817621, -17.985093, -2.482781, 2.473893, -2.747693, -65.299713, -7.004105, -600.421448
1733469335.751211, -18.506281, 16.407614, -17.194558, -1.901238, 2.626567, -2.883910, -66.850266, -8.124634, -600.766663
1733469335.761221, -17.701680, 16.025888, -16.307356, -1.369144, 2.645926, -3.063123, -68.502396, -9.614517, -601.241272
1733469335.771230, -17.067216, 16.046538, -15.468787, -0.922358, 2.584476, -3.275932, -70.001984, -10.848755, -601.849365
1733469335.781227, -16.338930, 16.145449, -14.970195, -0.544911, 2.534733, -3.467107, -71.293030, -12.309692, -602.643677
1733469335.791219, -15.494824, 16.127642, -15.074791, -0.145913, 2.549581, -3.624101, -72.924561, -13.888443, -604.322510
1733469335.801232, -14.504373, 16.036812, -15.346384, 0.330543, 2.598245, -3.753664, -74.581573, -15.379745, -605.615234
1733469335.811231, -13.397055, 15.766267, -15.419257, 0.877903, 2.650093, -3.858352, -75.771103, -17.026062, -607.414673
1733469335.821215, -12.220005, 15.401899, -15.054441, 1.431645, 2.676229, -3.939550, -77.465088, -18.764099, -608.760742
1733469335.831217, -11.146804, 15.141081, -14.123396, 1.948591, 2.632490, -4.031105, -78.667465, -20.686523, -610.646912
1733469335.841206, -10.197653, 15.038430, -12.860155, 2.421025, 2.526613, -4.133143, -79.536697, -22.574921, -611.919678
1733469335.851263, -9.157522, 15.220090, -11.411364, 2.803310, 2.378020, -4.181489, -80.328201, -24.704239, -614.098389
1733469335.861209, -8.054244, 15.292065, -10.053103, 3.084461, 2.216112, -4.163880, -81.110641, -26.604950, -615.686096
1733469335.871209, -6.895151, 15.119832, -8.903288, 3.284220, 2.101942, -4.057435, -81.585999, -28.500519, -616.595886
1733469335.881272, -5.956624, 14.712519, -8.084920, 3.414419, 2.059112, -3.914910, -82.167694, -30.668930, -617.316711
1733469335.891210, -5.209783, 13.934703, -7.469311, 3.498052, 2.060517, -3.748890, -82.384933, -32.779266, -619.805969
1733469335.901210, -4.402937, 12.988993, -7.092224, 3.579663, 2.103759, -3.591809, -82.966980, -34.830139, -620.622925
1733469335.911205, -3.703680, 12.065280, -6.910115, 3.695192, 2.219899, -3.442971, -83.246536, -36.842484, -622.209412
1733469335.921250, -2.870797, 11.308712, -6.838139, 3.795131, 2.442413, -3.255041, -82.868057, -38.814911, -623.456909
1733469335.931220, -1.774702, 10.644321, -6.424391, 3.862686, 2.655098, -3.013913, -82.930161, -40.572006, -625.006958
1733469335.941207, -0.117166, 9.327061, -4.896741, 3.987074, 2.904697, -2.456278, -82.858002, -42.344894, -626.135803
1733469335.951211, 0.575357, 8.621221, -4.064906, 4.079696, 2.885475, -2.161924, -82.429596, -44.027252, -627.587646
1733469335.961208, 1.306935, 7.905355, -3.256713, 4.188137, 2.777965, -1.864700, -82.437988, -45.789200, -628.740112
1733469335.971205, 2.071583, 7.467365, -2.264167, 4.295043, 2.551787, -1.548137, -81.938995, -47.271393, -629.899536
1733469335.981206, 2.908506, 7.117213, -1.331326, 4.362811, 2.328643, -1.193225, -81.265427, -48.890274, -630.209717
1733469335.991203, 3.357120, 6.679972, -0.579846, 4.328325, 2.152506, -0.842171, -81.125427, -49.837173, -630.988220
1733469336.001203, 3.532944, 6.290615, -0.027384, 4.190979, 2.104259, -0.487154, -80.826752, -50.776520, -631.779480
1733469336.011212, 3.651008, 6.063166, 0.366014, 3.963949, 2.141640, -0.138119, -80.343521, -51.608154, -632.214905
1733469336.021202, 3.830723, 5.610363, 0.860715, 3.685187, 2.148536, 0.199431, -80.019043, -52.166824, -632.625793
1733469336.031211, 4.105158, 4.930260, 0.992696, 3.461063, 2.137673, 0.535396, -79.766296, -52.842682, -633.130005
1733469336.041215, 4.167707, 4.230854, 0.896180, 3.327631, 2.118530, 0.860587, -79.334610, -53.076996, -633.767578
1733469336.051202, 3.989937, 3.473089, 1.105972, 3.243181, 2.072748, 1.168135, -79.242340, -53.234467, -634.230896
1733469336.061204, 3.553295, 2.788197, 1.367089, 3.166749, 2.091003, 1.446714, -78.852356, -53.258911, -635.041565
1733469336.071201, 3.072808, 2.264466, 1.888875, 3.066483, 2.075942, 1.702301, -78.559845, -53.061218, -635.377319
1733469336.081203, 2.672228, 2.006042, 2.655020, 2.970056, 1.998437, 1.944816, -78.312881, -52.895981, -635.210205
1733469336.091203, 2.336591, 1.896058, 3.361309, 2.887454, 1.863033, 2.177506, -78.067505, -52.537933, -636.313538
1733469336.101207, 2.025195, 1.675642, 4.176086, 2.754709, 1.679403, 2.390781, -77.998978, -51.960861, -636.477905
1733469336.111203, 1.782782, 1.484854, 4.818630, 2.582929, 1.489838, 2.615775, -77.989822, -51.235687, -636.944946
1733469336.121198, 1.661127, 1.694197, 5.062839, 2.452430, 1.350056, 2.905285, -77.516296, -50.498825, -637.257080
1733469336.131207, 1.566556, 1.510741, 5.220856, 2.348298, 1.264274, 3.256549, -77.674545, -49.663620, -637.207031
1733469336.141198, 1.175703, 1.350330, 5.572205, 2.229722, 1.279274, 3.638488, -77.486115, -48.375656, -637.543213
1733469336.151213, 0.656161, 1.601122, 6.260089, 2.046679, 1.341020, 4.042717, -77.468826, -47.250244, -638.301025
1733469336.161201, 0.023643, 1.769914, 7.220164, 1.749490, 1.430086, 4.413072, -77.239761, -45.447052, -638.953186
1733469336.171217, -0.942867, 1.928829, 8.030901, 1.362238, 1.531278, 4.719801, -76.881134, -43.872635, -639.630737
1733469336.181197, -2.037615, 2.132336, 8.747216, 0.932202, 1.636013, 4.986852, -76.540207, -41.862305, -639.616089
1733469336.191199, -3.309385, 2.179322, 9.349208, 0.432535, 1.757260, 5.178701, -75.843460, -39.666504, -640.784912
1733469336.201195, -4.750994, 1.997812, 9.713575, -0.137096, 1.934219, 5.292659, -75.033585, -37.218765, -641.524292
1733469336.211204, -6.134543, 1.683124, 9.843311, -0.750560, 2.070722, 5.334928, -74.183609, -34.867142, -642.629395
1733469336.221194, -7.121403, 1.571195, 9.911097, -1.286502, 2.059828, 5.375365, -73.162491, -32.241348, -642.970093
1733469336.231203, -8.007707, 1.732055, 9.878326, -1.673575, 1.859641, 5.384907, -71.950302, -29.523560, -643.699463
1733469336.241199, -9.142109, 1.831265, 9.938331, -1.975785, 1.529285, 5.335119, -70.713058, -26.799988, -644.135620
1733469336.251197, -10.569951, 2.080262, 9.944167, -2.265767, 1.243381, 5.228252, -69.295517, -23.952087, -644.732117
1733469336.261198, -12.143989, 2.431611, 9.892692, -2.589697, 1.071146, 5.104926, -67.757462, -21.361710, -644.532837
1733469336.271205, -13.496713, 2.697816, 9.856330, -2.968763, 0.992892, 5.029432, -65.802750, -18.675491, -644.241272
1733469336.281195, -15.038280, 2.603545, 9.756821, -3.420297, 0.991471, 4.933140, -64.392471, -16.075027, -643.059692
1733469336.291202, -17.213711, 2.141314, 9.592219, -3.975195, 1.071230, 4.698820, -62.857986, -12.979782, -642.838867
1733469336.301195, -19.651158, 1.721431, 9.596559, -4.667295, 1.183903, 4.258358, -61.084335, -10.354034, -641.895752
1733469336.311195, -21.582681, 2.102259, 9.399486, -5.434640, 1.164501, 3.680310, -59.380096, -7.887070, -640.651367
1733469336.321208, -22.844574, 3.413683, 9.022699, -6.108072, 0.785501, 3.055142, -57.947739, -5.494049, -638.515015
1733469336.331006, -24.192660, 5.358223, 7.611466, -6.536705, 0.147767, 2.407420, -56.915024, -3.212051, -635.949036
1733469336.341201, -25.365669, 7.840262, 5.165789, -6.746980, -0.478073, 1.847052, -55.998718, -1.127731, -633.214722
1733469336.351200, -26.431388, 10.798298, 2.368614, -6.873783, -0.795120, 1.417987, -55.073776, 0.575485, -629.945557
1733469336.361200, -27.484537, 12.674155, -0.924162, -7.030284, -0.560172, 1.050696, -54.299973, 1.820129, -627.365051
1733469336.371111, -27.966670, 13.559561, -4.042161, -7.229938, 0.090463, 0.695424, -54.130310, 2.858688, -624.377747
1733469336.381193, -27.964575, 14.060997, -6.368277, -7.409378, 0.785303, 0.265993, -54.155090, 3.387558, -620.722412
1733469336.391238, -28.097752, 15.112500, -7.893533, -7.455027, 1.214198, -0.272298, -54.466522, 3.769379, -618.393188
1733469336.401198, -27.923574, 16.490662, -9.128193, -7.295018, 1.206209, -0.885622, -55.110809, 3.683197, -615.452881
1733469336.410947, -27.245117, 17.483209, -10.397120, -6.891305, 0.856590, -1.488886, -55.811523, 3.254395, -613.156189
1733469336.421214, -26.355522, 18.071584, -12.255469, -6.271303, 0.419754, -2.015588, -56.861420, 2.620392, -610.665161
1733469336.431245, -25.898079, 18.477700, -14.260314, -5.589786, 0.142541, -2.508284, -57.772339, 1.529297, -608.453796
1733469336.441189, -25.389312, 18.260726, -16.238822, -4.898134, 0.157341, -2.933412, -59.085754, 0.526398, -606.237793
1733469336.451182, -24.086118, 17.756597, -17.733552, -4.217411, 0.422454, -3.221157, -60.381897, -0.770477, -605.088318
1733469336.461186, -22.427235, 17.764527, -18.207455, -3.612459, 0.757079, -3.387592, -61.730835, -2.101746, -604.072266
1733469336.471188, -20.871303, 18.057667, -18.009783, -3.073302, 1.042746, -3.469727, -63.418732, -3.537643, -603.500916
1733469336.481184, -19.412037, 17.990779, -17.946786, -2.546340, 1.294984, -3.511815, -65.150269, -4.978104, -602.417664
1733469336.491191, -18.270751, 17.869423, -18.017714, -2.014579, 1.510727, -3.533049, -66.714554, -6.409592, -602.898010
1733469336.501184, -17.235409, 17.318907, -18.151191, -1.456394, 1.731573, -3.557337, -68.194702, -7.737701, -603.405518
1733469336.511195, -16.266056, 16.271743, -18.369812, -0.878614, 2.013112, -3.596523, -69.823975, -9.358948, -604.312622
1733469336.521207, -15.235203, 15.515923, -18.056021, -0.329100, 2.299627, -3.620356, -71.483658, -10.746704, -604.788818
1733469336.531190, -14.129531, 15.111303, -17.190218, 0.159727, 2.528747, -3.626986, -72.705231, -12.231796, -606.261719
1733469336.541211, -13.273753, 15.007006, -16.077513, 0.595609, 2.701860, -3.658438, -74.406052, -13.801926, -607.397339
1733469336.551194, -12.458677, 14.884901, -14.725238, 0.967816, 2.725593, -3.735318, -75.755798, -15.474319, -609.118530
1733469336.561210, -11.562049, 14.611214, -13.216143, 1.288838, 2.569520, -3.841924, -76.913849, -17.100616, -610.698547
1733469336.571193, -10.606014, 14.242806, -12.135011, 1.592794, 2.282282, -3.955432, -78.041122, -19.026062, -612.195435
1733469336.581201, -9.610325, 13.855844, -11.440842, 1.912211, 1.952822, -4.068876, -79.148422, -20.929825, -613.230896
1733469336.591186, -8.768315, 13.422643, -11.179425, 2.232102, 1.707602, -4.177664, -80.058853, -22.758987, -614.451477
1733469336.601182, -7.911190, 13.032537, -11.048343, 2.525082, 1.602401, -4.227385, -80.886337, -24.894363, -615.821472
1733469336.611189, -6.806566, 12.692112, -10.809970, 2.783826, 1.632990, -4.166560, -81.363068, -27.096283, -617.355957
1733469336.621184, -5.767333, 12.265495, -10.449792, 3.007554, 1.801975, -4.026353, -81.935715, -29.112061, -617.898560
1733469336.631191, -4.877887, 11.701810, -10.018537, 3.176449, 2.094468, -3.840047, -82.590652, -31.225357, -619.880920
1733469336.641181, -4.029591, 11.036821, -9.466823, 3.305822, 2.450384, -3.623118, -82.756699, -33.277008, -621.226807
1733469336.651180, -3.121440, 10.432883, -8.751256, 3.400550, 2.816253, -3.369230, -82.787766, -35.256226, -622.622253
1733469336.661186, -2.166453, 9.703250, -7.916577, 3.457593, 3.124046, -3.096895, -82.801880, -37.242767, -624.707275
1733469336.671179, -1.306486, 9.024494, -6.907272, 3.518620, 3.272597, -2.796786, -82.808060, -38.994156, -626.435547
1733469336.681188, -0.562787, 8.574235, -5.608567, 3.618360, 3.237595, -2.487370, -82.608002, -40.623840, -628.313049
1733469336.691179, 0.269348, 8.066215, -4.584747, 3.719029, 3.079103, -2.159245, -82.286438, -42.255005, -629.664185
1733469336.701178, 1.009156, 7.341969, -3.732411, 3.792083, 2.876603, -1.813205, -81.806320, -43.789581, -630.927307
1733469336.711180, 1.342848, 6.673538, -3.291129, 3.819643, 2.769707, -1.485767, -81.370956, -45.030243, -632.176758
1733469336.721178, 1.490241, 5.992238, -3.075202, 3.813007, 2.780443, -1.186044, -80.822464, -46.315231, -633.225830
1733469336.731198, 1.605911, 5.364358, -2.684798, 3.787665, 2.823055, -0.909093, -80.778931, -47.365250, -634.460693
1733469336.741189, 1.822736, 4.799925, -2.150292, 3.749815, 2.869513, -0.650924, -79.982605, -48.316467, -635.125671
1733469336.751179, 2.027889, 4.024503, -1.861193, 3.654625, 3.033831, -0.410027, -79.269211, -49.359238, -636.050720
1733469336.760972, 2.097321, 3.414730, -1.736245, 3.533884, 3.288971, -0.173053, -79.269211, -49.359238, -636.050720
1733469336.771180, 2.138022, 3.053804, -1.204134, 3.449650, 3.482885, 0.077340, -77.771545, -50.872345, -638.304077
1733469336.781195, 2.329259, 2.948759, -0.215029, 3.392336, 3.548653, 0.337343, -77.166519, -51.423065, -639.587769
1733469336.791195, 2.578106, 2.889502, 1.182736, 3.318419, 3.381401, 0.629394, -76.412033, -51.971924, -640.657776
1733469336.801188, 2.818574, 2.755876, 2.625242, 3.193297, 3.044787, 0.931272, -76.412033, -51.971924, -640.657776
1733469336.811176, 3.034800, 2.619257, 3.556138, 3.012481, 2.662068, 1.231115, -75.719727, -52.443817, -641.289856
1733469336.821175, 3.090615, 2.356942, 4.134786, 2.776837, 2.322394, 1.529062, -75.474579, -52.595200, -641.858948
1733469336.831184, 3.015347, 1.848773, 4.180426, 2.504248, 2.098871, 1.801101, -74.869965, -52.613251, -642.372864
1733469336.841188, 2.825757, 1.351527, 3.891326, 2.237047, 1.996924, 2.045671, -74.401520, -52.376968, -643.104004
1733469336.851185, 2.621950, 1.143231, 3.659837, 2.005074, 1.946007, 2.288953, -74.041733, -52.048080, -643.761230
1733469336.861174, 2.559850, 1.081431, 3.660136, 1.808739, 1.899739, 2.567065, -73.803131, -51.578125, -644.015198
1733469336.871181, 2.440889, 1.211765, 3.639187, 1.642480, 1.913636, 2.888762, -73.129501, -50.947220, -644.611267
1733469336.881183, 2.142511, 1.410933, 3.758897, 1.474346, 1.963182, 3.245470, -72.870255, -50.287537, -644.893066
1733469336.891229, 1.744326, 1.604564, 4.150797, 1.292284, 2.008002, 3.624618, -72.487381, -49.004715, -645.762024
1733469336.901171, 1.158943, 1.872715, 4.650138, 1.101358, 2.005723, 4.012698, -71.907791, -47.941971, -646.098328
1733469336.911042, 0.401627, 1.925088, 5.174917, 0.897298, 1.967340, 4.354145, -71.575943, -46.565903, -646.817749
1733469336.921171, -0.457293, 1.842189, 5.789778, 0.666280, 1.845033, 4.637131, -71.273849, -45.016556, -647.355957
1733469336.931180, -1.437718, 1.564461, 6.431574, 0.396256, 1.661941, 4.838883, -70.643661, -43.345352, -648.498413
1733469336.941171, -2.547730, 1.516128, 7.056909, 0.087099, 1.432239, 4.976895, -70.344833, -41.441467, -648.852539
1733469336.951170, -3.719542, 1.678485, 7.634810, -0.256791, 1.191850, 5.067276, -69.556152, -39.435608, -649.116821
1733469336.961222, -4.792743, 1.936011, 7.952042, -0.656944, 1.014575, 5.148439, -68.822632, -37.451904, -649.571228
1733469336.971168, -6.104765, 2.252644, 8.123676, -1.129386, 0.930308, 5.186350, -68.321564, -35.014633, -650.081421
1733469336.981164, -7.416638, 2.519598, 8.195053, -1.659575, 0.893911, 5.224690, -67.161209, -32.524414, -649.630310
1733469336.991168, -8.457517, 2.649334, 8.008605, -2.188524, 0.864039, 5.281362, -66.068878, -29.902374, -650.246277
1733469337.001205, -9.868899, 2.518551, 7.288997, -2.647782, 0.871338, 5.278985, -65.310120, -27.089447, -649.953552
1733469337.011174, -11.498752, 2.523040, 6.708703, -3.024409, 0.818290, 5.207735, -63.480667, -24.547119, -650.296143
1733469337.021171, -13.577069, 2.601899, 6.723816, -3.356523, 0.620184, 5.042652, -62.720596, -21.764297, -650.185852
1733469337.031176, -16.177770, 2.896535, 7.124246, -3.737892, 0.261170, 4.716872, -61.021210, -18.814911, -649.262207
1733469337.041184, -18.601899, 3.190274, 7.467216, -4.179354, -0.211703, 4.307797, -59.694016, -15.938828, -648.006104
1733469337.051178, -20.769999, 3.866785, 7.182156, -4.652012, -0.671385, 3.838989, -58.622955, -13.407501, -646.513062
1733469337.061233, -22.618023, 4.427178, 5.824494, -5.092832, -0.939322, 3.339152, -57.418091, -10.892166, -644.885864
1733469337.071170, -23.444172, 5.050419, 3.840599, -5.444274, -0.985481, 2.908719, -56.603836, -8.164658, -642.497009
1733469337.081174, -23.962218, 6.499958, 2.234389, -5.730575, -0.873122, 2.539050, -55.846909, -5.884201, -639.894531
1733469337.091187, -24.665814, 7.894581, 0.927604, -6.034287, -0.579881, 2.167164, -55.384598, -3.699493, -638.077271
1733469337.101194, -24.667160, 8.684218, -0.477344, -6.335153, -0.131965, 1.833591, -54.492126, -1.862961, -635.715027
1733469337.111300, -24.297705, 9.629180, -1.580472, -6.627817, 0.391395, 1.523263, -53.801727, -0.005310, -633.112610
1733469337.121235, -24.184729, 10.695647, -2.268057, -6.965473, 0.891063, 1.193994, -53.143890, 1.409409, -630.704712
1733469337.131281, -24.140137, 11.994950, -2.386570, -7.368297, 1.096853, 0.801041, -52.658844, 2.763474, -627.680664
1733469337.140626, -24.252215, 13.265972, -2.889652, -7.629934, 1.001527, 0.343183, -52.659027, 3.544952, -625.094238
1733469337.151257, -24.595783, 14.311939, -4.784962, -7.609636, 0.911604, -0.185056, -52.637070, 4.289551, -621.694519
1733469337.161185, -25.076270, 15.258846, -6.623709, -7.435846, 0.665248, -0.790763, -52.900269, 4.599075, -619.071655
