SamplingTime, AccelerationX, AccelerationY, AccelerationZ, GyroX, GyroY, GyroZ, MagneticFieldX, MagneticFieldY, MagneticFieldZ
1733469367.082528, -4.734085, -1.761085, -7.092972, -0.407446, 0.406572, 0.209770, -65.152786, -20.935822, -648.930908
1733469367.092517, -4.790648, -1.784279, -7.029675, -0.368592, 0.270356, 0.186695, -64.873413, -20.858841, -649.194214
1733469367.102513, -4.851700, -1.816750, -7.090279, -0.307632, 0.093706, 0.136114, -65.115860, -20.666763, -648.699951
1733469367.112546, -4.873397, -1.646911, -7.390601, -0.208402, -0.048072, 0.084405, -64.980545, -20.554794, -649.003906
1733469367.122003, -4.770896, -1.335815, -7.478139, -0.071250, -0.104233, 0.057023, -65.074341, -20.518097, -648.957031
1733469367.132546, -4.503493, -1.013795, -7.174076, 0.039693, -0.101016, 0.075843, -65.026581, -20.490128, -648.984985
1733469367.142551, -4.301483, -0.662745, -6.668001, 0.079163, -0.068637, 0.147248, -64.814774, -20.534256, -648.402710
1733469367.152538, -4.212897, -0.342221, -6.303634, 0.043034, 0.010523, 0.293493, -64.752914, -20.322433, -648.887939
1733469367.162537, -4.222175, -0.304064, -5.893178, -0.072367, 0.215465, 0.468355, -64.619781, -20.154114, -647.936523
1733469367.171761, -4.530727, -0.428712, -5.362413, -0.237373, 0.421395, 0.634437, -64.122284, -19.793533, -648.861755
1733469367.182531, -4.981137, -0.595258, -5.136011, -0.421707, 0.608992, 0.777178, -63.824707, -19.306595, -648.635864
1733469367.192522, -5.371391, -0.956334, -4.687548, -0.610901, 0.733474, 0.862819, -63.618835, -18.776825, -648.035583
1733469367.202540, -5.787833, -1.338658, -4.266018, -0.802297, 0.634160, 0.876479, -63.373627, -18.222733, -648.764771
1733469367.212527, -6.368128, -1.587505, -4.570082, -0.963765, 0.405877, 0.817733, -62.846146, -17.797653, -648.288330
1733469367.222532, -6.995408, -1.637634, -4.984877, -1.089692, 0.194451, 0.702609, -62.338776, -17.114044, -648.558594
1733469367.232528, -7.614609, -1.562815, -5.403264, -1.153654, -0.037474, 0.635421, -62.042679, -16.480576, -648.037598
1733469367.242519, -8.471733, -1.755249, -6.214450, -1.186946, -0.207050, 0.599289, -61.629578, -15.974411, -647.272095
1733469367.252520, -9.164405, -1.672948, -6.698827, -1.179745, -0.161671, 0.531580, -61.372910, -15.457840, -647.474487
1733469367.262546, -9.464279, -1.384597, -6.066458, -1.174447, -0.049792, 0.502625, -61.201630, -15.131195, -646.693909
1733469367.272526, -10.244041, -1.411831, -4.695329, -1.260172, -0.031631, 0.459743, -61.541977, -14.500702, -646.457825
1733469367.282522, -10.876260, -1.763180, -3.477279, -1.428781, -0.215722, 0.329994, -61.717041, -14.013229, -646.388855
1733469367.291768, -10.731111, -1.775899, -2.629133, -1.622453, -0.632118, 0.147360, -61.882828, -13.426865, -645.513672
1733469367.302220, -10.482713, -1.309030, -2.292448, -1.822326, -1.149896, 0.007831, -62.441101, -12.856140, -644.380615
1733469367.312529, -10.922498, -0.999130, -2.289455, -2.062140, -1.770391, -0.111164, -63.076996, -12.210114, -643.220093
1733469367.322520, -11.342979, -0.877924, -3.617788, -2.301816, -2.271687, -0.234839, -63.341721, -11.796692, -642.339355
1733469367.332520, -12.079795, -1.206229, -5.287145, -2.475254, -2.435268, -0.333271, -64.193176, -11.276321, -640.717407
1733469367.342514, -13.257443, -1.691503, -6.535123, -2.621028, -2.349134, -0.469839, -64.702606, -10.739899, -638.357666
1733469367.352520, -14.143746, -1.621174, -8.106168, -2.747420, -2.011693, -0.693427, -65.448044, -10.457260, -637.684509
1733469367.362518, -14.430003, -1.467945, -9.113828, -2.849008, -1.400506, -0.959666, -65.662811, -10.093567, -635.954224
1733469367.372524, -13.927370, -1.294365, -9.369708, -2.961212, -0.803364, -1.197891, -66.109360, -10.056717, -635.370728
1733469367.382538, -13.468731, -1.096694, -9.795128, -3.054195, -0.389197, -1.344046, -66.584290, -9.805588, -634.758179
1733469367.392524, -13.529783, -0.761805, -10.195259, -3.120694, -0.205264, -1.460395, -67.069504, -9.816696, -632.852966
1733469367.401989, -13.703363, -0.357634, -11.199028, -3.167179, -0.229784, -1.633621, -67.968109, -9.563171, -632.561646
1733469367.412592, -13.941885, 0.229843, -12.757354, -3.188104, -0.386439, -1.881640, -68.403961, -10.154388, -630.930420
1733469367.422527, -14.473248, 1.912369, -14.635755, -3.111673, -0.685903, -2.174650, -69.129166, -10.516006, -629.995117
1733469367.432518, -15.014188, 3.784634, -17.284789, -2.877703, -1.066723, -2.492810, -70.158188, -10.852127, -628.813110
1733469367.442522, -15.092898, 4.935647, -20.371514, -2.439962, -1.344821, -2.800154, -70.833755, -11.810806, -626.864441
1733469367.452522, -14.895077, 5.769876, -23.209541, -1.845480, -1.498389, -3.065562, -72.124603, -12.759644, -626.060669
1733469367.462522, -14.432248, 6.707955, -25.297883, -1.131275, -1.424274, -3.253652, -72.847809, -14.330246, -624.875122
1733469367.472542, -13.729549, 7.676858, -26.319459, -0.479882, -1.067596, -3.381674, -73.694580, -15.700531, -624.954651
1733469367.482531, -13.010690, 8.573636, -26.386796, -0.032071, -0.397875, -3.465336, -74.681381, -17.050873, -625.347656
1733469367.492539, -11.729493, 9.444677, -26.000132, 0.307918, 0.381383, -3.511455, -75.800186, -18.741730, -625.299316
1733469367.502560, -10.161890, 10.263494, -24.941297, 0.667700, 1.058654, -3.498454, -76.382431, -20.650055, -627.117188
1733469367.512933, -8.445097, 10.980707, -23.470359, 1.089074, 1.449980, -3.450555, -77.346649, -22.691818, -627.660095
1733469367.522696, -6.739229, 11.357344, -22.021268, 1.577314, 1.610151, -3.354630, -77.601288, -24.243317, -628.521545
1733469367.532655, -5.326650, 11.350012, -20.331710, 2.087058, 1.577647, -3.246088, -78.153748, -26.300781, -629.929688
1733469367.542526, -4.239533, 11.194838, -18.679112, 2.895406, 1.489582, -3.011737, -78.430435, -28.152328, -630.058716
1733469367.552560, -3.160197, 11.025748, -16.678009, 3.174030, 1.452183, -2.854441, -79.118103, -30.105850, -631.916626
1733469367.562519, -2.134281, 10.661979, -14.643835, 3.379543, 1.452631, -2.682563, -78.652756, -32.009033, -632.529602
1733469367.572519, -1.248576, 10.095002, -12.798504, 3.498522, 1.483197, -2.493403, -78.756439, -34.216599, -633.963074
1733469367.582510, -0.479738, 9.537901, -10.772411, 3.538406, 1.501463, -2.281115, -78.933929, -35.907898, -635.579285
1733469367.592521, 0.122553, 9.061604, -8.773253, 3.502225, 1.531405, -2.060833, -78.970139, -37.729965, -635.917847
1733469367.602274, 0.484078, 8.610148, -6.980295, 3.408325, 1.558552, -1.845478, -78.651413, -39.312500, -637.458374
1733469367.612516, 0.837971, 8.166772, -5.707328, 3.287271, 1.653857, -1.640249, -78.107361, -41.034348, -637.401306
1733469367.622508, 1.285237, 7.767089, -4.885368, 3.179118, 1.719739, -1.415467, -78.177200, -42.505341, -638.266846
1733469367.632506, 1.655890, 7.429208, -4.204368, 3.109848, 1.858029, -1.153741, -77.677902, -43.611877, -639.432373
1733469367.642509, 2.108693, 7.056760, -4.046350, 3.073163, 2.078589, -0.826661, -76.766541, -44.978226, -639.520752
1733469367.652509, 2.722207, 6.755390, -3.762937, 3.110499, 2.285157, -0.421229, -76.394104, -45.750580, -641.065369
1733469367.662513, 3.228282, 6.582857, -3.298013, 3.194012, 2.495178, 0.047281, -75.988693, -46.681702, -641.807190
1733469367.671903, 3.561974, 6.410625, -2.622549, 3.254557, 2.635877, 0.553803, -75.332520, -47.381134, -641.824707
1733469367.682508, 3.487304, 6.243330, -1.491887, 3.246300, 2.736238, 1.049475, -74.413284, -47.674683, -643.269348
1733469367.692525, 3.000533, 5.803994, -0.647033, 3.141185, 2.893278, 1.507666, -73.845734, -48.232529, -644.162598
1733469367.702521, 2.289755, 5.078251, -0.175974, 2.975796, 3.088094, 1.917770, -72.903976, -48.311493, -644.771423
1733469367.712504, 1.299902, 4.392761, 0.166098, 2.806806, 3.318542, 2.260302, -72.191406, -48.171570, -646.495850
1733469367.722512, 0.272490, 3.805135, 0.621744, 2.726114, 3.378788, 2.549183, -71.469955, -47.991470, -647.066101
1733469367.732504, -0.520739, 3.329137, 2.003648, 2.664937, 3.193495, 2.738954, -70.956024, -48.088455, -647.826721
1733469367.742504, -1.234810, 2.702904, 3.548955, 2.525316, 2.805336, 2.797482, -70.275070, -47.649414, -648.976196
1733469367.752504, -1.740734, 1.844732, 4.570980, 2.328218, 2.421575, 2.777207, -69.345444, -47.386887, -649.641724
1733469367.762517, -1.890970, 1.060781, 4.810400, 2.119079, 2.108724, 2.829422, -68.819519, -47.130737, -650.727234
1733469367.772517, -1.883040, 0.852485, 4.651186, 1.946675, 1.976057, 2.956204, -68.214722, -46.565231, -650.268677
1733469367.782529, -2.064400, 0.520440, 4.283975, 1.801177, 1.989363, 3.115824, -67.714874, -46.001755, -651.304688
1733469367.792503, -2.603844, 0.228048, 4.752041, 1.623502, 1.991404, 3.265157, -67.127640, -45.340393, -652.281738
1733469367.802518, -3.324798, -0.060005, 6.211158, 1.321074, 1.865818, 3.322103, -66.460266, -44.718048, -652.538513
1733469367.812517, -4.011186, -0.471807, 8.018930, 0.832973, 1.587536, 3.277663, -66.136047, -43.997101, -652.412659
1733469367.822502, -4.214693, -0.590320, 9.555408, 0.239678, 1.176453, 3.272899, -65.507324, -42.821426, -652.964050
1733469367.832501, -4.142418, -0.568922, 10.080786, -0.328723, 0.791357, 3.361801, -65.240082, -41.441895, -653.325134
1733469367.842500, -4.177732, -1.033697, 9.537452, -0.846775, 0.556793, 3.494742, -64.783386, -39.935822, -653.620361
1733469367.852501, -4.336797, -1.192612, 8.684069, -1.324607, 0.460991, 3.677992, -64.327835, -38.022034, -653.964172
1733469367.862500, -4.805163, -0.785448, 7.899818, -1.777906, 0.530238, 3.847030, -63.886993, -36.105042, -653.236633
1733469367.872502, -5.715109, -0.562338, 7.319823, -2.262043, 0.732747, 3.944229, -63.548691, -33.615143, -653.603638
1733469367.882513, -6.982689, -0.536451, 7.223306, -2.837223, 0.994692, 3.938390, -62.390106, -31.254715, -654.225037
1733469367.892501, -8.114698, -0.392200, 7.455694, -3.454181, 1.127136, 3.898669, -61.468643, -28.647873, -654.318359
1733469367.902498, -8.953865, -0.202460, 7.606678, -4.022621, 1.060305, 3.864692, -60.153610, -26.001099, -654.103638
1733469367.912497, -9.815329, -0.236278, 7.297377, -4.482497, 0.826594, 3.810167, -59.564240, -22.966476, -653.351562
1733469367.922497, -11.520300, 0.057760, 6.757784, -4.851206, 0.481174, 3.657011, -58.684341, -19.905518, -651.840820
1733469367.932492, -13.516166, 0.834828, 6.078728, -5.142407, 0.098350, 3.422469, -57.790665, -17.072723, -651.451599
1733469367.942500, -15.469685, 1.927632, 5.365256, -5.388988, -0.304784, 3.117415, -57.790665, -17.072723, -651.451599
1733469367.952495, -17.305439, 3.050063, 4.612579, -5.640879, -0.687209, 2.798143, -56.800766, -14.079254, -649.566406
1733469367.962518, -19.005622, 4.337844, 3.761889, -5.951511, -0.991717, 2.474461, -56.231339, -11.457153, -648.175293
1733469367.972495, -20.460548, 5.449203, 2.605041, -6.306081, -1.146924, 2.173997, -55.731857, -8.671417, -645.943115
1733469367.981641, -21.758804, 6.558317, 0.808342, -6.647570, -1.118801, 1.869073, -54.936676, -6.141602, -643.702759
1733469367.992497, -22.862980, 7.559991, -1.344045, -6.915562, -0.926629, 1.564141, -54.781418, -3.733429, -640.194885
1733469368.002504, -23.573010, 8.459163, -3.431340, -7.091333, -0.703530, 1.272308, -54.234543, -1.516983, -637.742310
1733469368.012508, -24.223784, 9.410559, -5.057601, -7.187661, -0.528670, 0.968004, -53.647491, 0.199875, -635.089966
1733469368.022554, -25.516952, 10.412832, -6.479757, -7.253151, -0.435593, 0.544944, -53.315689, 1.816299, -632.060913
1733469368.032503, -27.515363, 11.480646, -7.826795, -7.281837, -0.444227, -0.052152, -53.289917, 3.192490, -629.037292
1733469368.042508, -29.569887, 12.356774, -10.028712, -7.190390, -0.380777, -0.787581, -53.536118, 3.936996, -625.771851
1733469368.052493, -30.936976, 13.334955, -12.809727, -6.954957, -0.235098, -1.569949, -53.742004, 4.433365, -622.162537
1733469368.062509, -31.073595, 14.149881, -15.396213, -6.567331, -0.108245, -2.317797, -54.676651, 4.207077, -619.675354
1733469368.072508, -30.336331, 14.624233, -17.646164, -6.022176, 0.045442, -2.977153, -55.577942, 3.926407, -616.431091
1733469368.082517, -29.095236, 15.317803, -19.692758, -5.355471, 0.215760, -3.493531, -57.094376, 3.113144, -614.546265
1733469368.092512, -27.506085, 16.282666, -21.074362, -4.648365, 0.286871, -3.893974, -58.504868, 2.048309, -612.455750
1733469368.102493, -25.772084, 17.309330, -22.263681, -3.889866, 0.403273, -4.161893, -60.013992, 0.706482, -610.876831
1733469368.112542, -24.213609, 18.067095, -23.320422, -3.116972, 0.635288, -4.346368, -61.920456, -0.715622, -609.912292
1733469368.122489, -22.722320, 18.281226, -23.706487, -2.414240, 0.900124, -4.479156, -63.962860, -2.480255, -609.446960
1733469368.132492, -21.223850, 18.384177, -23.399580, -1.809846, 1.145279, -4.580009, -65.410400, -3.879959, -608.907043
1733469368.142486, -19.781792, 18.557607, -22.648848, -1.292126, 1.318007, -4.651380, -67.288864, -5.679611, -609.175476
1733469368.152543, -18.565238, 18.900277, -21.899314, -0.808782, 1.432472, -4.719037, -69.022308, -7.527847, -609.217407
1733469368.162508, -17.307534, 18.732383, -21.427506, -0.323842, 1.544534, -4.783025, -71.012970, -9.328156, -609.982544
1733469368.172504, -16.091130, 18.322227, -21.128381, 0.164903, 1.683945, -4.862278, -72.633026, -11.180222, -610.673340
1733469368.182496, -15.060576, 18.149246, -20.609737, 0.639619, 1.844337, -4.967665, -74.292175, -13.410873, -611.737793
1733469368.192498, -13.989171, 18.086847, -19.818752, 1.070013, 2.005546, -5.089804, -75.688065, -15.688278, -612.941406
1733469368.202506, -12.749872, 18.116924, -18.867955, 1.468852, 2.169847, -5.190868, -77.051590, -18.018600, -614.779663
1733469368.212488, -11.470770, 18.318635, -17.989433, 1.873027, 2.357158, -5.243645, -78.316483, -20.340546, -615.868896
1733469368.222486, -10.051756, 18.523938, -16.922517, 2.272728, 2.515330, -5.235174, -79.395538, -22.988998, -617.548645
1733469368.232539, -8.546552, 18.612224, -15.549442, 2.651693, 2.605974, -5.170290, -80.692368, -25.821396, -619.728882
1733469368.242486, -6.988974, 18.578406, -14.134319, 3.003109, 2.641513, -5.028498, -81.163879, -28.338257, -621.230591
1733469368.252482, -5.403863, 18.379538, -12.813169, 3.315326, 2.656055, -4.808575, -81.700378, -31.210571, -622.071777
1733469368.262500, -3.864990, 17.906982, -11.607389, 3.558432, 2.702148, -4.513731, -81.963226, -33.770584, -624.286377
1733469368.272543, -2.367117, 17.414974, -10.432285, 3.759278, 2.737816, -4.127649, -82.175262, -36.323105, -625.852722
1733469368.282500, -0.955286, 16.871490, -9.374347, 3.939967, 2.784925, -3.682590, -82.014740, -38.876938, -627.465027
1733469368.292498, 0.235230, 15.958701, -8.485949, 4.085205, 2.846134, -3.226514, -82.107056, -41.091629, -628.654236
1733469368.302487, 1.156549, 14.776264, -7.621791, 4.210380, 2.929462, -2.776300, -81.615433, -43.460632, -630.233643
1733469368.312496, 1.807772, 13.730148, -6.801777, 4.306868, 3.074239, -2.335166, -81.273285, -45.319458, -631.507141
1733469368.322494, 2.245761, 12.850877, -6.074838, 4.350824, 3.312581, -1.903525, -80.847885, -47.059296, -632.636230
1733469368.332483, 2.568230, 12.009764, -5.200805, 4.345440, 3.600516, -1.486285, -80.092224, -48.727478, -633.790649
1733469368.342484, 2.789544, 11.257835, -4.039168, 4.287073, 3.858779, -1.076929, -79.222397, -50.142960, -635.493103
1733469368.352479, 2.944269, 10.556035, -2.740164, 4.188024, 4.055549, -0.675806, -78.704819, -51.472305, -636.203857
1733469368.362530, 3.069367, 9.967361, -1.325939, 4.042379, 4.117307, -0.288981, -77.886261, -52.658234, -638.259033
1733469368.372481, 3.095703, 9.275736, 0.155324, 3.836262, 4.030913, 0.056053, -77.015747, -53.658966, -639.381836
1733469368.382494, 3.113510, 8.452579, 1.178246, 3.609435, 3.861386, 0.367015, -75.941956, -54.268387, -640.344666
1733469368.392486, 3.293075, 7.714267, 1.758840, 3.423730, 3.646392, 0.685816, -75.270340, -54.985626, -641.140930
1733469368.402535, 3.534440, 7.070676, 2.233790, 3.246774, 3.403060, 1.004632, -74.350967, -55.509888, -642.345398
1733469368.412480, 3.630807, 6.416012, 2.554015, 3.085932, 3.186149, 1.339674, -73.688644, -55.987976, -642.927307
1733469368.422495, 3.630657, 5.817461, 2.631377, 2.934809, 3.071214, 1.687424, -73.275620, -56.112595, -643.444214
1733469368.432480, 3.670610, 5.057601, 2.737321, 2.772901, 2.992833, 2.056187, -72.672623, -56.164001, -643.900513
1733469368.442552, 3.617339, 4.366725, 2.994697, 2.633709, 2.937780, 2.434720, -72.124405, -55.861755, -644.995117
1733469368.452480, 3.253720, 3.897611, 3.177704, 2.526377, 2.939110, 2.789103, -71.537109, -55.646423, -644.970947
1733469368.462486, 2.687940, 3.631555, 3.616891, 2.416873, 2.927952, 3.120431, -71.138062, -54.980713, -646.325256
1733469368.472480, 2.253692, 3.328988, 4.697573, 2.263113, 2.772906, 3.445660, -70.738281, -54.433670, -646.599487
1733469368.481678, 1.934665, 3.136703, 6.052542, 2.063500, 2.461352, 3.784723, -70.227600, -53.839966, -647.477600
1733469368.492495, 1.650503, 3.181146, 7.184550, 1.840712, 2.063653, 4.170323, -70.111465, -52.772522, -647.666077
1733469368.502478, 1.258303, 3.182941, 8.142081, 1.569646, 1.674371, 4.589772, -70.016388, -51.475128, -647.910278
1733469368.512481, 0.467318, 2.927061, 8.817545, 1.172541, 1.436411, 4.982353, -69.951614, -49.890884, -648.183105
1733469368.521506, -0.746093, 2.410662, 8.924536, 0.615604, 1.520273, 5.295022, -69.624023, -48.062210, -649.188354
1733469368.532487, -2.329109, 1.749862, 8.542063, -0.096817, 1.905077, 5.503398, -69.632385, -46.086929, -649.584717
1733469368.542483, -3.651606, 1.187225, 8.202385, -0.862674, 2.302805, 5.636545, -68.714554, -43.573059, -650.729553
1733469368.552487, -4.650886, 0.913238, 8.022820, -1.518370, 2.498682, 5.739867, -67.454865, -41.127716, -651.093933
1733469368.562489, -5.723040, 0.858022, 7.640346, -1.969095, 2.518196, 5.811560, -66.704407, -38.200943, -652.318054
1733469368.572537, -6.892607, 0.739210, 7.637952, -2.317040, 2.282349, 5.827748, -65.595963, -35.309341, -653.457642
1733469368.582497, -8.325836, 0.722600, 8.121880, -2.648296, 1.887577, 5.764333, -64.381119, -32.427704, -653.575562
1733469368.592483, -9.784504, 0.707337, 8.312818, -2.998773, 1.478004, 5.659789, -63.083176, -29.378510, -653.649536
1733469368.602540, -11.229554, 0.536750, 8.338107, -3.393458, 1.071835, 5.506767, -61.882050, -26.203293, -653.613647
1733469368.612477, -13.131598, 0.477643, 8.214356, -3.790401, 0.698624, 5.246083, -60.618423, -23.108627, -653.053711
1733469368.622473, -15.207670, 0.568324, 7.663690, -4.146975, 0.330079, 4.888667, -59.283401, -19.993652, -652.759583
1733469368.632527, -17.026964, 0.852485, 6.850858, -4.412206, -0.052964, 4.482961, -58.021774, -17.335770, -651.391846
1733469368.642474, -18.675521, 1.484106, 5.883451, -4.592285, -0.379815, 4.051290, -56.915833, -14.427094, -650.111450
1733469368.652473, -20.182671, 2.518999, 5.065831, -4.758013, -0.663404, 3.642218, -55.992889, -11.611481, -647.926270
1733469368.662481, -21.452047, 3.679289, 4.172345, -4.917167, -0.796621, 3.314535, -54.802185, -9.036255, -646.891052
1733469368.672483, -22.568343, 4.448726, 3.057994, -5.137578, -0.734813, 3.000922, -54.096512, -6.667557, -644.785522
1733469368.682480, -24.036139, 4.849306, 2.527828, -5.520970, -0.571520, 2.586612, -53.466125, -4.547104, -642.738525
1733469368.692495, -25.647736, 5.635352, 1.849970, -5.928468, -0.288963, 2.059492, -52.627182, -2.304443, -640.512329
1733469368.702482, -26.694301, 6.517765, 0.539593, -6.250983, 0.009143, 1.464491, -52.050385, -0.468643, -638.103210
1733469368.712485, -27.156831, 7.425467, -0.598999, -6.490259, 0.105197, 0.857111, -51.396881, 1.086243, -635.678223
1733469368.722476, -27.484088, 8.711003, -1.676390, -6.638169, 0.015723, 0.237739, -51.396805, 2.517410, -632.815674
1733469368.732571, -27.612627, 10.381109, -2.954894, -6.741937, -0.229857, -0.352792, -51.403885, 3.512543, -629.941406
1733469368.742498, -27.668891, 12.419771, -4.576666, -6.748519, -0.620395, -0.896423, -51.952881, 4.090271, -626.793518
1733469368.752491, -28.073361, 14.430602, -7.114520, -6.498311, -0.955279, -1.400599, -52.498215, 4.661270, -623.165955
1733469368.762781, -29.078926, 16.558748, -13.642909, -6.102604, -0.997724, -1.895206, -53.381500, 4.727631, -620.930969
1733469368.772600, -29.078926, 16.558748, -13.642909, -5.700218, -0.847473, -2.337409, -54.418640, 4.555298, -617.760376
1733469368.781806, -28.756756, 16.968306, -16.584336, -5.206049, -0.518334, -2.691801, -55.557587, 3.804993, -615.582031
1733469368.792603, -28.317420, 16.859519, -19.241301, -4.607306, -0.107012, -3.023015, -56.896286, 2.949982, -613.933289
1733469368.802501, -27.800721, 16.453702, -20.844668, -3.999963, 0.280690, -3.357700, -58.720428, 2.144073, -612.363525
1733469368.812469, -25.892842, 16.259472, -21.510406, -3.468753, 0.653806, -3.690748, -60.210495, 0.773056, -611.410095
1733469368.822509, -24.589199, 16.175226, -21.208287, -3.045137, 0.991818, -4.026856, -62.255859, -0.635025, -610.947083
1733469368.832490, -24.589199, 16.175226, -21.208287, -2.645641, 1.227094, -4.345415, -63.824661, -2.182022, -610.653992
1733469368.842466, -21.568615, 16.685191, -20.837934, -2.194804, 1.346026, -4.644250, -65.958588, -3.919678, -610.568726
1733469368.852473, -19.837008, 17.001675, -20.549882, -1.729982, 1.344896, -4.912899, -67.966873, -5.854172, -609.953369
1733469368.862475, -18.258481, 17.223737, -20.449774, -1.270648, 1.288756, -5.151489, -70.081070, -7.907684, -611.057922
1733469368.872467, -16.597204, 17.452533, -20.591631, -0.803436, 1.258705, -5.354097, -71.796143, -10.174667, -611.149780
1733469368.882469, -14.816816, 17.536929, -20.740071, -0.307770, 1.323546, -5.464572, -73.626266, -12.385849, -612.235046
1733469368.892491, -13.244275, 17.337312, -20.349667, 0.191103, 1.517264, -5.518343, -75.364624, -14.672638, -613.127808
1733469368.902477, -11.653777, 17.191715, -19.513043, 0.637866, 1.809289, -5.556578, -77.162216, -17.253555, -613.978638
1733469368.912471, -9.990405, 17.310377, -18.308310, 1.007015, 2.166698, -5.584489, -78.261841, -19.791199, -615.656250
1733469368.922483, -8.203582, 17.507001, -16.869395, 1.339189, 2.485271, -5.562791, -79.757675, -22.541306, -617.082092
1733469368.932464, -6.358700, 17.550845, -15.284733, 1.685613, 2.676997, -5.487911, -80.884125, -25.613419, -619.318726
1733469368.942473, -4.435707, 17.423204, -13.802573, 2.025281, 2.719449, -5.369051, -81.490845, -28.212982, -620.508789
1733469368.952463, -2.589928, 17.128268, -12.558635, 2.339173, 2.636849, -5.161386, -82.332901, -30.943100, -621.277100
1733469368.962473, -1.085172, 16.602891, -11.646744, 2.640960, 2.517252, -4.888401, -82.563293, -33.579727, -623.761902
1733469368.972461, 0.261567, 15.967829, -10.657340, 2.940686, 2.376633, -4.570389, -82.663422, -36.228241, -624.955322
1733469368.982458, 1.624765, 15.319898, -9.724050, 3.233182, 2.190911, -4.188984, -82.729553, -38.767685, -625.691223
1733469368.991608, 2.686444, 14.577995, -9.058911, 3.501852, 2.044412, -3.741695, -82.773773, -41.007675, -627.202332
1733469369.002461, 3.394379, 13.717129, -8.462605, 3.708444, 2.039538, -3.268870, -82.427856, -42.939850, -628.083679
1733469369.012458, 3.801992, 12.804789, -7.929596, 3.830859, 2.215640, -2.782537, -82.161682, -44.790619, -629.417725
1733469369.022459, 3.964349, 12.029816, -7.116615, 3.873302, 2.571933, -2.301343, -81.693176, -46.426559, -629.982910
1733469369.032517, 4.048595, 11.359140, -5.849035, 3.865817, 2.966245, -1.833723, -81.474518, -47.805496, -631.298767
1733469369.042476, 4.215142, 10.687118, -4.455310, 3.850636, 3.262267, -1.405491, -80.966400, -49.050949, -632.502747
1733469369.052458, 4.356400, 10.005518, -3.198205, 3.852068, 3.403608, -1.011278, -80.141190, -50.442444, -633.163818
1733469369.062468, 4.592528, 9.348759, -2.183961, 3.857013, 3.445063, -0.641934, -79.745804, -51.383850, -634.924438
1733469369.072457, 4.882226, 8.722077, -0.939575, 3.875150, 3.381077, -0.273167, -79.143326, -52.346100, -635.843994
1733469369.082527, 5.061941, 8.114398, 0.432453, 3.881029, 3.231476, 0.090334, -78.603363, -53.007645, -636.767029
1733469369.091555, 5.210681, 7.448212, 1.483507, 3.799641, 3.031884, 0.457645, -78.023529, -53.437668, -637.370483
1733469369.102458, 5.262904, 6.850559, 1.995866, 3.627356, 2.913625, 0.846213, -77.109863, -53.819168, -638.424683
1733469369.111928, 5.162348, 6.493075, 2.397494, 3.416270, 2.882369, 1.274802, -76.684402, -53.960709, -639.197571
1733469369.122463, 4.744859, 6.035932, 2.873491, 3.228457, 2.890959, 1.749734, -76.052277, -53.834717, -639.752136
1733469369.132460, 3.919607, 5.468057, 3.431789, 3.052412, 2.927957, 2.229313, -75.934753, -53.435013, -640.604370
1733469369.142457, 2.990208, 4.816984, 4.167856, 2.872306, 2.985528, 2.663729, -75.279846, -52.965790, -641.324646
1733469369.152459, 2.051382, 4.210653, 4.990713, 2.662010, 3.025561, 3.036746, -74.759247, -52.413971, -641.644165
1733469369.162459, 1.036540, 3.821295, 5.687576, 2.383782, 3.046244, 3.339644, -74.329773, -51.394516, -643.369019
1733469369.172458, 0.251690, 3.434782, 6.357204, 2.066325, 2.987061, 3.565540, -73.623413, -50.579575, -644.235291
1733469369.182455, -0.082750, 3.251625, 6.963984, 1.786435, 2.769332, 3.764434, -73.149658, -49.302795, -645.147339
1733469369.192478, -0.448015, 3.306542, 7.186196, 1.570205, 2.415927, 4.008553, -72.821274, -48.047943, -645.880249
1733469369.201630, -1.003470, 3.119794, 7.568221, 1.444187, 2.057563, 4.307760, -72.257980, -46.465836, -646.237610
1733469369.212455, -1.762282, 2.937685, 8.392874, 1.308957, 1.726637, 4.616592, -72.114258, -44.909836, -646.544373
1733469369.222463, -2.807950, 2.720412, 9.183409, 1.063970, 1.429046, 4.921156, -71.691177, -43.082932, -647.483032
1733469369.232456, -4.136432, 2.255937, 9.902867, 0.671734, 1.279078, 5.186206, -70.994705, -40.943832, -647.624451
1733469369.242451, -5.996577, 1.753154, 10.711658, 0.112690, 1.299858, 5.415913, -70.616135, -38.480942, -648.199219
1733469369.252465, -8.191911, 1.192312, 11.336844, -0.607682, 1.459229, 5.550544, -69.670258, -36.187363, -648.049316
1733469369.262493, -10.046369, 1.065719, 11.562049, -1.472401, 1.704132, 5.529913, -68.376740, -33.209274, -648.897217
1733469369.272459, -11.329362, 1.391929, 11.337892, -2.376549, 1.970930, 5.452479, -67.094055, -30.147736, -650.070679
1733469369.282465, -12.829928, 1.393874, 10.538079, -3.227287, 2.134452, 5.337747, -65.561111, -26.816818, -649.964233
1733469369.292467, -14.146141, 1.462408, 9.252093, -3.923291, 2.156168, 5.117100, -64.220245, -23.719162, -650.147217
1733469369.302458, -14.875773, 1.644966, 8.259846, -4.381112, 1.983934, 4.842848, -62.655060, -20.719894, -650.208435
1733469369.312470, -15.656134, 1.842787, 7.584232, -4.633854, 1.573672, 4.603946, -60.923523, -17.785187, -649.291931
1733469369.322464, -16.988956, 2.100613, 7.031471, -4.756033, 0.980760, 4.380332, -59.832336, -14.684265, -647.769043
1733469369.332467, -18.846557, 2.915689, 6.557269, -4.863884, 0.360738, 4.130869, -58.295700, -11.774048, -646.320679
1733469369.342461, -20.839580, 4.277840, 5.854871, -5.037986, -0.132840, 3.847332, -56.956619, -9.172333, -644.620239
1733469369.352466, -22.701222, 5.663185, 4.966921, -5.322349, -0.362593, 3.517219, -55.751953, -6.689880, -642.432617
1733469369.362483, -24.277354, 7.216722, 3.951929, -5.782526, -0.348869, 3.118897, -54.833969, -4.269836, -640.523193
1733469369.372460, -25.756522, 8.744522, 2.108693, -6.356827, -0.193697, 2.670354, -54.065674, -1.929199, -637.865601
1733469369.382455, -26.999711, 9.780015, -0.319476, -6.870152, -0.009078, 2.144530, -53.379440, 0.369064, -634.951477
1733469369.392464, -27.781568, 10.557531, -3.154361, -7.250104, 0.122711, 1.536520, -53.379440, 0.369064, -634.951477
1733469369.402464, -28.278514, 11.639860, -5.995829, -7.458772, 0.228903, 0.866509, -52.777771, 1.862244, -631.955566
1733469369.412468, -28.655302, 13.076082, -8.560468, -7.492893, 0.253023, 0.174884, -52.498993, 2.947601, -629.017029
1733469369.422452, -28.892627, 14.134170, -11.099669, -7.333573, 0.126447, -0.531382, -52.853271, 3.905289, -625.786682
1733469369.432485, -28.686426, 15.078233, -13.753940, -6.942862, -0.082195, -1.214806, -53.130142, 4.440826, -622.566895
1733469369.442450, -28.366501, 15.815348, -16.060604, -6.400525, -0.158675, -1.807933, -53.609161, 4.477448, -619.612854
1733469369.452501, -27.850401, 16.572065, -17.616685, -5.831109, -0.062410, -2.345479, -54.499649, 4.056610, -617.384644
1733469369.462454, -26.657191, 17.313819, -18.491617, -5.307548, 0.082197, -2.788579, -55.900269, 3.638016, -614.772339
1733469369.472453, -25.412805, 17.857602, -19.210027, -4.845749, 0.183921, -3.124990, -57.329117, 2.720016, -612.977539
1733469369.482458, -24.210317, 18.057368, -20.116980, -4.401026, 0.257878, -3.403965, -58.415451, 1.749512, -611.586792
1733469369.492456, -23.018154, 18.065748, -21.052963, -3.916450, 0.371208, -3.610219, -60.130554, 0.637497, -610.196533
1733469369.502447, -22.132000, 17.912070, -21.719000, -3.449939, 0.592248, -3.797677, -61.730667, -0.537537, -609.600281
1733469369.512445, -21.424514, 17.948881, -22.201731, -3.052697, 0.905886, -3.999373, -63.038879, -2.056503, -608.727356
1733469369.521470, -20.465636, 18.105701, -22.940492, -2.635243, 1.330768, -4.196011, -65.076904, -3.542603, -608.218506
1733469369.532458, -19.067272, 18.330457, -23.332393, -2.131254, 1.777554, -4.382732, -66.717117, -5.343063, -608.241699
1733469369.542452, -17.430686, 18.508825, -23.360226, -1.501414, 2.103732, -4.539133, -68.671402, -7.220840, -609.029541
1733469369.552452, -15.755493, 18.559702, -22.878393, -0.769444, 2.258939, -4.667009, -70.458450, -9.174454, -609.579834
1733469369.562447, -14.260464, 18.421436, -22.102372, -0.003964, 2.295230, -4.762121, -72.290543, -10.907684, -610.644470
1733469369.572450, -12.894572, 18.214488, -20.984429, 0.726619, 2.312412, -4.881634, -74.311310, -12.956360, -611.940796
1733469369.582445, -11.410017, 18.229451, -19.423260, 1.344386, 2.348493, -5.008594, -75.925644, -15.110992, -613.428650
1733469369.592444, -9.787197, 18.423531, -17.608755, 1.843368, 2.363504, -5.099155, -77.334686, -17.380722, -614.942261
1733469369.602000, -8.187421, 18.457350, -15.891813, 2.255823, 2.306003, -5.124621, -78.760300, -19.962906, -616.526184
1733469369.612501, -6.717082, 18.185308, -14.449306, 2.603504, 2.202265, -5.097906, -79.712128, -22.321609, -617.913330
1733469369.622442, -5.379771, 17.791163, -13.303232, 2.897182, 2.066329, -5.016195, -80.570969, -25.311066, -620.034790
1733469369.632441, -4.200028, 17.255311, -12.631209, 3.168524, 1.983770, -4.859060, -81.087280, -27.593872, -620.812378
1733469369.642450, -3.211373, 16.564883, -11.888857, 3.409720, 2.044938, -4.640399, -81.712433, -30.233322, -622.234619
1733469369.652451, -2.325817, 15.802778, -10.929830, 3.608728, 2.191154, -4.376703, -81.998688, -32.870407, -623.821411
1733469369.662444, -1.418564, 14.908394, -9.926659, 3.779346, 2.364108, -4.093541, -82.478638, -35.160004, -625.303406
1733469369.672437, -0.531513, 14.023587, -8.834754, 3.924379, 2.537099, -3.798606, -82.310059, -37.820953, -626.880615
1733469369.682496, 0.253037, 13.121721, -7.651569, 4.038945, 2.692918, -3.492049, -82.319885, -40.021194, -627.986328
1733469369.692446, 0.982820, 12.003629, -6.608445, 4.108886, 2.812318, -3.181238, -82.340073, -42.141907, -629.150391
1733469369.702437, 1.562815, 11.003003, -5.717802, 4.146776, 2.928708, -2.885456, -81.610397, -44.261765, -630.842651
1733469369.711477, 2.192341, 10.383503, -4.815338, 4.174623, 3.082678, -2.591797, -81.342270, -46.256439, -632.003784
1733469369.721678, 2.924966, 9.966313, -3.566762, 4.179960, 3.258053, -2.255171, -80.435547, -48.328949, -633.353149
1733469369.732450, 3.612551, 9.579799, -2.157924, 4.118256, 3.444498, -1.870604, -79.681015, -49.732178, -634.289307
1733469369.742454, 4.281730, 9.096919, -0.837821, 3.960173, 3.590723, -1.441476, -78.764832, -51.246674, -635.786011
1733469369.752457, 4.758326, 8.637382, 0.234183, 3.734007, 3.661087, -0.972358, -77.890518, -52.682922, -636.195190
1733469369.762444, 4.931607, 8.191013, 0.964265, 3.499469, 3.654267, -0.483812, -77.299362, -53.448654, -637.599487
1733469369.772452, 5.029918, 7.429208, 1.435474, 3.293102, 3.582024, -0.001294, -76.799957, -54.181808, -638.724792
1733469369.782449, 4.965425, 6.503998, 2.118868, 3.139673, 3.480727, 0.460854, -75.904953, -54.901718, -640.063293
1733469369.792446, 4.785710, 5.428852, 3.209278, 3.010230, 3.277632, 0.862372, -75.377502, -55.241272, -640.589600
1733469369.802457, 4.681861, 4.659266, 3.886089, 2.844310, 2.955729, 1.200671, -74.693466, -55.329407, -641.699158
1733469369.812456, 4.340837, 4.258537, 3.723432, 2.651191, 2.664304, 1.526341, -74.609665, -55.445557, -642.103027
1733469369.822441, 3.959112, 3.866636, 3.382857, 2.508328, 2.519701, 1.820215, -73.886932, -55.207550, -642.583862
1733469369.832433, 3.780444, 3.577985, 3.261651, 2.418625, 2.453957, 2.103073, -73.412857, -55.184082, -643.170898
1733469369.842446, 3.595343, 3.548506, 3.580977, 2.371144, 2.405058, 2.406222, -73.000137, -54.721176, -643.929199
1733469369.852449, 3.420267, 3.457078, 4.446781, 2.374343, 2.292905, 2.735016, -72.803345, -54.450333, -643.950073
1733469369.862497, 2.995446, 3.218705, 5.606771, 2.380167, 2.100309, 3.076659, -72.822952, -53.672287, -644.698242
1733469369.872430, 2.384026, 2.987215, 6.620566, 2.298573, 1.858042, 3.399224, -72.498337, -52.910324, -645.065552
1733469369.882431, 1.786523, 2.959981, 7.268048, 2.102835, 1.666868, 3.692419, -72.503525, -51.777100, -645.332886
1733469369.892433, 1.214758, 3.043180, 7.760655, 1.805565, 1.565579, 3.989182, -71.842529, -50.693375, -645.547852
1733469369.902495, 0.526275, 2.917634, 8.148665, 1.450862, 1.537645, 4.311076, -71.922760, -49.293747, -646.147217
1733469369.912438, -0.463877, 2.633472, 8.288876, 1.025999, 1.577974, 4.615058, -71.915680, -47.647446, -646.197266
1733469369.922427, -1.350030, 2.683002, 8.487295, 0.578942, 1.629781, 4.875107, -71.633942, -45.674316, -647.257996
1733469369.932429, -2.124555, 2.820519, 8.711752, 0.170399, 1.618340, 5.134315, -70.956650, -43.773102, -647.855591
1733469369.942492, -3.092111, 2.978686, 9.110237, -0.210527, 1.550698, 5.403705, -70.299103, -41.348740, -648.753479
1733469369.952472, -4.524293, 3.114856, 9.644144, -0.594147, 1.458990, 5.656144, -69.874161, -38.740936, -648.255554
1733469369.962440, -6.142624, 3.219902, 10.199748, -1.041681, 1.373608, 5.826322, -68.939957, -36.182999, -649.453247
1733469369.972431, -7.929446, 3.144036, 10.629208, -1.586367, 1.349818, 5.934647, -68.183228, -33.080902, -649.669067
1733469369.982449, -9.815030, 2.700360, 10.859949, -2.925324, 1.211289, 5.804163, -66.904755, -30.237823, -650.282837
1733469369.992437, -11.529278, 2.568978, 10.352378, -3.450021, 1.036403, 5.607868, -65.585297, -27.097794, -650.013245
1733469370.002430, -13.178135, 2.784008, 9.615563, -3.812321, 0.760874, 5.386848, -64.323303, -23.680939, -649.664307
1733469370.012444, -15.119533, 3.378368, 9.419986, -4.120536, 0.357515, 5.144246, -62.722260, -20.775681, -649.623230
1733469370.022440, -17.399412, 4.139126, 9.305963, -4.452575, -0.028409, 4.891145, -61.107559, -17.443771, -648.490723
1733469370.032435, -19.863793, 4.690540, 8.882787, -4.887891, -0.266129, 4.635038, -59.481262, -14.339493, -647.060303
1733469370.042431, -22.593034, 5.299865, 8.049905, -5.488982, -0.206541, 4.293776, -57.911789, -11.312668, -645.416260
1733469370.052474, -25.482536, 6.006453, 6.669797, -5.488982, -0.206541, 4.293776, -56.784363, -8.351089, -642.777893
1733469370.062427, -27.781119, 6.834698, 5.024681, -6.232826, 0.092284, 3.797616, -55.442856, -5.337982, -641.196594
1733469370.072430, -29.771149, 8.527847, 3.114707, -7.479264, 0.363968, 2.461760, -54.034500, -2.698898, -638.565247
1733469370.082443, -31.331421, 10.127623, 0.852785, -7.777490, 0.113883, 1.683321, -53.153076, -0.528763, -635.738281
1733469370.092431, -32.567427, 10.857405, -1.747767, -7.850490, -0.361794, 0.827004, -52.740570, 1.354736, -632.553040
1733469370.102433, -33.761685, 11.347019, -4.769399, -7.685421, -0.840077, -0.079288, -52.757660, 2.743759, -629.248413
1733469370.112441, -34.348115, 11.880926, -8.139837, -7.341728, -1.134570, -0.900697, -52.563156, 3.552277, -625.468811
1733469370.122442, -34.180221, 13.139079, -11.337742, -6.903557, -1.104864, -1.554489, -53.293961, 4.057190, -622.578552
1733469370.132433, -33.476625, 14.720749, -13.989769, -6.443517, -0.761565, -2.027456, -54.173172, 4.165665, -619.478699
1733469370.142435, -32.315887, 15.991172, -15.724069, -5.976734, -0.249449, -2.369510, -55.130493, 3.821075, -616.518921
1733469370.152434, -31.131804, 17.194258, -16.668582, -5.484104, 0.259776, -2.643876, -56.334824, 2.841324, -613.630127
1733469370.162433, -29.715035, 17.666515, -17.345841, -4.955055, 0.651763, -2.903853, -58.046005, 2.089783, -612.451355
1733469370.172423, -28.259061, 17.322947, -17.635390, -4.420373, 0.879103, -3.190117, -59.312881, 0.834976, -611.074768
1733469370.182430, -26.727371, 17.159094, -17.509844, -3.904888, 0.935080, -3.475096, -60.942917, -0.282806, -609.784973
1733469370.192434, -25.210345, 16.784700, -17.451486, -3.447068, 1.008998, -3.771209, -62.725571, -1.789246, -608.943726
1733469370.201626, -23.836223, 16.366314, -17.685219, -3.447068, 1.008998, -3.771209, -64.320740, -3.266449, -608.214539
1733469370.212429, -22.240188, 16.281918, -17.702129, -2.707298, 1.455654, -4.233819, -65.945190, -4.698914, -607.720459
1733469370.222429, -20.497060, 16.483929, -17.813908, -2.254838, 1.707491, -4.314277, -67.759125, -6.514267, -607.967957
1733469370.232427, -18.920478, 16.207548, -17.741483, -1.738360, 1.853874, -4.382718, -69.434525, -8.356735, -608.249390
1733469370.242429, -17.687614, 15.627403, -17.363199, -1.200125, 1.909125, -4.486301, -70.862640, -9.947372, -608.751709
1733469370.252428, -16.633716, 15.597176, -16.915783, -0.719214, 1.940617, -4.621370, -72.791534, -12.024704, -608.916260
1733469370.262427, -15.570840, 15.868769, -16.191387, -0.344706, 1.912717, -4.783445, -74.357971, -13.902451, -610.777100
1733469370.272422, -14.440927, 16.180913, -15.383045, -0.049903, 1.857416, -4.944258, -76.033203, -16.080505, -611.470459
1733469370.282433, -13.147459, 16.377237, -15.054291, 0.235313, 1.818020, -5.077085, -77.303375, -18.615158, -612.828918
1733469370.292421, -11.743559, 16.429161, -14.967052, 0.552948, 1.766153, -5.163843, -78.701126, -20.647171, -613.585510
1733469370.302420, -10.341604, 16.220716, -14.938921, 0.902886, 1.729611, -5.211294, -79.453064, -23.351196, -614.666138
1733469370.312418, -9.046790, 16.075568, -14.851981, 1.278298, 1.729206, -5.195348, -80.432907, -25.891235, -615.547180
1733469370.322421, -7.700351, 16.078561, -14.692318, 1.649964, 1.821948, -5.099551, -81.549316, -28.264069, -616.382019
1733469370.332426, -6.319944, 15.896751, -14.317625, 1.982352, 2.002278, -4.918615, -81.889709, -30.919357, -617.740479
1733469370.342433, -4.964976, 15.599122, -13.774740, 2.283556, 2.267502, -4.668068, -82.563126, -33.422745, -618.812378
1733469370.352418, -3.611653, 15.146019, -13.052439, 2.577166, 2.509300, -4.373387, -82.677231, -36.124161, -620.414734
1733469370.362416, -2.270900, 14.499884, -11.896189, 2.870290, 2.617425, -4.053663, -82.980408, -38.423615, -622.176270
1733469370.372416, -0.943764, 13.757981, -10.541221, 3.153322, 2.608025, -3.716748, -82.969269, -40.662216, -624.357727
1733469370.382423, 0.139612, 12.915670, -9.389011, 3.403620, 2.571463, -3.393712, -82.914719, -42.850647, -625.238403
1733469370.392479, 0.955735, 12.036550, -8.380005, 3.591227, 2.532060, -3.088822, -82.855804, -44.793488, -625.945679
1733469370.402416, 1.726968, 11.049241, -7.410503, 3.699803, 2.513281, -2.786167, -82.683701, -46.639847, -627.048828
1733469370.412414, 2.365322, 10.201394, -6.640318, 3.757795, 2.573472, -2.471251, -82.090515, -48.465271, -627.952881
1733469370.422116, 2.935890, 9.631724, -5.826739, 3.797920, 2.623475, -2.135453, -81.615341, -50.093765, -628.723511
1733469370.432463, 3.610606, 9.246108, -4.617966, 3.801928, 2.612057, -1.765839, -81.261978, -51.491028, -629.919861
1733469370.442409, 4.171597, 8.703372, -3.528604, 3.753478, 2.610926, -1.377198, -81.099030, -52.840820, -630.036804
1733469370.452411, 4.397849, 7.995885, -2.827103, 3.648884, 2.740349, -1.010861, -80.332733, -54.063507, -630.410583
1733469370.462421, 4.264821, 7.128287, -2.484433, 3.522078, 2.993212, -0.693288, -79.762970, -54.943222, -632.238586
1733469370.472459, 4.160225, 6.246622, -1.833510, 3.411115, 3.190264, -0.396181, -79.321884, -55.642761, -633.176270
1733469370.482411, 4.519355, 5.631611, -0.550517, 3.291841, 3.188694, -0.085276, -78.845306, -56.215775, -634.199951
1733469370.492419, 4.957195, 5.361815, 0.842909, 3.150506, 3.039872, 0.247310, -78.241547, -56.854660, -634.748901
1733469370.502414, 5.261557, 5.114464, 1.883788, 2.969623, 2.837007, 0.588813, -77.755661, -57.323303, -635.268494
1733469370.512419, 5.333832, 4.545541, 2.461987, 2.752309, 2.644145, 0.925966, -77.084183, -57.301117, -636.047546
1733469370.521439, 5.119102, 4.136582, 2.530970, 2.578385, 2.513817, 1.252959, -76.784866, -57.373703, -636.525635
1733469370.532407, 5.021539, 4.056227, 2.325518, 2.497521, 2.450048, 1.636178, -76.561844, -57.034042, -637.193604
1733469370.542409, 5.036054, 4.043956, 2.217330, 2.480269, 2.455851, 2.086515, -76.303726, -56.723282, -637.694580
1733469370.552411, 4.832846, 4.158728, 2.665195, 2.441837, 2.458389, 2.563764, -76.190659, -56.112747, -637.252441
1733469370.562411, 4.521450, 4.451868, 3.479523, 2.342294, 2.420341, 3.064723, -75.946243, -55.228424, -638.768188
1733469370.572410, 4.121020, 4.585794, 4.362984, 2.189065, 2.381700, 3.571000, -75.527939, -54.182724, -639.782410
1733469370.582414, 3.525312, 4.473566, 5.117905, 1.978216, 2.368293, 4.060903, -75.789261, -52.811035, -640.101990
1733469370.592466, 2.721309, 4.349965, 6.076035, 1.704849, 2.297686, 4.521776, -75.630615, -51.323944, -640.842896
1733469370.602405, 1.571793, 4.129399, 7.017854, 1.393733, 2.209800, 4.913524, -75.742035, -49.480560, -641.802734
1733469370.612406, 0.201711, 3.566313, 7.458836, 1.066379, 2.167717, 5.214506, -75.310806, -47.590836, -642.563477
1733469370.622404, -1.264138, 3.010858, 7.956680, 0.689243, 2.123330, 5.399630, -75.245956, -45.247726, -643.236084
1733469370.632474, -2.922123, 2.392855, 8.691551, 0.236997, 2.031554, 5.469377, -74.616669, -42.996323, -644.163086
1733469370.642412, -4.217835, 1.971027, 9.462184, -0.264498, 1.881938, 5.485412, -73.962601, -40.280319, -644.598450
1733469370.652418, -5.260510, 1.832163, 10.153061, -0.795708, 1.686218, 5.491009, -72.922363, -37.950134, -644.775696
1733469370.662402, -6.197990, 1.799841, 10.504261, -1.347175, 1.457426, 5.526750, -71.932938, -35.110367, -646.179260
1733469370.672447, -7.612364, 1.894861, 10.361955, -1.867389, 1.326774, 5.535146, -71.156235, -32.231171, -646.083862
1733469370.682417, -9.399785, 1.712153, 9.787945, -2.371290, 1.309667, 5.506181, -69.901520, -28.938278, -646.262939
1733469370.692426, -10.966042, 1.427842, 9.724499, -2.895330, 1.233814, 5.469831, -68.308472, -26.199341, -646.248474
1733469370.702402, -12.927941, 1.618031, 9.962722, -3.405184, 1.098698, 5.372659, -67.011520, -22.905975, -646.330750
1733469370.712454, -15.304934, 2.087594, 9.888352, -3.914573, 0.935798, 5.189595, -65.520981, -19.993866, -645.886536
1733469370.722410, -17.319056, 2.450166, 9.683349, -4.415204, 0.726442, 5.010496, -63.729919, -16.595901, -645.163635
1733469370.732412, -19.226337, 3.035997, 9.307459, -4.930028, 0.506472, 4.803950, -62.153107, -13.369324, -643.782654
1733469370.742419, -21.752519, 3.464559, 8.629002, -5.522240, 0.390444, 4.454537, -60.675491, -10.494675, -641.931885
1733469370.752413, -24.438963, 3.729119, 7.354239, -6.188153, 0.468695, 3.945799, -58.995468, -7.703949, -639.696350
1733469370.762405, -26.528951, 4.187010, 5.814768, -6.915270, 0.578456, 3.332152, -57.800247, -4.876633, -638.028198
1733469370.772410, -28.065580, 5.840206, 4.235941, -7.570654, 0.540712, 2.626687, -56.843552, -2.562790, -635.035156
1733469370.782432, -29.452421, 7.832780, 1.899949, -7.990612, 0.238952, 1.848278, -55.706223, -0.582611, -632.232910
1733469370.792417, -30.614806, 8.850615, -1.482310, -8.030566, -0.135961, 1.063885, -55.310120, 1.007584, -628.851807
1733469370.802414, -31.866974, 9.831939, -5.478382, -7.765279, -0.332667, 0.269145, -54.904053, 1.812820, -625.365112
1733469370.812403, -33.027563, 11.270704, -8.793005, -7.433689, -0.368274, -0.524504, -55.481369, 2.627182, -621.822693
1733469370.822401, -33.678786, 13.201329, -10.995221, -7.209794, -0.235109, -1.281946, -56.069214, 2.720825, -619.185913
1733469370.832419, -33.578978, 15.322891, -12.957270, -7.045369, -0.028977, -2.005714, -57.282944, 2.157837, -615.940430
1733469370.842400, -32.806997, 16.493506, -15.119982, -6.709351, 0.108263, -2.691025, -58.412415, 1.414490, -613.774658
1733469370.852399, -31.324687, 17.543513, -17.851018, -6.081355, 0.168943, -3.239083, -59.706787, 0.209915, -610.956909
1733469370.862402, -29.172449, 18.066945, -20.589236, -5.225789, 0.240308, -3.599991, -59.706787, 0.209915, -610.956909
1733469370.872409, -27.137677, 18.357691, -22.450878, -4.331372, 0.392260, -3.809546, -61.247223, -0.920929, -609.727051
1733469370.882441, -25.323621, 18.380137, -23.145346, -3.569779, 0.671170, -3.957791, -62.627441, -2.501328, -608.645996
1733469370.892406, -23.820212, 18.332851, -23.094469, -2.964468, 1.013375, -4.116176, -64.483810, -3.787750, -607.671753
1733469370.902412, -22.238542, 18.252645, -22.568942, -2.444174, 1.264885, -4.268227, -66.401535, -5.565796, -607.734314
1733469370.912407, -20.615722, 18.128446, -21.993436, -1.914173, 1.417414, -4.419233, -68.003983, -7.503555, -607.712402
1733469370.922405, -19.206585, 18.101661, -21.561133, -1.393381, 1.508075, -4.583662, -69.993408, -9.178162, -607.927368
1733469370.932402, -17.801638, 18.144008, -21.218762, -0.890426, 1.581573, -4.764820, -71.721680, -11.051727, -608.167664
1733469370.942410, -16.407763, 18.127997, -21.120001, -0.374817, 1.685754, -4.920288, -73.439362, -13.083710, -608.812439
1733469370.952402, -14.762049, 18.215236, -21.088577, 0.180733, 1.861394, -5.000682, -75.200851, -15.280609, -609.299438
1733469370.962400, -13.064261, 18.201020, -20.931009, 0.751035, 2.102187, -5.029467, -76.556351, -17.431824, -610.296631
1733469370.972400, -11.332505, 18.179024, -20.377499, 1.325969, 2.362821, -4.968814, -77.993835, -19.832443, -611.929382
1733469370.982409, -9.591022, 18.198177, -19.404556, 1.882592, 2.623711, -4.835851, -79.214096, -22.188446, -613.681885
1733469370.992474, -8.015039, 18.236185, -17.855058, 2.380516, 2.790256, -4.662221, -80.181564, -24.608170, -615.471924
1733469371.002391, -6.493673, 18.152538, -15.879094, 2.828127, 2.826484, -4.447109, -81.008255, -26.959763, -617.692627
1733469371.012403, -5.016900, 17.932421, -14.032416, 3.242617, 2.762788, -4.199687, -81.546234, -29.253448, -618.969116
1733469371.022468, -3.744831, 17.378612, -12.276568, 3.613789, 2.580536, -3.965063, -81.982056, -31.568253, -620.716858
1733469371.032403, -2.617311, 16.538098, -10.601375, 3.943103, 2.354119, -3.724797, -82.366013, -33.963959, -622.409729
1733469371.042406, -1.510741, 15.623662, -9.294590, 4.194348, 2.212463, -3.478734, -82.775787, -36.201523, -623.876953
1733469371.052396, -0.491260, 14.474445, -8.375815, 4.353101, 2.219134, -3.232860, -82.879959, -38.493912, -625.075134
1733469371.061830, 0.345663, 13.332710, -7.404817, 4.440819, 2.319486, -2.973997, -82.902283, -40.360001, -626.238647
1733469371.072390, 1.151910, 12.499379, -6.237344, 4.454992, 2.477367, -2.684971, -82.741028, -42.408859, -627.590393
1733469371.082405, 1.911321, 11.751939, -4.990863, 4.387012, 2.612841, -2.378796, -82.228699, -44.287018, -628.907593
1733469371.092448, 2.613121, 11.082460, -3.636792, 4.280488, 2.671359, -2.043378, -81.888077, -46.024460, -630.076782
1733469371.102392, 3.315969, 10.494384, -2.434305, 4.168965, 2.678030, -1.694965, -81.300827, -47.704361, -630.972168
1733469371.112428, 3.817255, 9.809643, -1.373075, 4.050589, 2.667581, -1.337230, -80.967941, -48.932999, -631.832642
1733469371.122410, 4.162768, 9.067889, -0.370503, 3.864924, 2.637695, -0.974317, -80.785858, -50.059296, -632.526978
1733469371.132462, 4.378097, 8.252963, 0.305111, 3.631483, 2.688680, -0.611444, -80.065704, -51.107483, -633.344116
1733469371.142397, 4.504242, 7.448062, 0.518794, 3.443028, 2.744369, -0.233985, -79.412689, -52.084183, -634.177979
1733469371.152404, 4.737826, 6.763769, 0.947206, 3.319645, 2.730072, 0.156982, -78.950546, -52.738831, -635.241394
1733469371.162457, 4.971709, 6.156540, 1.224185, 3.247481, 2.700433, 0.554020, -78.553421, -53.080032, -635.906128
1733469371.172386, 5.020042, 5.423016, 1.451934, 3.200700, 2.696713, 0.948492, -78.269089, -53.608597, -636.712585
1733469371.182395, 4.907365, 4.854394, 2.176030, 3.108728, 2.627925, 1.317138, -77.751099, -53.594147, -637.292419
1733469371.192397, 4.638915, 4.520253, 3.127426, 2.928977, 2.564302, 1.663138, -77.260498, -53.617249, -637.427490
1733469371.202405, 4.248361, 4.334552, 3.697096, 2.716584, 2.544601, 2.030320, -76.915497, -53.227524, -638.348450
1733469371.212394, 3.564817, 4.174291, 4.577714, 2.557017, 2.504250, 2.434636, -76.601807, -52.694458, -638.939026
1733469371.222388, 3.564817, 4.174291, 4.577714, 2.424026, 2.425342, 2.828860, -76.404495, -52.264771, -639.483704
1733469371.232388, 2.839822, 3.613150, 5.422867, 2.315731, 2.295942, 3.235613, -75.901321, -51.485779, -640.626587
1733469371.242396, 2.299930, 3.426402, 5.883451, 2.236724, 2.172820, 3.637591, -75.637543, -50.468704, -641.115845
1733469371.252389, 1.681178, 3.390040, 6.900688, 2.142597, 2.033323, 4.017980, -75.638702, -49.291138, -641.168701
1733469371.262384, 0.888698, 3.210325, 8.213458, 1.954255, 1.856173, 4.379897, -75.290359, -47.898178, -642.526672
1733469371.272388, -0.124498, 2.828600, 9.411906, 1.634944, 1.632854, 4.714769, -74.949966, -46.270721, -642.857971
1733469371.282405, -1.398663, 2.634071, 10.067319, 1.217011, 1.445334, 5.017659, -74.613831, -44.332657, -643.238464
1733469371.292400, -2.741361, 2.489072, 10.590003, 0.733038, 1.364904, 5.294340, -74.124252, -42.494171, -643.937195
1733469371.302389, -4.324227, 2.307861, 11.018565, 0.171658, 1.364730, 5.544816, -73.678726, -40.030807, -644.356323
1733469371.312389, -6.013337, 2.134431, 11.166257, -0.462465, 1.436797, 5.724556, -73.059708, -37.506546, -645.006104
1733469371.322383, -7.681946, 1.707066, 10.791265, -1.135672, 1.531251, 5.825798, -72.415634, -34.709595, -645.505859
1733469371.332388, -9.565733, 0.999130, 10.383204, -1.798527, 1.706889, 5.811303, -71.289154, -31.663177, -645.745728
1733469371.342387, -11.107001, 0.452354, 10.518177, -2.478013, 1.844871, 5.656073, -69.936386, -28.810196, -646.403870
1733469371.352384, -12.400169, 0.417190, 10.452187, -3.136575, 1.751783, 5.410839, -68.469833, -25.952271, -646.077515
1733469371.362384, -13.592332, 1.037138, 10.167426, -3.661574, 1.441709, 5.108531, -67.149277, -22.602097, -646.540955
1733469371.372385, -14.751425, 1.792658, 9.710283, -4.030838, 0.937085, 4.864122, -65.564331, -19.636444, -646.118958
1733469371.382382, -16.770784, 2.534113, 9.011027, -4.313968, 0.383032, 4.660282, -64.113068, -16.834732, -645.271362
1733469371.392398, -19.196410, 3.486855, 8.079533, -4.596943, -0.069156, 4.398989, -62.497726, -13.790283, -643.687134
1733469371.402384, -21.387553, 4.332009, 7.028927, -4.931230, -0.312304, 4.125157, -61.019577, -10.872818, -642.322144
1733469371.412390, -23.730429, 5.427655, 5.938368, -5.408700, -0.262612, 3.828059, -59.490097, -8.276871, -640.339478
1733469371.422395, -25.613469, 6.390124, 4.391265, -6.034125, 0.009019, 3.431003, -58.237961, -5.577606, -638.273926
1733469371.432389, -26.683976, 6.965930, 2.418443, -6.680860, 0.395790, 2.948312, -57.216187, -3.211899, -636.327393
1733469371.442404, -27.808353, 8.263587, 0.485574, -7.231564, 0.634623, 2.366762, -55.926102, -1.097595, -633.592957
1733469371.452389, -28.666974, 9.724349, -1.658733, -7.594595, 0.694326, 1.674682, -55.376526, 0.603531, -630.141541
1733469371.462395, -29.372515, 11.213692, -3.614197, -7.770774, 0.562809, 0.906274, -54.887817, 2.018936, -627.690308
1733469371.472391, -29.995905, 12.958018, -5.878064, -7.752707, 0.232562, 0.100689, -54.965118, 2.826263, -624.733521
1733469371.482390, -29.860483, 14.324509, -8.548347, -7.523618, -0.100444, -0.694485, -55.203278, 3.235672, -621.524170
1733469371.492381, -29.232604, 15.946580, -11.044003, -7.119312, -0.324615, -1.355578, -55.487885, 3.370941, -618.009338
1733469371.502376, -28.442068, 17.073501, -13.354258, -6.622671, -0.368328, -1.838001, -55.999619, 2.980865, -615.606750
1733469371.512382, -27.696424, 18.006192, -15.151556, -6.094395, -0.172816, -2.183462, -56.980591, 2.642792, -612.560059
1733469371.522406, -26.688166, 18.683003, -16.503232, -5.609761, 0.156404, -2.462516, -57.742661, 1.494537, -610.558655
1733469371.532380, -25.301474, 18.511069, -17.654244, -5.088345, 0.484818, -2.656188, -59.023376, 0.644089, -609.177612
1733469371.542386, -24.174105, 18.333898, -18.359187, -4.521793, 0.805958, -2.844568, -60.519699, -0.585342, -607.435730
1733469371.551697, -22.951266, 17.959954, -18.842666, -3.980696, 1.085557, -3.040584, -62.052902, -1.873688, -605.949890
1733469371.562400, -21.707778, 17.404948, -19.186833, -3.466739, 1.323040, -3.264045, -63.406311, -3.094376, -606.291870
1733469371.572382, -20.493768, 17.340903, -19.198953, -2.931176, 1.460110, -3.491355, -64.900131, -4.387405, -605.560181
1733469371.582380, -19.136106, 17.122133, -19.248334, -2.370458, 1.504116, -3.683376, -66.404327, -6.003906, -605.540039
1733469371.592384, -17.973422, 17.043873, -19.397672, -1.825014, 1.556887, -3.824591, -67.861252, -7.479706, -605.768677
1733469371.602374, -16.956933, 16.846052, -19.558682, -1.318103, 1.663900, -3.920567, -69.560684, -8.917236, -606.294250
1733469371.612377, -15.999552, 16.520141, -19.714305, -0.800297, 1.800336, -4.021289, -71.135391, -10.620087, -606.925354
1733469371.622375, -14.923657, 16.607230, -19.327791, -0.251767, 1.922848, -4.135973, -72.573593, -12.207748, -607.571045
1733469371.632375, -13.865869, 16.868647, -18.666393, 0.279309, 1.988624, -4.237408, -73.996048, -14.230850, -608.764160
1733469371.642371, -12.841301, 16.876728, -18.001404, 0.764685, 2.056061, -4.336653, -75.578278, -15.952621, -609.870605
1733469371.652390, -11.715278, 16.886903, -17.172112, 1.190734, 2.133098, -4.451104, -76.750610, -18.150009, -610.645508
1733469371.662374, -10.362703, 17.064972, -16.053122, 1.580779, 2.171377, -4.543966, -78.132446, -20.158005, -612.596558
1733469371.672375, -9.002498, 17.065869, -14.983513, 1.947914, 2.140065, -4.575138, -79.151382, -22.482239, -614.435669
1733469371.682378, -7.642591, 16.756120, -14.002937, 2.294431, 2.064137, -4.559807, -80.276138, -24.546051, -615.564941
1733469371.692369, -6.300641, 16.300623, -13.086108, 2.607928, 1.987707, -4.474742, -80.934738, -26.997589, -617.577820
1733469371.702370, -5.196016, 15.725416, -12.307693, 2.876010, 1.955614, -4.335601, -81.599365, -29.098221, -618.524414
1733469371.712367, -4.074482, 15.125219, -11.726949, 3.104477, 2.010263, -4.150067, -82.148483, -31.427979, -619.713806
1733469371.722368, -2.866308, 14.567819, -11.084106, 3.314822, 2.159992, -3.901730, -82.120422, -33.396790, -621.325928
1733469371.732371, -1.865083, 13.994707, -10.214113, 3.515355, 2.363500, -3.588532, -82.542877, -35.727066, -622.712280
1733469371.742432, -1.176152, 13.388226, -9.185654, 3.700202, 2.577087, -3.251390, -82.543350, -37.733536, -624.136353
1733469371.752366, -0.640000, 12.516437, -8.183980, 3.852519, 2.783608, -2.922440, -82.472565, -39.889404, -625.143921
1733469371.762366, -0.179266, 11.537359, -7.281964, 3.975892, 2.976309, -2.616816, -82.322693, -41.424515, -627.338257
1733469371.772381, 0.264260, 10.572795, -6.111050, 4.089505, 3.144038, -2.331374, -82.231277, -43.243942, -628.749390
1733469371.782393, 0.757017, 9.595960, -4.623503, 4.194035, 3.166120, -2.093420, -82.125229, -44.843597, -630.471680
1733469371.792460, 1.290325, 8.862137, -3.299360, 4.265809, 3.040830, -1.900253, -81.567841, -46.522964, -631.495728
1733469371.802379, 1.862090, 8.420108, -2.050484, 4.320441, 2.809289, -1.705360, -81.157501, -48.023926, -632.643066
1733469371.812367, 2.340033, 7.852981, -1.082778, 4.329257, 2.530677, -1.504872, -80.586517, -49.357788, -633.227051
1733469371.822370, 2.731934, 7.268946, -0.355090, 4.258582, 2.297625, -1.288981, -79.953766, -50.818207, -633.959961
1733469371.832417, 3.104831, 6.714987, 0.356586, 4.116875, 2.142084, -1.055416, -79.706314, -51.912842, -633.985107
1733469371.842374, 3.230377, 6.119280, 0.730980, 3.909886, 2.043465, -0.795838, -79.217789, -53.044922, -634.454041
1733469371.852373, 3.232920, 5.659294, 0.640748, 3.650179, 2.080833, -0.520400, -78.590317, -53.862885, -634.239014
1733469371.862365, 3.236811, 5.208735, 0.288651, 3.404679, 2.235022, -0.206278, -77.866562, -54.573471, -635.617493
1733469371.872429, 3.252673, 4.755184, 0.161758, 3.253058, 2.494273, 0.154596, -77.397369, -55.127365, -636.045532
1733469371.882369, 3.206734, 4.560655, 0.828693, 3.197515, 2.688592, 0.550587, -77.066986, -55.351776, -636.481140
1733469371.892364, 2.994847, 4.402488, 1.675043, 3.171849, 2.720683, 0.939064, -76.859192, -55.561981, -637.347595
1733469371.902411, 2.593519, 4.142268, 2.468572, 3.130179, 2.630156, 1.279386, -76.339752, -55.537018, -637.828003
1733469371.912383, 2.313996, 3.957017, 3.427449, 3.082854, 2.421085, 1.551101, -76.204239, -55.593872, -638.442322
1733469371.922020, 2.268656, 3.871574, 4.182820, 3.007723, 2.082702, 1.787541, -76.135590, -55.461670, -638.583069
1733469371.932361, 2.147300, 3.576488, 4.191649, 2.918622, 1.727061, 2.041009, -76.058777, -55.080246, -638.861450
1733469371.942408, 1.968034, 3.107674, 3.935170, 2.852321, 1.523891, 2.303121, -76.189331, -54.508301, -639.039673
1733469371.952364, 1.772757, 2.835483, 4.077325, 2.867318, 1.456780, 2.628779, -75.935608, -54.212921, -638.397827
1733469371.962364, 1.307982, 2.575114, 4.885518, 2.894578, 1.499154, 2.986400, -75.849365, -53.098038, -639.461914
1733469371.972362, 0.803853, 2.369212, 6.159533, 2.814128, 1.565990, 3.337289, -75.926926, -52.356979, -639.593689
1733469371.982363, 0.296731, 2.176180, 7.777863, 2.563559, 1.622418, 3.646409, -75.971481, -51.252975, -640.065430
1733469371.992359, -0.244059, 1.968483, 9.346215, 2.132382, 1.559613, 3.889030, -76.195557, -49.926575, -640.346497
1733469372.002360, -0.898574, 1.893215, 10.279654, 1.591319, 1.381589, 4.106643, -75.850281, -48.140839, -640.893250
1733469372.012381, -1.628955, 1.828123, 10.543166, 1.045619, 1.177855, 4.336203, -75.455475, -46.490997, -641.477295
1733469372.022371, -2.777124, 1.618480, 10.319308, 0.543307, 1.055327, 4.599537, -75.311798, -44.310577, -641.840271
1733469372.032373, -4.299687, 1.449988, 9.951798, 0.064391, 1.096584, 4.834599, -74.902237, -42.154419, -642.120972
1733469372.042369, -5.508459, 1.100734, 9.847950, -0.438150, 1.258158, 5.007998, -74.577896, -39.698669, -642.993652
1733469372.052416, -6.420501, 0.515651, 9.787945, -0.966618, 1.379747, 5.129408, -73.970840, -37.128998, -642.884766
1733469372.062381, -7.466168, 0.664541, 9.607183, -1.449044, 1.402829, 5.195540, -73.128891, -34.343460, -644.090210
1733469372.072383, -8.719383, 0.583437, 9.776274, -1.823079, 1.317098, 5.226406, -72.417419, -31.378189, -644.224670
1733469372.082366, -10.093056, 0.474950, 10.268132, -2.183507, 1.091298, 5.187647, -71.070587, -28.529419, -644.268616
1733469372.092415, -11.592874, 0.934786, 10.490045, -2.566892, 0.809664, 5.137169, -70.218124, -25.733856, -644.165466
1733469372.102365, -13.338696, 1.136947, 10.605864, -2.960545, 0.545086, 5.086198, -69.013840, -22.745819, -643.705811
1733469372.112361, -15.194801, 1.475876, 10.411485, -3.406789, 0.342268, 4.969915, -67.897385, -19.946228, -643.155884
1733469372.122358, -16.714520, 2.230049, 10.055647, -3.943107, 0.292032, 4.794775, -66.180069, -16.826385, -642.162048
1733469372.132364, -18.388666, 3.100042, 9.721955, -4.543757, 0.323387, 4.636232, -64.608093, -13.805481, -641.081116
1733469372.142366, -20.459800, 3.750367, 8.920047, -5.146278, 0.320337, 4.442740, -63.510712, -11.049057, -639.567078
1733469372.152359, -22.485295, 4.067449, 7.711873, -5.689920, 0.297320, 4.151107, -62.296463, -8.419083, -637.129944
1733469372.162380, -24.194306, 4.466682, 6.394763, -6.195176, 0.234098, 3.734885, -60.740479, -5.711060, -635.586792
1733469372.172374, -25.723153, 5.625027, 5.051167, -6.659038, 0.088967, 3.205452, -59.986145, -3.540054, -632.815552
1733469372.182365, -27.306020, 7.259818, 3.684826, -7.049302, -0.241003, 2.633569, -58.692551, -1.759613, -630.284851
1733469372.192365, -29.500305, 9.386468, 1.749713, -7.360255, -0.712065, 2.018566, -57.908478, -0.295547, -626.530640
1733469372.202362, -32.165650, 11.896938, -1.050157, -7.584457, -1.089339, 1.389107, -57.307236, 0.721115, -623.239746
1733469372.212354, -34.575265, 13.794343, -4.518307, -7.746520, -1.203051, 0.699317, -57.456009, 1.452927, -619.149536
1733469372.222358, -35.743186, 15.429433, -8.646959, -7.832253, -0.980902, -0.056004, -57.515350, 1.545334, -616.174927
1733469372.232357, -35.450495, 16.919823, -12.433239, -7.752912, -0.522222, -0.781094, -58.004654, 1.158096, -613.052185
1733469372.242358, -34.121713, 17.159842, -15.827020, -7.429497, -0.129569, -1.405199, -59.120789, 0.388443, -610.263916
1733469372.252353, -32.848447, 16.544532, -19.312229, -6.756175, 0.072057, -1.925995, -60.060989, -0.707458, -607.959412
1733469372.262360, -31.487193, 16.051626, -21.579688, -5.744984, 0.259583, -2.417435, -61.514908, -1.872177, -606.931641
1733469372.272369, -29.846417, 15.754146, -21.822699, -4.671984, 0.340091, -2.840180, -62.872955, -3.158905, -605.509644
1733469372.282359, -28.386852, 15.725865, -21.199608, -3.740754, 0.353639, -3.217359, -64.255997, -4.732681, -604.734009
1733469372.292370, -26.703429, 15.708806, -20.288465, -3.013022, 0.387002, -3.535256, -65.758545, -6.046448, -604.264771
1733469372.302354, -25.145253, 15.451429, -19.239505, -2.443897, 0.480858, -3.764368, -67.211502, -7.856262, -603.896118
1733469372.312359, -23.815423, 14.859014, -18.213590, -1.993411, 0.614872, -3.921845, -68.627609, -9.405685, -603.818115
1733469372.322360, -22.752996, 14.528016, -17.461511, -1.645286, 0.778406, -4.072790, -70.144897, -11.391891, -603.956604
1733469372.332355, -21.667076, 14.407108, -17.219847, -1.361732, 0.983194, -4.247904, -70.144897, -11.391891, -603.956604
1733469372.342364, -20.537761, 14.275876, -17.185131, -1.097340, 1.224518, -4.456787, -72.100143, -13.363373, -604.303040
1733469372.352353, -19.230677, 14.191930, -17.056592, -0.814985, 1.532906, -4.704441, -73.678223, -15.499344, -604.976440
1733469372.362411, -17.552341, 14.289793, -16.662596, -0.466460, 1.780630, -4.954055, -75.238831, -17.860947, -605.152466
1733469372.372344, -15.684565, 14.476840, -15.887623, -0.029037, 1.893845, -5.162665, -76.675568, -20.119080, -606.699158
1733469372.381582, -13.920487, 14.780903, -14.845098, 0.452222, 1.859749, -5.317145, -78.241745, -22.876587, -608.034485
1733469372.392361, -12.350040, 15.208119, -13.798532, 0.918500, 1.743665, -5.418951, -79.232010, -25.318924, -608.736084
1733469372.402377, -10.765079, 15.588048, -12.732364, 1.337180, 1.636079, -5.461357, -80.375000, -27.869507, -610.014343
1733469372.412357, -9.279477, 15.693842, -11.764957, 1.661375, 1.571999, -5.429837, -81.367188, -30.563553, -611.284668
1733469372.422351, -7.819014, 15.522507, -11.013328, 1.900632, 1.588517, -5.333081, -82.202728, -33.251038, -611.756592
1733469372.432353, -6.306776, 15.179687, -10.503812, 2.256801, 1.816336, -4.937834, -82.405426, -35.771912, -612.532166
1733469372.442352, -4.879533, 14.769531, -10.317363, 2.440557, 2.066424, -4.640873, -82.798447, -38.305984, -613.688538
1733469372.452122, -3.494936, 14.143148, -10.163087, 2.440557, 2.066424, -4.640873, -82.898941, -40.812500, -614.759033
1733469372.462353, -2.335095, 13.448380, -9.927258, 2.839559, 2.783136, -3.884948, -83.103455, -43.106171, -615.795105
1733469372.472359, -1.468843, 12.619238, -9.629778, 3.078697, 3.192901, -3.495426, -83.275818, -45.124619, -617.100708
1733469372.482356, -0.730232, 11.842919, -8.949227, 3.363528, 3.454935, -3.116146, -83.164291, -47.085922, -618.744751
1733469372.492347, 0.101305, 11.192743, -7.264157, 3.654101, 3.454713, -2.758451, -82.920547, -48.865387, -620.377563
1733469372.502348, 0.886453, 10.613197, -5.341913, 3.876450, 3.258013, -2.431234, -82.753708, -50.557434, -621.735413
1733469372.512342, 1.472434, 10.009409, -3.916016, 4.026773, 3.006997, -2.134777, -82.470459, -52.327179, -622.949219
1733469372.521375, 1.828721, 9.562142, -2.786402, 4.026773, 3.006997, -2.134777, -81.964233, -53.605301, -623.836426
1733469372.532366, 2.187253, 9.084499, -1.938705, 4.119096, 2.662329, -1.567663, -81.513962, -54.806747, -624.434692
1733469372.542358, 2.504485, 8.411429, -0.927753, 4.054171, 2.545429, -1.299144, -81.146423, -55.927277, -625.139282
1733469372.551833, 2.766799, 7.742399, 0.050428, 4.054171, 2.545429, -1.299144, -80.568634, -57.009781, -625.429443
1733469372.562344, 3.151817, 7.094917, 0.776320, 3.772858, 2.393983, -0.744233, -80.212509, -58.001511, -626.231934
1733469372.572342, 3.617938, 6.483947, 1.236306, 3.618548, 2.406872, -0.414666, -79.957031, -58.656296, -626.769409
1733469372.582342, 4.050840, 6.057629, 1.484704, 3.469436, 2.526027, -0.046626, -79.731415, -59.149689, -626.914551
1733469372.592343, 4.262876, 5.707477, 1.890372, 3.284370, 2.666238, 0.337178, -79.326263, -59.648041, -627.447693
1733469372.602348, 4.363582, 5.267842, 2.484583, 3.122427, 2.768642, 0.735146, -79.031754, -59.621979, -628.152161
1733469372.612347, 4.566491, 4.860379, 3.342754, 2.986662, 2.739725, 1.148982, -78.783493, -59.792160, -628.702942
1733469372.621716, 4.733486, 4.582203, 4.563797, 2.863663, 2.507588, 1.571466, -78.910065, -59.580673, -629.311768
1733469372.632338, 4.711639, 4.260332, 5.639093, 2.768474, 2.182650, 2.006535, -78.781906, -59.177856, -629.743164
1733469372.642347, 4.441394, 3.937863, 6.124368, 2.715682, 1.889221, 2.443651, -78.590057, -58.375000, -630.023987
1733469372.652339, 4.044256, 3.498677, 6.400749, 2.634475, 1.695537, 2.877505, -78.710541, -57.575134, -630.637085
1733469372.662350, 3.383456, 3.075502, 6.600365, 2.499371, 1.681184, 3.272184, -78.993484, -56.456635, -630.569763
1733469372.672337, 2.605191, 2.506879, 6.759729, 2.286780, 1.812306, 3.608899, -79.401413, -55.183685, -631.299316
1733469372.682371, 1.743727, 1.641674, 7.365312, 1.959013, 1.962540, 3.876902, -79.316895, -53.960007, -631.678650
1733469372.692346, 0.918326, 0.926556, 8.454076, 1.537428, 2.003117, 4.093123, -79.415710, -52.333817, -632.482239
1733469372.702336, 0.149039, 0.449062, 9.469816, 1.113425, 1.907687, 4.288862, -79.681519, -50.521408, -632.972595
1733469372.712340, -0.768239, 0.167744, 9.899874, 0.738826, 1.801232, 4.486143, -79.550598, -48.461182, -633.814514
1733469372.722335, -1.901146, 0.057610, 10.129867, 0.381284, 1.693783, 4.669514, -79.253159, -46.406036, -634.720947
1733469372.732334, -3.012205, 0.033369, 10.321852, 0.013993, 1.644757, 4.851709, -79.170471, -44.198837, -635.587646
1733469372.742338, -3.872621, 0.336984, 10.222493, -0.351459, 1.660434, 5.058245, -78.415207, -41.999542, -635.923340
1733469372.752335, -4.591181, 0.713921, 10.488100, -0.766811, 1.647718, 5.263829, -78.042282, -39.363037, -636.731934
1733469372.762335, -5.626823, 0.932990, 11.066449, -1.234488, 1.597102, 5.434011, -77.350189, -36.463913, -637.911804
1733469372.772347, -6.918495, 1.059434, 11.569680, -1.743401, 1.505171, 5.590532, -76.577682, -33.580170, -638.253296
1733469372.782342, -8.465149, 0.716315, 12.144289, -2.328888, 1.397937, 5.678995, -75.453445, -30.559708, -638.547302
1733469372.792362, -10.546608, 0.604686, 12.426356, -2.960373, 1.352596, 5.662576, -74.191879, -27.364990, -638.822021
1733469372.802342, -12.776508, 0.893785, 12.234969, -3.616030, 1.349689, 5.523949, -73.019623, -24.379135, -638.864441
1733469372.812334, -14.643386, 1.099537, 11.870452, -4.252233, 1.303542, 5.349140, -71.525681, -21.127640, -639.157837
1733469372.822333, -16.166398, 1.978059, 11.104457, -4.771373, 1.207591, 5.182752, -69.630997, -17.783020, -638.162231
1733469372.831988, -17.986290, 3.135357, 10.072257, -5.198226, 1.069778, 4.968002, -67.807831, -14.639297, -637.697937
1733469372.842340, -19.819950, 3.875464, 9.254637, -5.617753, 0.917702, 4.746433, -66.059006, -11.522781, -636.553955
1733469372.852340, -22.162975, 4.981585, 8.397363, -6.114161, 0.875200, 4.382419, -64.228394, -8.705078, -634.629517
1733469372.862335, -25.502587, 6.093094, 7.229890, -6.705318, 0.869622, 3.748960, -62.501480, -6.070114, -632.723999
1733469372.872341, -28.516887, 6.692243, 5.705682, -7.270692, 0.765665, 2.865038, -61.336761, -3.852036, -630.807007
1733469372.882389, -30.632314, 7.272836, 3.578583, -7.675934, 0.486046, 1.838192, -60.199493, -2.064590, -628.175049
1733469372.892355, -31.880740, 8.504055, 1.047314, -7.854937, 0.063770, 0.817006, -59.589905, -0.744980, -624.953979
1733469372.902335, -32.121358, 10.473585, -1.939154, -7.809725, -0.272900, -0.032969, -59.211166, 0.126312, -621.670654
1733469372.912347, -31.948526, 13.044808, -4.986673, -7.641819, -0.478806, -0.682833, -58.955215, 0.477554, -617.803223
1733469372.922352, -31.759684, 15.292664, -8.292916, -7.319733, -0.401669, -1.138110, -59.171860, 0.317627, -614.822144
1733469372.932342, -30.952089, 16.265009, -12.065879, -6.823841, -0.013141, -1.422376, -59.797668, -0.044434, -612.311951
1733469372.942333, -29.821577, 16.822409, -15.058182, -6.239973, 0.470965, -1.595273, -60.254074, -0.736374, -610.075806
1733469372.952328, -29.007998, 16.918327, -16.714071, -5.601391, 0.824768, -1.809911, -61.375793, -1.319046, -607.217651
1733469372.962334, -28.595896, 16.082002, -17.896059, -4.904962, 1.052263, -2.130787, -62.259460, -2.661987, -606.455261
1733469372.972387, -28.232725, 15.507543, -18.596363, -4.246985, 1.148059, -2.548282, -63.365784, -3.725418, -605.519348
1733469372.982334, -27.729195, 15.662269, -18.746300, -3.678847, 1.154247, -3.045760, -64.771606, -5.151810, -605.044250
1733469372.992324, -26.568306, 15.788114, -19.080740, -3.131011, 1.165858, -3.495112, -66.209473, -6.509094, -604.189392
1733469373.002322, -24.886679, 16.073174, -19.519926, -2.557188, 1.241214, -3.831553, -67.834961, -8.184433, -604.024597
1733469373.012333, -23.200562, 15.882984, -19.938163, -1.971876, 1.420163, -4.110581, -69.377655, -9.803009, -603.940125
1733469373.022334, -21.549461, 15.868918, -20.118925, -1.416190, 1.635526, -4.319204, -70.891861, -11.671219, -604.279785
1733469373.032344, -19.681235, 16.117766, -19.742288, -0.887934, 1.831029, -4.460431, -72.460968, -13.742126, -605.131348
1733469373.042325, -17.822288, 16.179716, -19.044378, -0.409993, 2.007138, -4.554204, -74.332001, -15.535568, -605.818481
1733469373.052323, -16.098462, 16.152182, -18.268806, 0.023676, 2.156929, -4.599741, -75.616257, -17.616699, -606.292358
1733469373.062360, -14.418780, 16.370803, -17.431284, 0.451253, 2.267161, -4.575927, -77.112579, -19.667160, -607.976746
1733469373.072336, -12.778902, 16.448465, -16.788890, 0.890340, 2.335882, -4.522584, -78.326859, -21.855713, -609.499146
1733469373.082327, -11.396250, 16.218472, -16.209493, 1.352653, 2.364236, -4.473290, -79.625778, -23.891068, -611.137207
1733469373.092320, -10.124331, 16.017808, -15.369877, 1.827688, 2.294958, -4.427251, -80.711685, -26.065689, -611.882080
1733469373.102317, -8.838794, 15.820286, -14.362516, 2.281506, 2.171725, -4.368576, -81.512772, -28.316147, -614.104736
1733469373.112369, -7.677606, 15.601965, -13.451523, 2.695558, 2.103781, -4.287211, -82.106262, -30.527695, -614.776367
1733469373.122340, -6.482600, 15.439608, -12.545916, 3.037355, 2.096525, -4.137837, -82.787445, -32.699112, -616.160217
1733469373.132325, -5.167136, 15.159337, -11.696124, 3.318459, 2.200225, -3.910600, -82.794159, -34.943863, -617.621216
1733469373.142317, -3.802441, 14.692168, -11.128100, 3.555198, 2.439297, -3.600174, -83.087311, -37.044922, -618.711426
1733469373.152323, -2.631377, 14.146290, -10.439767, 3.752309, 2.736880, -3.230191, -83.356979, -38.945297, -619.584229
1733469373.162324, -1.744924, 13.542203, -9.608979, 3.937430, 3.032789, -2.834754, -83.108871, -40.889191, -621.735168
1733469373.172320, -0.922217, 12.846239, -8.496573, 4.139982, 3.164811, -2.435927, -83.340179, -42.499252, -623.406494
1733469373.182320, -0.279074, 12.176161, -6.978948, 4.356037, 3.114927, -2.068235, -83.136414, -44.057999, -624.876404
1733469373.192320, 0.196025, 11.445182, -5.549161, 4.540893, 2.948410, -1.759979, -82.890976, -45.609421, -626.581299
1733469373.202365, 0.504129, 10.428544, -4.479701, 4.671135, 2.800358, -1.515054, -82.435410, -46.907089, -627.499084
1733469373.212314, 0.766593, 9.384223, -3.803788, 4.738095, 2.781548, -1.310575, -82.230957, -48.350494, -628.663391
1733469373.222317, 1.037737, 8.525453, -3.277812, 4.770063, 2.871169, -1.110441, -81.750854, -49.572952, -629.480957
1733469373.232368, 1.361553, 8.057985, -2.402132, 4.767510, 2.966944, -0.872360, -81.505920, -50.607391, -630.324585
1733469373.242316, 1.824681, 7.678354, -1.285537, 4.702976, 3.022958, -0.608021, -80.967087, -51.679703, -631.333008
1733469373.252313, 2.295441, 7.097312, -0.156072, 4.605967, 3.028515, -0.328646, -80.415939, -52.615967, -631.344360
1733469373.262359, 2.762161, 6.413617, 0.945560, 4.501585, 2.987703, -0.032670, -79.946594, -53.353836, -632.954468
1733469373.272324, 3.105728, 5.946598, 2.179472, 4.350274, 2.874913, 0.273253, -79.360703, -54.169083, -633.675659
1733469373.282330, 3.307290, 5.412542, 3.453636, 4.141668, 2.704626, 0.591345, -79.154404, -54.535736, -634.473083
1733469373.292326, 3.535637, 4.953454, 4.646098, 3.875988, 2.497210, 0.925917, -78.924057, -54.722153, -634.731812
1733469373.302366, 3.544915, 4.554669, 5.563676, 3.569321, 2.306504, 1.246514, -78.506439, -54.857376, -634.939514
1733469373.312317, 3.357868, 4.071190, 6.201730, 3.243627, 2.152297, 1.547100, -78.265808, -54.764786, -635.449097
1733469373.322322, 3.220052, 3.655048, 6.516568, 2.953605, 2.057254, 1.867930, -77.936539, -54.399933, -635.739624
1733469373.332364, 3.025223, 3.171719, 6.547992, 2.705804, 2.004705, 2.174294, -77.939621, -53.988281, -636.599365
1733469373.342315, 2.765453, 2.485930, 6.788310, 2.465645, 1.966621, 2.447996, -77.985809, -53.282303, -637.216370
1733469373.352322, 2.424877, 1.847276, 7.195324, 2.197195, 1.932031, 2.669878, -77.786530, -52.727386, -637.023499
1733469373.362375, 2.124555, 1.218948, 7.805097, 1.906458, 1.845472, 2.876272, -77.513519, -51.705276, -638.245605
1733469373.372312, 1.916858, 0.702549, 8.361899, 1.603002, 1.759003, 3.076382, -77.541061, -50.494553, -638.556946
1733469373.382311, 1.556231, 0.380080, 8.754398, 1.312342, 1.647754, 3.298258, -77.158218, -49.263168, -639.382996
1733469373.392313, 1.246481, 0.423175, 9.129241, 1.051034, 1.530193, 3.584964, -77.035034, -47.834259, -639.975586
1733469373.402323, 0.838270, 0.402376, 9.456348, 0.761215, 1.426611, 3.886051, -76.585388, -46.163727, -640.528564
1733469373.412317, 0.278326, 0.494403, 9.922918, 0.422913, 1.333449, 4.204719, -76.505005, -44.289276, -640.765442
1733469373.422311, -0.473902, 0.854880, 10.250625, 0.073024, 1.286983, 4.515928, -76.135178, -42.256241, -641.450745
1733469373.432314, -1.472584, 0.864456, 10.608857, -0.337538, 1.256136, 4.782276, -75.441849, -40.127609, -641.926819
1733469373.442324, -2.714276, 0.768838, 11.296292, -0.851523, 1.207837, 5.001178, -75.058807, -37.476288, -642.512390
1733469373.452310, -4.132542, 0.764349, 11.764658, -1.422715, 1.175491, 5.190869, -74.085587, -34.850067, -642.086060
1733469373.462326, -5.616947, 0.937929, 11.683405, -1.976850, 1.200175, 5.389402, -72.841751, -31.876083, -643.320435
1733469373.472329, -7.102848, 1.626561, 11.178976, -2.458936, 1.308014, 5.617831, -71.780029, -28.874191, -643.642578
1733469373.482313, -8.858546, 2.317138, 10.639982, -2.914731, 1.482636, 5.829596, -70.276459, -25.430176, -643.703796
1733469373.492313, -11.010634, 2.782362, 10.588955, -3.449318, 1.653418, 5.917976, -68.707336, -22.044373, -643.943481
1733469373.502308, -13.203723, 2.875586, 10.714950, -4.080019, 1.774241, 5.891621, -66.616821, -18.847214, -643.532532
1733469373.512358, -15.430779, 2.688090, 10.749816, -4.786041, 1.810381, 5.742727, -64.684967, -15.389999, -642.884888
1733469373.521357, -18.408568, 2.855834, 10.276213, -5.485013, 1.834189, 5.376330, -62.562744, -11.871445, -642.172913
1733469373.532313, -22.009746, 3.188029, 9.244013, -6.191536, 1.843778, 4.724617, -60.647797, -8.726593, -640.722229
1733469373.542320, -25.557355, 3.755305, 8.040178, -6.848887, 1.714269, 3.801257, -59.022369, -6.131302, -638.388428
1733469373.552318, -28.127081, 4.643404, 5.973982, -7.315217, 1.414137, 2.781759, -57.681900, -3.865021, -635.596191
1733469373.562323, -29.439104, 5.863699, 3.524564, -7.552488, 0.952329, 1.789352, -56.932053, -1.914948, -633.860352
1733469373.572317, -30.237121, 7.599046, 0.927753, -7.612378, 0.513991, 0.869830, -56.261002, -0.076553, -630.581787
1733469373.582329, -30.569167, 9.335142, -1.704971, -7.599162, 0.179372, 0.057205, -55.988480, 0.914078, -627.254517
1733469373.592323, -30.774919, 11.490372, -4.184466, -7.562422, -0.010801, -0.656868, -56.351166, 1.736954, -623.921631
1733469373.602309, -30.790780, 13.770849, -6.698078, -7.515241, -0.010221, -1.277256, -56.768906, 1.820175, -620.608521
1733469373.611735, -30.375835, 15.509938, -9.422680, -7.467752, 0.181568, -1.831177, -57.531616, 1.713852, -618.122803
1733469373.622329, -29.759029, 17.109713, -12.074109, -7.327226, 0.407389, -2.332440, -58.684464, 1.205078, -614.978394
1733469373.632301, -28.959515, 18.309657, -14.984710, -6.979007, 0.689546, -2.776276, -59.781937, 0.466446, -612.528198
1733469373.642310, -27.835138, 19.167978, -17.968932, -6.420248, 0.986269, -3.120691, -61.487915, -0.775742, -609.948975
1733469373.651880, -26.162489, 19.828928, -20.387675, -5.700933, 1.210562, -3.365780, -63.037476, -1.991592, -608.966003
1733469373.662319, -24.749461, 20.554221, -22.120029, -4.881076, 1.349112, -3.568764, -64.287399, -3.672073, -607.343567
1733469373.672471, -23.390752, 21.052365, -23.543232, -3.993358, 1.498708, -3.691549, -66.029129, -5.056595, -606.717896
1733469373.682434, -21.770925, 20.880282, -24.916756, -3.056223, 1.713048, -3.770134, -67.795670, -6.624496, -607.655762
1733469373.692361, -20.247165, 19.957167, -25.579800, -2.089047, 1.895523, -3.831344, -69.321350, -8.255325, -607.354553
1733469373.701994, -18.706795, 19.091663, -25.435101, -1.136545, 2.049223, -3.894053, -71.041473, -9.836121, -609.269897
1733469373.712350, -17.330578, 18.285865, -24.334067, -0.282951, 2.104776, -4.007059, -72.601273, -11.458496, -609.622742
1733469373.722325, -16.104597, 17.332224, -22.517018, 0.439995, 2.131711, -4.163415, -74.057892, -13.318283, -610.721558
1733469373.732333, -14.950592, 16.697911, -20.898986, 1.019601, 2.303259, -4.321980, -74.057892, -13.318283, -610.721558
1733469373.742322, -11.751191, 15.576377, -17.540221, 1.442496, 2.571001, -4.441214, -76.956543, -17.432495, -614.095337
1733469373.751954, -11.751191, 15.576377, -17.540221, 1.778720, 2.850986, -4.478919, -76.956543, -17.432495, -614.095337
1733469373.762305, -8.339154, 15.425243, -14.319720, 2.097809, 3.043575, -4.430120, -79.204697, -21.719543, -618.686462
1733469373.772317, -6.867767, 15.289671, -12.891579, 2.425524, 3.103539, -4.358899, -80.141373, -24.272247, -619.885498
1733469373.782313, -5.306149, 15.097985, -11.093982, 2.777758, 2.963007, -4.247349, -80.141373, -24.272247, -619.885498
1733469373.792313, -4.012981, 14.695759, -9.356091, 3.138313, 2.552615, -4.115155, -80.947189, -26.258621, -622.368408
1733469373.801958, -2.833388, 14.098406, -8.266580, 3.427778, 2.075758, -3.984428, -81.311523, -28.836945, -623.259521
1733469373.812310, -1.888427, 13.272556, -7.541586, 3.605528, 1.684841, -3.822677, -81.822922, -30.996689, -625.416809
1733469373.822306, -1.183633, 12.301707, -7.445818, 3.688122, 1.464596, -3.652315, -82.115326, -33.143707, -626.197632
1733469373.832304, -0.341623, 11.488876, -7.637204, 3.719532, 1.539417, -3.450708, -82.367477, -35.284454, -626.247498
1733469373.842312, 0.690727, 10.869077, -7.195474, 3.758391, 1.782448, -3.197754, -82.278503, -37.395828, -628.303711
1733469373.851967, 1.774552, 10.308385, -6.472425, 3.812253, 2.040172, -2.886213, -82.461853, -39.434921, -628.869873
1733469373.862319, 2.705747, 9.738266, -5.728876, 3.866543, 2.274464, -2.525370, -81.974228, -41.693542, -630.339355
1733469373.871695, 3.393781, 9.264363, -4.949862, 3.900570, 2.511185, -2.115226, -81.883102, -43.221924, -631.351807
1733469373.882307, 3.895965, 8.872313, -3.946692, 3.922787, 2.736284, -1.672225, -81.361511, -44.873795, -631.781555
1733469373.892316, 4.368819, 8.684967, -2.558354, 3.960292, 2.856011, -1.197945, -80.865997, -46.151672, -633.583130
1733469373.901978, 4.743063, 8.348581, -1.114651, 4.004230, 2.789829, -0.713868, -80.266632, -47.570023, -634.195801
1733469373.912316, 4.874595, 7.738509, -0.152331, 3.992903, 2.644411, -0.237435, -79.835968, -48.399826, -635.530884
1733469373.922303, 4.792892, 7.085789, 0.754024, 3.898147, 2.529320, 0.222075, -79.255768, -49.320862, -636.505493
1733469373.932310, 4.540155, 6.306178, 1.307683, 3.713891, 2.421687, 0.658707, -78.809189, -49.691177, -637.119324
1733469373.942303, 4.178032, 5.316624, 1.459116, 3.492531, 2.384751, 1.045297, -78.622726, -50.337814, -636.965698
1733469373.951991, 3.854665, 4.550180, 1.628656, 3.296705, 2.382491, 1.380601, -77.917587, -50.393570, -638.380188
1733469373.962305, 3.692906, 3.869329, 2.052579, 3.153558, 2.360353, 1.679524, -77.754669, -50.458435, -639.312256
1733469373.972301, 3.463811, 3.063082, 2.923769, 3.056956, 2.231847, 1.971416, -77.350967, -50.231964, -640.196655
1733469373.982302, 2.961627, 2.616264, 3.753510, 2.975161, 1.974132, 2.229790, -77.052994, -50.291809, -639.800171
1733469373.992299, 2.333150, 2.355446, 4.335301, 2.905472, 1.661332, 2.453514, -76.798370, -49.815079, -641.015076
1733469374.001991, 1.708263, 2.051083, 4.968268, 2.834203, 1.397405, 2.668283, -76.300430, -49.518768, -640.567322
1733469374.012298, 1.218798, 1.832761, 5.914127, 2.706812, 1.166616, 2.867138, -76.515442, -48.687424, -640.826355
1733469374.022303, 0.768090, 1.720533, 6.822727, 2.506226, 0.920481, 3.062557, -76.116013, -48.163620, -641.729248
1733469374.032312, 0.253336, 1.575385, 7.480384, 2.255078, 0.676109, 3.276010, -76.220749, -47.226654, -641.012085
1733469374.042303, -0.200963, 1.445050, 7.896825, 1.976415, 0.465775, 3.511641, -76.041260, -46.250946, -641.633057
1733469374.052003, -0.736965, 1.255609, 8.016984, 1.697076, 0.340275, 3.800318, -75.879929, -44.910919, -641.021179
1733469374.062300, -1.403900, 0.688333, 8.184728, 1.420713, 0.341746, 4.118207, -75.983780, -43.683395, -641.482849
1733469374.072300, -2.153135, 0.279373, 8.523358, 1.088036, 0.410405, 4.423477, -75.973846, -41.741333, -641.729492
1733469374.081748, -3.318364, 0.181660, 8.863035, 0.692508, 0.574935, 4.724051, -75.702011, -39.951721, -641.569153
1733469374.092299, -5.011513, -0.179715, 9.636961, 0.239899, 0.824999, 4.975160, -75.085861, -37.793716, -642.744446
1733469374.102010, -6.632238, -0.438737, 10.589853, -0.345611, 1.099881, 5.121753, -74.440491, -35.610474, -642.626587
1733469374.111850, -7.875876, -0.316334, 11.112537, -1.074973, 1.320636, 5.167794, -73.651428, -32.931244, -642.955688
1733469374.122295, -8.638579, -0.026336, 10.851420, -1.837585, 1.477032, 5.180265, -72.846649, -30.145386, -643.939209
1733469374.132315, -9.412056, 0.200514, 10.423307, -2.497765, 1.501043, 5.192092, -71.353394, -27.565216, -643.544373
1733469374.142294, -10.499921, 0.402824, 9.948207, -3.012321, 1.322020, 5.180682, -69.862259, -24.668335, -644.308960
1733469374.152029, -12.004228, 0.929250, 9.131186, -3.397460, 0.997669, 5.154602, -68.527328, -21.739471, -643.804504
1733469374.162322, -13.982886, 1.286285, 8.276306, -3.667518, 0.656804, 5.065242, -67.462433, -18.751343, -642.896912
1733469374.172292, -16.299725, 1.493084, 7.658004, -3.898881, 0.386893, 4.878766, -65.792496, -15.694870, -642.874573
1733469374.182291, -18.899828, 1.509095, 7.356334, -4.246686, 0.321525, 4.612075, -63.881058, -12.839218, -641.136047
1733469374.192298, -21.449503, 1.697339, 6.793697, -4.770163, 0.428739, 4.244378, -62.371552, -10.152969, -640.239502
1733469374.202022, -23.739407, 2.464382, 6.022614, -5.404165, 0.621079, 3.751962, -60.993500, -7.701065, -638.096497
1733469374.212007, -25.409662, 3.333028, 4.613627, -6.030494, 0.760975, 3.159592, -59.507095, -5.284271, -636.668579
1733469374.222303, -26.682031, 4.102465, 2.818424, -6.497709, 0.762962, 2.467987, -58.684525, -3.106476, -633.909424
1733469374.232291, -27.758673, 5.519832, 1.032649, -6.747535, 0.572741, 1.723015, -57.737259, -1.514343, -632.382324
1733469374.242342, -28.944851, 7.114370, -0.255132, -6.861331, 0.248208, 0.927869, -57.217209, -0.311005, -629.094238
1733469374.252034, -29.594577, 8.610297, -2.152088, -6.930153, -0.243119, 0.071874, -57.417938, 0.891479, -626.432373
1733469374.262286, -29.528587, 10.394127, -4.678719, -6.914322, -0.611163, -0.732314, -57.300507, 1.359680, -623.116699
1733469374.272303, -29.533226, 13.159729, -6.682217, -6.864007, -0.758879, -1.422092, -57.645676, 1.376205, -619.496826
1733469374.282287, -29.318795, 16.013618, -8.831312, -6.824550, -0.837239, -2.015899, -58.551529, 1.210632, -616.869385
1733469374.292337, -28.444911, 18.000955, -11.725902, -6.704098, -0.813778, -2.471831, -59.463760, 0.601471, -614.300537
1733469374.302283, -27.188704, 19.309536, -14.699351, -6.438289, -0.590028, -2.773777, -60.319321, -0.279526, -610.589722
1733469374.312306, -25.643097, 19.530101, -17.526155, -6.034923, -0.272046, -2.940739, -61.625031, -1.465424, -609.338135
1733469374.322291, -24.198196, 19.174712, -20.263475, -5.451497, 0.128777, -3.005849, -63.110596, -2.714340, -607.221191
1733469374.332328, -22.965482, 18.529924, -21.999870, -4.717421, 0.615272, -3.042646, -64.131699, -3.992950, -606.239380
1733469374.342283, -21.668124, 17.965790, -22.621764, -3.903598, 1.043125, -3.093762, -65.571167, -5.787979, -605.122009
1733469374.352279, -20.553772, 17.547403, -22.507890, -3.085196, 1.363257, -3.141466, -67.179337, -6.943481, -605.338257
1733469374.362279, -19.573945, 16.859968, -22.193800, -2.301265, 1.585307, -3.223548, -68.588135, -8.406067, -605.090942
1733469374.372290, -18.681058, 16.217275, -21.698350, -1.547800, 1.741285, -3.353664, -69.802841, -9.825531, -605.876343
1733469374.382297, -17.654544, 15.791406, -20.900333, -0.824263, 1.884626, -3.524220, -71.518951, -11.329941, -605.769897
1733469374.392292, -16.413300, 15.611691, -19.707272, -0.182657, 2.003986, -3.709334, -72.982697, -12.698685, -607.228333
1733469374.402282, -15.032444, 15.474773, -18.572870, 0.356714, 2.105951, -3.873757, -74.301956, -14.571060, -608.426086
1733469374.412287, -13.682264, 15.221885, -17.305439, 0.844869, 2.187665, -4.023827, -75.913116, -16.330902, -610.158936
1733469374.422324, -12.257564, 14.862007, -15.953763, 1.288707, 2.180574, -4.177176, -77.134232, -18.223267, -611.277954
1733469374.432281, -10.821043, 14.444368, -14.862905, 1.685667, 2.088973, -4.312134, -78.378922, -20.161819, -612.332764
1733469374.442278, -9.518448, 14.204499, -13.964181, 2.041445, 2.024289, -4.414392, -79.459152, -22.323868, -614.244873
1733469374.451290, -8.185775, 14.028376, -12.878411, 2.356346, 1.994170, -4.462523, -80.410690, -24.462982, -616.071045
1733469374.462275, -6.774693, 13.742119, -11.864616, 2.650736, 1.951874, -4.430333, -81.033539, -26.871658, -617.408813
1733469374.472277, -5.524770, 13.234997, -10.930428, 2.919937, 1.916297, -4.332095, -81.872452, -29.038391, -618.725708
1733469374.482276, -4.422988, 12.742689, -10.029909, 3.150743, 1.897742, -4.196695, -82.127289, -31.101471, -619.863098
1733469374.492274, -3.145233, 12.345252, -9.403227, 3.329765, 1.978394, -4.004255, -82.424789, -33.417145, -620.410034
1733469374.502274, -1.839345, 11.821221, -8.677485, 3.439001, 2.178530, -3.733880, -82.870560, -35.466431, -622.767944
1733469374.512273, -0.866102, 11.213243, -7.591415, 3.511342, 2.398826, -3.427242, -82.723633, -37.623428, -623.960449
1733469374.521310, 0.032022, 10.566210, -6.493823, 3.562889, 2.514445, -3.104791, -82.901855, -39.515686, -624.824829
1733469374.532280, 0.795773, 9.871742, -5.770924, 3.608602, 2.518546, -2.777762, -82.805084, -41.432724, -626.510986
1733469374.542287, 1.403152, 9.265261, -5.422119, 3.660613, 2.481393, -2.456824, -82.556213, -42.789841, -627.751892
1733469374.552291, 1.959205, 8.791060, -5.254674, 3.753640, 2.503331, -2.115813, -82.117142, -44.489029, -628.745605
1733469374.562278, 2.426523, 8.387487, -4.630386, 3.868449, 2.620311, -1.764833, -82.096741, -45.896011, -629.525696
1733469374.572324, 2.832640, 8.094945, -3.549254, 3.960301, 2.715604, -1.405949, -81.586075, -47.063400, -631.131226
1733469374.582267, 3.221398, 7.809886, -2.534711, 4.006334, 2.779514, -1.041160, -80.958054, -48.233047, -632.052856
1733469374.592276, 3.519327, 7.506720, -1.552640, 3.993791, 2.833081, -0.650067, -80.216660, -49.103149, -632.572632
1733469374.602325, 3.582324, 7.115717, -0.466420, 3.928260, 2.905059, -0.246362, -80.185425, -49.894547, -633.703857
1733469374.612280, 3.649811, 6.536470, 0.646584, 3.805954, 2.940068, 0.140925, -79.656036, -50.413162, -634.718811
1733469374.622277, 3.698593, 5.891083, 1.453580, 3.627658, 2.918213, 0.507697, -79.242981, -50.863297, -635.848022
1733469374.632272, 3.615843, 5.366753, 1.943643, 3.427058, 2.876178, 0.868621, -78.428497, -51.251312, -636.256836
1733469374.642333, 3.470395, 5.141249, 2.262969, 3.252579, 2.841957, 1.215077, -78.262894, -51.036499, -637.155151
1733469374.652265, 3.285743, 4.848109, 2.894141, 3.128574, 2.789283, 1.545265, -77.896423, -51.063705, -638.499329
1733469374.662279, 3.122787, 4.183418, 3.919009, 3.037234, 2.652914, 1.846173, -77.576736, -50.828445, -639.371277
1733469374.672274, 2.919430, 3.535488, 4.917989, 2.915956, 2.376802, 2.130919, -77.078232, -50.361404, -639.935425
1733469374.682325, 2.660407, 3.164386, 5.567566, 2.749339, 2.071549, 2.408010, -77.029694, -49.726639, -640.381653
1733469374.692269, 2.398242, 2.862567, 6.031144, 2.558500, 1.775563, 2.687410, -76.451904, -49.069489, -640.488220
1733469374.702263, 2.112733, 2.800468, 6.206968, 2.376080, 1.536144, 2.982573, -76.331375, -48.371140, -641.245056
1733469374.712275, 1.656039, 2.902970, 6.315305, 2.192099, 1.422830, 3.315097, -76.107147, -47.264862, -641.594604
1733469374.722319, 1.157896, 2.918532, 6.871508, 1.956900, 1.466256, 3.652599, -75.471222, -46.071182, -641.369751
1733469374.732269, 0.672471, 2.944419, 7.737910, 1.632621, 1.525378, 4.033042, -75.178589, -44.417892, -642.317932
1733469374.742264, -0.291195, 2.680458, 8.610297, 1.233760, 1.578519, 4.433740, -74.923294, -42.615097, -643.674072
1733469374.752347, -1.490690, 2.419640, 9.253589, 0.733046, 1.622391, 4.760421, -74.776886, -40.471405, -643.872681
1733469374.762292, -2.628085, 2.163460, 9.465776, 0.183588, 1.636715, 5.044858, -73.809738, -38.262634, -644.457581
1733469374.772284, -3.922750, 2.044050, 9.535656, -0.347073, 1.620787, 5.261416, -73.146393, -35.667130, -645.643921
1733469374.782283, -5.373187, 2.175731, 9.461137, -0.844500, 1.553046, 5.401132, -72.198669, -33.204361, -646.049194
1733469374.792277, -7.001693, 2.107496, 9.516952, -1.290174, 1.451127, 5.475722, -71.027420, -30.291870, -646.028564
1733469374.802264, -8.918102, 1.676240, 9.621698, -1.706959, 1.265342, 5.507174, -70.084335, -27.289215, -646.373352
1733469374.811986, -10.923395, 0.862062, 9.349208, -2.119783, 1.043683, 5.442410, -68.416885, -24.747971, -646.207275
1733469374.822285, -12.737003, 0.189441, 8.939350, -2.499006, 0.859534, 5.323780, -67.194839, -21.968369, -645.379761
1733469374.832277, -14.757111, 0.243909, 9.102156, -2.855286, 0.722917, 5.184280, -65.630020, -19.102356, -645.678467
1733469374.842282, -16.880768, 0.586130, 9.608530, -3.234192, 0.530708, 5.004051, -63.914642, -16.313736, -644.648193
1733469374.852275, -19.489699, 1.118990, 10.301202, -3.671175, 0.213860, 4.761916, -63.155594, -13.574127, -643.577759
1733469374.862264, -22.255601, 1.779640, 10.360010, -4.194502, -0.290448, 4.421257, -61.646133, -10.945053, -642.114685
1733469374.872273, -24.893712, 2.136376, 8.915259, -4.759326, -0.834016, 3.982172, -60.493195, -8.235626, -639.669067
1733469374.882329, -27.092187, 2.603545, 6.669947, -5.301135, -1.157770, 3.459877, -59.301483, -5.946594, -637.707031
1733469374.892323, -28.861502, 3.494038, 4.396802, -5.815574, -1.257850, 2.905249, -58.505081, -3.687897, -634.759583
1733469374.902391, -30.652665, 5.111770, 2.038513, -6.275227, -1.174022, 2.337335, -57.721985, -2.139175, -631.813477
1733469374.912356, -31.909620, 7.340323, -0.287753, -6.637560, -0.935144, 1.734246, -57.220688, -0.565399, -629.484863
1733469374.922300, -32.318730, 8.935011, -2.615067, -6.908475, -0.677715, 1.133992, -56.987518, 0.544708, -625.725159
1733469374.932323, -32.524332, 10.092159, -4.985775, -7.037854, -0.467967, 0.562033, -57.181763, 1.369751, -623.770386
1733469374.942360, -32.667086, 11.041460, -7.089979, -7.026489, -0.365907, -0.069489, -57.351196, 1.712479, -620.784180
1733469374.952293, -32.241217, 12.010513, -9.438841, -6.895605, -0.369428, -0.710819, -58.084747, 1.512939, -618.087036
1733469374.962353, -31.702522, 13.261483, -11.840824, -6.261988, -0.214689, -1.831950, -58.660934, 1.055939, -615.120361
1733469374.972295, -30.797514, 14.225748, -13.911808, -6.261988, -0.214689, -1.831950, -59.841034, 0.316345, -613.052124
1733469374.982283, -29.455414, 14.835371, -15.658528, -5.839019, -0.040403, -2.311301, -61.079132, -0.561829, -611.042664
1733469374.992275, -28.042536, 15.340997, -17.328783, -4.735273, 0.279346, -3.102276, -62.402283, -1.922134, -609.332825
1733469375.002259, -26.292374, 15.597625, -18.793585, -4.030584, 0.401246, -3.370991, -63.745804, -3.476364, -608.137573
1733469375.012272, -24.392426, 15.491831, -19.636344, -3.343503, 0.504195, -3.557036, -65.504532, -4.534836, -607.291382
1733469375.022275, -22.788610, 15.325135, -19.876662, -2.749492, 0.635534, -3.713705, -66.708435, -6.272034, -606.687378
1733469375.032278, -21.509208, 15.174450, -19.802143, -2.242022, 0.810798, -3.858207, -68.203232, -7.904343, -606.132446
1733469375.042262, -20.297443, 15.064466, -19.741240, -1.766091, 1.035184, -3.972918, -70.032684, -9.486984, -606.108154
1733469375.052263, -18.943223, 14.971542, -19.646220, -1.301613, 1.270536, -4.051578, -71.410736, -11.273697, -606.384521
1733469375.062263, -17.724873, 14.722993, -19.552547, -0.824724, 1.533632, -4.129539, -72.758987, -13.084473, -606.726624
1733469375.072267, -16.669779, 14.565126, -19.375376, -0.351979, 1.800658, -4.225621, -74.398621, -14.927063, -607.586060
1733469375.082258, -15.560665, 14.480132, -18.933047, 0.105110, 2.049335, -4.335537, -75.682404, -16.788391, -608.720703
1733469375.092255, -14.321815, 14.506767, -18.277784, 0.550160, 2.262624, -4.435908, -77.083878, -18.813614, -609.919312
1733469375.102257, -12.875418, 14.699051, -17.523012, 1.003196, 2.414729, -4.492854, -78.487488, -20.935486, -611.823486
1733469375.112255, -11.288960, 14.886098, -16.620847, 1.475491, 2.479952, -4.507201, -79.748764, -23.154083, -613.089111
1733469375.122265, -9.753828, 14.977677, -15.678280, 1.958730, 2.483884, -4.480505, -80.575867, -25.395325, -614.285095
1733469375.132261, -8.217050, 14.904654, -14.629320, 2.435043, 2.396769, -4.407840, -81.491043, -27.662598, -615.891968
1733469375.142255, -6.594380, 14.738855, -13.249961, 2.872131, 2.257988, -4.266320, -81.769836, -29.900940, -617.432556
1733469375.152256, -4.958242, 14.400076, -11.992706, 3.231857, 2.173244, -4.038966, -82.418030, -32.156113, -618.702759
1733469375.162274, -3.567211, 13.805266, -10.845135, 3.484055, 2.172353, -3.778982, -82.755264, -34.172394, -619.857971
1733469375.172253, -2.529773, 13.005154, -9.696966, 3.646284, 2.248592, -3.508533, -83.277710, -36.202942, -621.170227
1733469375.182253, -1.522563, 12.293777, -8.737639, 3.747258, 2.416735, -3.207722, -83.221863, -38.105499, -622.681030
1733469375.192279, -0.613664, 11.687744, -7.789984, 3.794179, 2.592663, -2.896143, -83.270355, -39.912384, -624.089600
1733469375.202264, 0.234033, 10.916213, -6.801328, 3.836937, 2.746209, -2.550033, -82.981476, -41.563828, -625.773132
1733469375.212253, 0.993444, 10.312126, -5.829582, 3.885174, 2.872799, -2.188780, -82.824570, -43.432037, -626.814636
1733469375.222266, 1.544410, 9.711032, -4.806659, 3.915642, 2.953212, -1.834128, -82.610291, -44.643723, -628.237549
1733469375.232251, 1.898303, 8.961796, -3.537882, 3.912124, 2.935874, -1.503703, -82.498138, -45.916122, -629.683594
1733469375.242258, 2.148796, 8.072500, -2.402432, 3.861754, 2.902264, -1.216136, -82.105042, -47.093079, -630.767822
1733469375.252250, 2.426823, 7.164499, -1.629554, 3.754072, 2.934589, -0.948735, -81.336884, -48.239548, -631.804871
1733469375.262247, 2.757971, 6.511480, -1.136947, 3.598823, 3.050881, -0.642991, -80.791183, -49.121811, -632.974976
1733469375.272269, 3.306841, 6.484546, -0.659603, 3.459980, 3.157725, -0.274408, -80.791183, -49.121811, -632.974976
1733469375.282271, 3.845686, 6.630891, 0.034117, 3.304957, 3.208780, 0.153071, -80.255737, -49.711243, -634.176819
1733469375.292250, 4.317793, 6.460604, 0.609324, 3.145900, 3.236338, 0.633984, -79.589920, -50.210785, -635.259888
1733469375.302264, 4.538808, 6.039374, 0.811335, 3.043951, 3.308917, 1.121152, -79.081680, -50.635864, -636.472717
1733469375.312250, 4.535965, 5.519233, 0.906205, 2.975224, 3.384256, 1.598950, -78.456299, -50.633011, -637.484619
1733469375.322249, 4.430021, 4.886566, 1.332523, 2.942988, 3.399733, 2.066052, -77.982162, -50.673645, -637.895569
1733469375.332251, 4.170101, 4.457405, 2.000655, 2.943348, 3.353797, 2.505380, -77.441650, -50.355942, -639.760742
1733469375.342248, 3.837756, 4.323180, 3.125032, 2.887506, 3.230284, 2.928661, -76.861404, -49.693420, -640.728088
1733469375.351799, 3.336320, 4.075380, 4.435558, 2.741680, 3.081036, 3.306071, -76.353622, -49.101562, -641.726562
1733469375.362275, 2.442984, 3.548207, 5.735609, 2.521728, 2.878361, 3.604589, -75.540863, -48.526535, -642.868347
1733469375.372251, 1.492485, 3.127576, 7.327155, 2.195468, 2.576237, 3.861307, -75.197998, -47.514496, -643.443970
1733469375.382290, 0.642095, 2.646042, 8.585158, 1.784868, 2.302518, 4.082133, -74.566650, -46.294434, -644.491394
1733469375.392272, -0.450708, 2.059762, 9.079112, 1.335203, 2.125390, 4.236393, -74.029587, -45.177765, -645.588440
1733469375.401771, -1.509395, 1.714099, 9.175928, 0.884253, 2.019379, 4.377470, -73.217621, -43.651871, -645.530518
1733469375.412258, -2.386271, 1.662773, 8.930223, 0.491983, 1.999001, 4.531774, -72.740326, -41.830307, -646.482422
1733469375.422258, -3.347992, 1.532139, 8.460360, 0.142075, 2.082706, 4.665387, -71.782944, -40.155716, -646.853638
1733469375.432247, -4.415207, 1.297358, 8.296058, -0.229750, 2.209552, 4.746244, -71.028091, -38.231888, -648.353638
1733469375.442266, -5.423465, 1.219397, 8.993070, -0.688938, 2.199148, 4.755925, -70.036621, -36.276627, -648.924438
1733469375.451482, -6.346131, 0.940921, 10.094403, -1.236624, 2.031795, 4.690592, -68.953476, -34.123337, -649.647339
1733469375.462081, -6.967725, 0.862810, 10.760141, -1.774226, 1.731503, 4.633867, -67.713882, -32.019379, -650.178101
1733469375.471933, -7.447912, 1.096095, 11.007641, -2.239316, 1.339706, 4.624895, -66.569061, -29.640106, -650.549683
1733469375.482243, -8.196100, 1.228824, 11.029638, -2.677582, 0.953131, 4.653249, -65.365372, -26.966568, -650.678223
1733469375.492268, -9.493309, 1.458518, 10.842142, -3.151031, 0.622559, 4.677907, -64.024017, -24.452484, -650.898010
1733469375.502236, -11.194239, 1.958756, 10.464756, -3.611013, 0.381096, 4.690400, -62.757706, -21.757034, -650.363342
1733469375.512235, -13.282432, 2.491316, 9.580847, -4.068456, 0.308301, 4.631876, -61.293182, -18.783051, -649.749634
1733469375.521277, -15.667656, 2.911349, 8.491485, -4.554174, 0.385406, 4.501404, -59.555298, -15.915848, -648.137573
1733469375.532287, -18.118420, 3.696498, 7.763947, -5.091668, 0.486191, 4.298481, -58.057251, -13.058487, -647.574585
1733469375.542253, -20.904224, 4.189105, 7.128586, -5.696197, 0.522557, 3.904115, -56.614120, -10.153687, -645.725220
1733469375.552239, -23.966258, 4.666748, 6.310068, -6.299980, 0.437318, 3.270486, -55.142517, -7.288254, -644.163330
1733469375.562253, -26.791865, 5.691915, 4.908263, -6.805632, 0.220729, 2.446078, -54.117554, -4.745880, -642.122131
1733469375.572163, -28.934077, 6.528838, 2.925415, -7.142600, -0.197478, 1.543237, -53.176544, -2.293015, -639.241150
1733469375.582239, -30.363265, 7.899219, 0.730381, -7.277597, -0.805039, 0.659383, -52.779709, -0.504761, -636.330017
1733469375.592271, -30.915727, 8.821586, -1.996764, -7.211127, -1.378029, -0.076243, -52.702774, 1.200699, -632.797485
1733469375.602255, -31.198543, 9.772233, -5.232528, -7.025965, -1.586722, -0.686544, -52.722488, 2.247894, -629.353027
1733469375.612249, -31.820736, 11.411214, -8.240543, -6.845553, -1.408479, -1.214620, -53.140198, 3.130798, -626.539490
1733469375.621250, -31.671098, 13.123218, -10.170419, -6.709401, -1.098079, -1.669857, -54.022339, 3.381699, -622.478394
1733469375.632264, -31.429733, 15.027805, -11.621305, -6.532044, -0.734989, -2.089876, -54.680725, 3.502777, -620.110596
1733469375.642255, -30.942513, 16.674717, -13.209259, -6.276605, -0.367879, -2.479257, -55.701126, 2.982178, -617.318359
1733469375.652258, -30.236522, 17.936162, -14.445416, -6.031813, -0.079599, -2.886509, -57.176315, 2.374680, -614.641235
1733469375.661495, -29.365931, 18.706197, -15.522806, -5.782444, 0.159874, -3.285441, -58.687042, 1.297592, -612.457642
1733469375.672255, -28.154614, 19.124135, -17.124078, -5.440157, 0.389108, -3.650163, -60.192551, 0.184341, -610.174194
1733469375.682245, -26.362704, 19.241301, -18.978837, -4.943834, 0.600212, -3.935637, -62.095642, -1.217926, -608.639526
1733469375.692253, -24.394670, 19.351733, -20.697873, -4.292320, 0.836766, -4.115640, -63.553574, -2.956253, -607.242554
1733469375.702253, -22.512229, 19.736901, -22.158935, -3.492690, 1.073152, -4.175444, -65.472839, -4.601410, -606.225952
1733469375.712250, -20.502147, 19.387646, -23.130233, -2.576284, 1.308563, -4.172903, -66.911636, -6.362625, -605.701538
1733469375.722253, -18.783111, 18.276288, -23.331495, -1.655542, 1.531619, -4.156788, -68.935059, -8.271362, -605.721924
1733469375.732242, -17.288680, 17.466000, -22.462250, -0.849400, 1.711713, -4.164662, -70.750122, -9.997482, -606.647339
1733469375.742248, -16.155025, 16.903812, -20.678570, -0.241956, 1.797195, -4.257709, -72.464600, -11.695465, -607.645142
1733469375.752251, -15.169662, 16.334590, -18.592023, 0.155817, 1.818459, -4.439586, -73.901749, -13.503387, -608.647827
1733469375.762248, -14.118906, 15.918299, -17.025467, 0.436885, 1.822295, -4.662108, -75.657364, -15.441025, -609.511414
1733469375.772236, -12.904597, 15.786169, -16.149638, 0.701971, 1.846098, -4.878399, -76.897461, -17.699493, -610.292969
1733469375.782244, -11.482890, 15.861137, -15.647455, 1.002558, 1.860468, -5.009248, -78.061966, -19.915512, -611.583801
1733469375.792241, -9.834632, 15.991771, -15.402199, 1.379323, 1.889378, -5.023489, -79.226593, -22.417770, -613.102051
1733469375.802248, -8.138191, 16.024541, -15.222484, 1.818070, 1.915506, -4.932365, -80.638763, -24.776093, -613.957520
1733469375.812237, -6.434118, 15.970073, -14.735264, 2.273598, 1.961295, -4.748645, -81.302063, -27.470291, -615.516602
1733469375.822219, -4.698770, 15.709704, -13.819033, 2.701563, 1.957230, -4.468552, -81.780579, -29.660782, -616.084717
1733469375.832243, -3.269432, 15.259444, -12.453440, 3.061750, 1.923698, -4.140594, -82.420288, -31.745682, -617.542786
1733469375.842244, -2.220921, 14.730026, -11.171943, 3.338145, 1.920102, -3.794246, -82.936829, -33.984207, -618.798462
1733469375.852245, -1.366191, 14.013412, -10.196157, 3.522335, 1.992307, -3.444983, -82.941040, -35.845413, -619.917236
1733469375.862253, -0.725293, 13.176788, -9.403676, 3.639957, 2.189929, -3.100086, -83.330521, -37.761200, -621.250610
1733469375.872240, -0.300173, 12.307992, -8.729708, 3.697983, 2.490156, -2.781422, -83.130737, -39.643616, -622.938538
1733469375.882231, -0.002245, 11.365425, -7.923461, 3.722765, 2.747658, -2.496594, -83.083176, -41.332062, -624.331665
1733469375.892290, 0.386514, 10.455778, -7.078457, 3.795686, 2.902793, -2.243813, -83.186447, -42.842636, -625.767273
1733469375.902230, 0.951695, 9.714174, -6.418855, 3.940948, 2.992666, -1.992038, -82.708725, -44.494370, -627.431030
1733469375.912231, 1.626261, 9.160515, -5.704934, 4.098688, 3.028691, -1.723075, -82.497620, -46.024307, -628.727905
1733469375.922235, 2.226907, 8.662970, -4.597765, 4.263985, 2.938917, -1.440521, -81.880707, -47.431320, -628.861694
1733469375.932244, 2.837877, 8.303091, -3.109170, 4.390296, 2.784021, -1.127300, -81.646545, -48.469666, -630.567078
1733469375.942229, 3.292327, 7.837419, -1.563114, 4.380929, 2.630325, -0.814558, -80.953629, -49.671387, -631.306030
1733469375.952223, 3.558981, 7.296778, -0.284910, 4.222263, 2.526026, -0.499738, -80.734024, -50.627838, -632.144897
1733469375.962239, 3.636792, 6.786664, 0.704643, 3.981673, 2.486103, -0.176789, -80.148651, -51.327332, -632.737793
1733469375.971610, 3.632154, 6.182876, 1.221492, 3.711733, 2.543551, 0.131342, -79.683838, -51.869766, -633.280151
1733469375.982238, 3.560028, 5.597494, 1.375319, 3.472255, 2.669785, 0.449694, -79.218536, -52.391205, -634.440247
1733469375.992235, 3.647866, 5.377377, 1.598429, 3.295736, 2.755088, 0.786374, -78.611908, -52.752563, -634.950378
1733469376.002237, 3.953874, 5.227440, 2.139518, 3.155333, 2.738968, 1.153441, -78.449173, -52.758224, -635.459961
1733469376.012234, 4.185962, 5.170578, 2.794632, 3.056467, 2.680571, 1.563673, -78.245056, -52.533600, -636.630676
1733469376.022235, 4.401440, 5.250484, 3.333327, 2.990349, 2.623622, 2.030103, -77.672394, -52.335129, -636.615051
1733469376.032251, 4.427029, 5.162497, 4.127454, 2.900336, 2.555317, 2.522880, -77.204422, -51.831879, -638.161499
1733469376.042243, 4.197185, 5.159953, 5.065831, 2.754681, 2.496142, 3.023715, -76.916977, -51.055923, -638.713318
1733469376.051392, 3.850924, 5.242553, 5.915324, 2.542503, 2.437812, 3.512770, -76.992279, -49.926758, -639.457520
1733469376.062231, 3.408595, 5.283405, 6.753594, 2.275652, 2.367802, 3.983561, -76.745728, -48.793579, -640.334167
1733469376.072227, 2.893093, 5.364508, 7.701399, 1.930516, 2.262338, 4.432567, -76.141602, -47.310532, -641.038391
1733469376.082236, 2.208801, 5.259462, 8.773253, 1.509624, 2.102227, 4.866673, -75.843475, -45.509445, -642.083130
1733469376.092268, 1.298405, 5.091719, 9.659556, 1.031128, 1.974300, 5.279097, -75.291595, -43.503067, -642.545349
1733469376.102288, 0.177919, 5.156661, 10.009858, 0.507068, 1.934577, 5.666843, -74.737320, -40.991226, -642.983154
1733469376.112232, -0.955735, 5.229685, 10.064625, -0.026416, 1.943986, 6.030958, -73.998825, -38.425888, -644.287720
1733469376.122235, -2.314594, 5.072864, 10.086772, -0.547376, 1.915104, 6.300582, -73.044876, -35.539536, -644.261658
1733469376.132228, -4.112939, 4.835240, 10.056545, -1.012130, 1.853015, 6.487914, -71.764282, -32.497208, -645.665771
1733469376.142229, -5.926996, 4.843470, 9.925163, -1.407085, 1.831786, 6.637419, -70.102188, -29.427429, -646.390869
1733469376.152221, -11.115081, 4.344728, 11.129746, -1.879807, 1.852347, 6.651313, -68.495438, -26.197723, -646.703613
1733469376.162229, -13.642311, 3.898957, 11.987020, -2.490643, 1.760160, 6.552464, -66.613449, -22.788422, -646.574524
1733469376.171541, -13.642311, 3.898957, 11.987020, -3.164012, 1.593853, 6.362646, -64.335480, -19.443405, -646.641357
1733469376.182228, -19.047670, 3.662380, 12.357822, -3.824442, 1.317112, 6.050395, -62.562332, -16.408585, -646.085022
1733469376.192235, -21.769877, 4.542848, 11.875091, -4.447826, 0.886903, 5.679553, -60.152664, -13.008362, -644.830933
1733469376.202225, -24.739884, 5.854422, 10.478373, -5.009188, 0.409851, 5.262458, -58.395660, -9.906403, -643.251221
1733469376.211951, -24.739884, 5.854422, 10.478373, -5.541882, 0.006264, 4.753626, -56.782303, -6.985245, -641.232300
1733469376.222209, -30.189387, 7.465570, 6.280440, -6.104136, -0.303853, 4.119346, -55.039215, -4.342209, -638.370728
1733469376.232218, -31.980998, 8.501660, 3.379266, -6.599181, -0.407717, 3.391804, -53.829880, -1.599060, -636.512146
1733469376.242216, -32.851739, 9.655516, 0.816572, -6.976380, -0.314655, 2.630820, -52.578354, 0.403244, -633.773499
1733469376.252221, -33.230322, 11.067496, -1.312322, -7.233626, -0.158461, 1.891925, -52.075592, 2.161621, -630.556030
1733469376.262232, -33.044921, 12.373533, -3.228282, -7.400287, -0.037684, 1.179767, -51.363922, 3.315277, -627.537292
1733469376.272254, -33.044921, 12.373533, -3.228282, -7.464235, -0.036190, 0.498831, -51.614807, 4.165375, -624.355042
1733469376.281833, -32.568026, 13.912556, -7.092673, -7.430622, -0.164841, -0.216090, -51.477417, 4.830261, -621.046692
1733469376.292235, -32.096817, 14.931738, -9.545832, -7.311454, -0.200685, -0.917571, -52.393143, 4.813660, -617.590271
1733469376.302230, -31.418211, 16.535554, -11.802367, -7.128708, -0.062693, -1.537646, -52.792389, 4.605591, -614.711426
1733469376.312228, -30.562732, 17.764078, -13.957896, -6.846674, 0.136439, -2.064286, -54.144913, 4.000977, -611.674744
1733469376.322230, -29.039272, 17.723227, -16.188694, -6.370948, 0.335995, -2.497000, -55.273041, 2.761642, -609.067444
1733469376.332232, -27.542896, 17.408390, -17.985692, -5.741404, 0.561975, -2.851226, -56.688217, 1.698334, -607.417114
1733469376.342222, -26.114605, 17.139192, -19.392136, -5.025848, 0.724207, -3.169231, -58.350815, 0.520950, -605.654663
1733469376.352226, -24.589798, 16.771682, -20.393959, -4.232125, 0.860707, -3.431817, -60.160385, -0.892197, -604.791565
1733469376.362220, -23.391799, 16.778865, -20.488680, -3.458051, 0.981753, -3.691171, -61.878433, -2.146942, -603.798767
1733469376.372213, -22.186618, 17.294516, -20.211102, -2.781172, 1.045940, -3.931564, -63.679016, -4.008484, -603.559570
1733469376.382268, -21.046529, 17.692851, -20.254048, -2.217654, 1.129460, -4.156644, -65.410614, -5.607635, -603.331177
1733469376.392218, -19.847483, 18.006791, -20.605248, -1.727705, 1.284843, -4.358420, -67.298828, -7.258560, -603.605957
1733469376.402213, -18.526482, 18.168399, -21.096209, -1.221448, 1.543544, -4.517563, -69.249664, -9.221970, -604.026489
1733469376.412225, -17.053599, 18.106449, -21.210532, -0.653718, 1.856706, -4.625925, -71.028152, -11.118240, -604.830322
1733469376.422232, -15.438710, 18.019959, -20.664953, -0.025301, 2.124384, -4.698744, -72.881027, -13.139801, -605.052124
1733469376.432230, -13.804967, 17.912968, -19.617340, 0.624496, 2.273715, -4.748445, -74.687958, -15.077164, -607.059937
1733469376.442224, -12.215965, 17.916858, -18.089989, 1.261448, 2.333021, -4.764360, -76.236008, -17.190491, -608.628784
1733469376.452220, -10.751163, 17.910125, -16.213384, 1.823547, 2.283571, -4.750409, -77.384628, -19.229630, -610.183655
1733469376.462228, -9.353697, 17.722330, -14.596250, 2.310513, 2.140553, -4.717166, -78.663956, -21.339584, -611.896240
1733469376.472220, -7.930045, 17.448194, -13.402891, 2.727581, 2.016044, -4.646837, -79.741318, -23.562607, -613.200256
1733469376.482213, -6.417059, 16.961273, -12.376377, 3.059781, 1.998515, -4.523376, -80.716553, -25.694214, -615.017700
1733469376.492209, -4.999991, 16.351051, -11.342680, 3.309247, 2.100376, -4.333462, -81.348618, -27.877319, -616.201843
1733469376.502211, -3.788375, 15.732449, -10.096498, 3.516643, 2.246775, -4.104756, -82.025238, -30.151566, -617.936279
1733469376.512209, -2.700510, 14.929493, -8.972869, 3.702635, 2.352812, -3.853555, -82.570190, -32.033783, -619.213989
1733469376.521246, -1.796250, 13.832051, -8.022670, 3.892186, 2.445318, -3.594975, -82.994019, -34.049683, -620.906067
1733469376.532213, -1.030105, 12.835914, -6.940342, 4.069307, 2.552018, -3.357040, -83.176834, -36.246872, -622.442566
1733469376.542206, -0.239420, 11.841871, -5.755511, 4.227217, 2.627641, -3.145299, -83.328339, -38.181885, -623.873901
1733469376.552209, 0.592266, 10.980557, -4.570980, 4.371290, 2.681641, -2.932230, -83.451935, -39.978958, -625.660706
1733469376.562207, 1.454328, 10.382605, -2.912397, 4.492523, 2.693316, -2.710680, -83.152618, -41.794174, -627.015564
1733469376.572208, 2.460192, 9.903166, -1.125724, 4.553566, 2.573741, -2.473722, -82.915817, -43.719772, -628.104187
1733469376.582209, 3.425953, 9.339631, -0.063596, 4.498127, 2.402557, -2.192010, -82.419922, -45.066925, -628.819336
1733469376.592206, 4.108151, 8.725967, 0.572663, 4.351503, 2.330726, -1.854790, -82.099289, -46.550247, -629.617126
1733469376.602206, 4.596418, 7.997382, 0.949151, 4.129168, 2.420414, -1.476853, -81.598618, -47.619217, -630.877808
1733469376.612219, 5.090971, 7.408109, 1.468543, 3.874944, 2.624679, -1.066569, -81.357529, -48.552597, -631.468628
1733469376.622206, 5.548712, 6.985233, 2.054225, 3.622797, 2.822900, -0.615859, -80.848099, -49.312897, -632.541870
1733469376.631464, 5.771672, 6.470779, 2.831443, 3.444213, 2.921357, -0.139741, -80.848099, -49.312897, -632.541870
1733469376.642207, 5.827636, 5.825841, 3.740042, 3.321374, 2.898228, 0.323449, -80.430771, -50.177994, -634.529968
1733469376.652271, 5.587019, 5.237166, 4.593126, 3.175101, 2.816199, 0.749644, -79.590332, -50.404297, -635.530701
1733469376.662206, 5.223699, 4.723610, 5.366902, 2.985076, 2.741855, 1.129754, -79.224869, -50.141754, -636.628174
1733469376.672202, 4.956147, 4.381239, 6.051195, 2.754796, 2.670867, 1.484848, -78.723694, -49.905243, -637.214233
1733469376.682228, 4.742764, 4.118476, 6.626701, 2.510587, 2.591560, 1.841156, -78.293304, -49.372055, -638.255798
1733469376.692202, 4.663007, 4.071041, 7.114670, 2.295451, 2.498946, 2.234042, -77.797501, -48.844543, -639.370361
1733469376.702211, 4.366575, 3.953874, 7.750779, 2.122411, 2.391759, 2.703512, -77.184296, -47.762817, -639.735474
1733469376.712194, 3.872023, 3.708469, 8.382100, 1.921816, 2.272439, 3.197370, -77.000259, -46.522812, -640.886536
1733469376.722212, 3.070564, 3.526509, 8.740482, 1.643368, 2.213721, 3.705564, -76.387878, -44.798294, -641.488281
1733469376.731323, 2.126051, 3.325396, 8.864382, 1.281408, 2.269417, 4.179903, -76.387878, -44.798294, -641.488281
1733469376.741249, 1.073650, 3.180398, 8.919149, 0.855012, 2.420735, 4.623777, -75.790878, -43.124741, -642.539307
1733469376.752200, -0.275782, 3.036746, 9.315839, 0.418035, 2.641577, 5.039405, -74.756470, -41.148224, -643.488281
1733469376.761628, -1.684171, 3.075352, 10.204686, -0.049760, 2.813984, 5.400557, -73.684570, -38.865356, -644.681519
1733469376.772203, -2.940977, 3.345747, 11.069891, -0.612166, 2.892492, 5.695887, -72.768356, -36.209305, -645.778442
1733469376.782205, -4.004452, 3.781642, 11.533468, -1.288316, 2.935582, 5.945063, -71.397263, -33.363098, -646.695801
1733469376.792209, -5.224597, 4.192846, 11.709891, -2.018107, 2.967538, 6.168551, -69.602463, -30.218063, -647.565430
1733469376.802082, -6.653038, 4.487931, 11.751041, -2.766297, 2.901537, 6.340478, -67.708725, -26.885513, -648.710510
1733469376.812217, -8.405294, 4.902726, 11.178528, -3.451645, 2.685283, 6.457808, -65.396301, -23.735840, -649.025696
1733469376.822197, -10.810419, 5.071069, 10.569951, -3.997517, 2.351942, 6.512644, -63.132584, -20.341232, -648.549866
1733469376.832202, -14.208390, 4.810550, 10.008511, -4.434120, 1.903863, 6.461267, -60.787659, -16.566055, -648.488403
1733469376.842209, -18.233342, 4.176685, 9.096021, -4.831419, 1.420660, 6.208473, -58.280212, -13.049255, -647.587158
1733469376.852262, -22.821081, 3.254468, 8.164078, -5.190832, 1.056782, 5.720927, -56.269547, -9.957825, -646.367798
1733469376.861211, -27.564294, 2.870947, 7.912238, -5.607204, 0.778599, 4.876790, -54.168472, -6.957230, -644.525146
1733469376.872203, -31.216200, 3.800645, 7.380576, -6.150658, 0.470950, 3.711048, -52.772156, -4.171585, -642.268799
1733469376.882210, -33.111360, 5.878513, 5.895273, -6.723887, 0.112378, 2.374446, -51.372940, -1.719330, -639.783936
1733469376.892205, -32.592716, 8.703821, 3.641132, -7.183421, -0.347778, 1.114563, -50.611496, 0.203201, -637.091797
1733469376.902207, -31.395017, 11.400889, 0.382623, -7.456159, -0.886819, 0.218407, -50.226166, 1.870544, -633.440125
1733469376.911465, -30.801404, 13.694085, -3.389890, -7.599811, -1.080455, -0.359526, -49.985703, 3.317245, -629.985291
1733469376.921343, -30.199263, 15.848418, -6.677728, -7.767154, -0.855179, -0.763529, -50.336639, 4.258163, -625.703491
1733469376.932209, -29.348423, 17.177200, -10.110115, -7.898510, -0.377430, -1.050784, -50.948181, 4.966187, -622.672302
1733469376.942208, -28.962358, 18.879477, -12.686126, -7.825063, 0.188627, -1.328915, -51.661835, 5.145493, -618.871216
1733469376.951373, -28.616396, 20.084658, -14.338724, -7.550834, 0.491316, -1.668791, -52.737778, 4.912567, -616.326050
1733469376.962197, -28.329840, 20.747852, -16.013319, -7.098820, 0.439723, -2.059185, -53.851181, 4.645905, -613.239502
1733469376.972209, -28.491299, 21.567717, -17.955615, -6.516814, 0.220170, -2.520074, -54.959595, 3.966125, -610.724854
1733469376.982198, -28.159552, 21.504869, -20.197336, -5.902082, 0.018216, -3.008261, -56.261444, 2.856903, -608.132874
1733469376.992203, -27.311556, 21.292683, -22.516868, -5.263393, 0.037542, -3.461104, -57.909836, 1.560211, -606.064148
1733469377.002207, -25.911247, 21.228039, -24.292767, -4.610296, 0.321391, -3.871836, -59.466705, 0.052521, -604.613281
1733469377.012196, -24.016686, 21.159805, -25.595362, -3.883911, 0.661266, -4.181576, -61.406158, -1.620285, -603.765015
1733469377.022205, -21.707179, 21.130476, -26.345047, -3.061152, 1.016067, -4.411540, -63.480728, -3.289642, -602.247070
1733469377.032202, -19.279907, 21.193922, -26.288783, -2.183890, 1.371424, -4.512014, -65.142395, -5.148300, -602.870117
1733469377.042195, -17.212963, 21.140202, -25.535657, -1.282960, 1.730169, -4.471779, -67.252411, -6.835266, -603.266846
1733469377.052198, -15.673192, 20.632931, -23.791780, -0.424382, 2.039178, -4.374686, -69.126648, -8.607742, -604.262695
1733469377.062211, -14.413992, 19.760693, -21.817761, 0.324010, 2.202601, -4.309729, -70.957886, -10.361664, -605.408752
1733469377.072198, -13.374010, 18.762012, -20.126707, 0.968682, 2.317860, -4.298822, -72.819214, -11.973282, -606.728821
1733469377.082077, -12.367847, 18.056770, -18.335245, 1.516632, 2.427402, -4.362736, -74.592499, -13.886703, -608.855835
1733469377.092189, -11.150994, 17.886781, -16.412402, 1.978409, 2.478762, -4.467764, -75.890533, -15.823471, -610.413269
1733469377.102184, -9.753678, 17.777995, -14.621390, 2.369525, 2.417966, -4.579627, -77.722961, -17.732468, -611.876709
1733469377.111496, -8.315362, 17.628806, -13.296349, 2.715348, 2.294943, -4.659616, -78.922455, -19.963043, -613.466431
1733469377.122284, -6.871059, 17.552940, -12.242002, 3.028841, 2.204892, -4.686089, -80.173203, -22.194412, -614.216980
1733469377.132146, -5.376180, 17.261595, -11.243770, 3.315820, 2.142148, -4.634043, -80.680115, -24.536896, -616.634033
1733469377.142194, -3.957017, 16.881217, -10.381707, 3.607331, 2.098830, -4.501493, -81.324661, -27.112488, -618.229065
1733469377.152193, -2.513313, 16.463428, -9.282918, 3.878190, 2.100372, -4.286638, -82.036270, -29.336456, -619.970459
1733469377.162202, -1.156250, 15.832107, -8.130410, 4.137863, 2.076957, -3.983754, -82.803314, -31.576691, -621.065186
1733469377.171568, -0.186598, 14.890588, -7.076063, 4.376807, 2.053265, -3.636123, -82.873825, -33.599808, -622.851074
1733469377.182195, 0.541389, 13.801226, -6.002862, 4.557512, 2.084666, -3.277393, -83.227432, -35.610275, -624.206909
1733469377.192199, 1.053149, 12.461371, -5.174019, 4.642862, 2.220978, -2.923141, -83.131973, -37.585556, -625.453125
