SamplingTime, AccelerationX, AccelerationY, AccelerationZ, GyroX, GyroY, GyroZ, MagneticFieldX, MagneticFieldY, MagneticFieldZ
1733468832.178761, 7.174375, -7.360374, 0.433799, -0.630657, 0.279199, -0.100857, -25.748550, -84.741623, -615.378357
1733468832.188745, 7.340173, -7.244256, -0.086640, -0.611008, 0.276252, -0.108322, -25.985489, -84.909119, -615.994873
1733468832.198746, 7.647379, -7.193678, -0.592415, -0.515262, 0.235526, -0.099462, -25.955887, -84.771637, -616.070435
1733468832.208781, 7.878569, -7.298125, -1.026813, -0.347634, 0.129650, -0.105939, -26.078964, -84.823776, -615.894165
1733468832.218763, 7.898022, -7.616404, -1.492336, -0.011667, -0.113833, -0.121470, -25.947083, -84.802643, -616.507324
1733468832.228774, 7.576900, -7.990199, -1.971924, 0.369872, -0.198042, -0.159324, -25.583176, -84.640137, -616.071167
1733468832.238778, 7.371148, -7.975834, -1.783680, 0.625344, -0.221274, -0.180713, -25.444382, -84.631210, -614.691040
1733468832.248773, 7.173627, -8.006510, -1.156250, 0.739696, -0.186880, -0.197012, -25.369537, -84.592972, -615.177429
1733468832.258773, 6.765864, -8.042572, -0.746692, 0.776515, -0.100308, -0.227908, -25.280502, -84.625488, -614.289795
1733468832.268768, 6.130503, -8.152706, -0.221763, 0.758813, -0.027967, -0.314807, -25.439560, -84.195541, -614.510193
1733468832.278763, 5.665429, -8.271667, 0.147692, 0.697878, 0.038591, -0.443197, -24.975494, -84.422012, -614.591248
1733468832.288755, 5.524171, -8.073098, 0.342969, 0.603170, 0.083011, -0.579462, -24.760101, -84.298508, -613.194763
1733468832.298553, 5.759102, -7.870788, 0.454898, 0.497352, 0.067818, -0.695396, -24.454071, -84.279495, -613.551880
1733468832.308778, 6.191256, -7.579294, 0.129437, 0.421385, 0.073121, -0.770628, -23.875824, -84.057327, -612.677673
1733468832.318760, 6.529886, -7.124695, -0.549020, 0.417959, 0.116473, -0.797723, -23.616028, -83.773239, -613.162598
1733468832.328748, 6.792949, -6.829610, -1.187075, 0.520570, 0.128666, -0.794528, -23.537064, -83.770447, -612.816101
1733468832.338771, 6.660070, -6.748506, -1.184531, 0.700628, -0.042042, -0.827905, -23.100662, -83.692154, -612.027100
1733468832.348753, 6.218191, -6.613832, -0.879719, 0.907371, -0.338321, -0.924450, -22.565781, -83.433334, -612.082092
1733468832.358760, 5.646276, -6.429928, -0.768688, 1.108854, -0.625367, -1.073830, -21.952255, -83.076706, -610.881348
1733468832.368765, 5.033659, -6.217592, -0.785298, 1.283651, -0.825058, -1.262032, -21.226486, -82.564590, -611.032227
1733468832.378776, 4.544045, -6.116287, -0.778564, 1.393742, -0.907104, -1.473194, -20.681442, -82.252899, -610.818726
1733468832.388763, 4.386926, -5.893776, -0.598102, 1.417892, -0.904031, -1.673613, -19.888077, -81.731079, -609.987671
1733468832.398564, 4.624550, -5.481225, -0.313940, 1.377970, -0.898721, -1.850744, -18.998108, -81.304153, -609.749817
1733468832.408764, 5.063737, -5.044733, -0.041001, 1.328526, -0.952385, -1.976970, -17.955383, -80.699646, -609.291321
1733468832.418773, 5.575198, -4.618864, 0.041150, 1.304619, -1.046629, -2.056204, -16.982590, -80.300842, -608.599670
1733468832.428764, 5.881057, -4.311957, 0.011821, 1.295056, -1.112878, -2.108730, -16.240036, -79.673386, -609.464844
1733468832.438762, 5.844546, -4.009390, -0.026037, 1.251785, -1.103412, -2.152229, -15.185181, -78.861557, -607.761841
1733468832.448765, 5.657798, -3.781043, 0.179565, 1.143505, -1.084126, -2.204169, -14.143402, -78.106354, -608.336121
1733468832.458766, 5.394735, -3.523217, 0.416741, 1.011047, -1.090473, -2.281077, -13.220352, -77.318741, -607.475647
1733468832.468759, 5.364508, -3.221099, 0.135272, 0.905709, -1.049402, -2.354108, -12.088654, -76.860306, -607.483215
1733468832.478755, 5.619341, -2.867954, -0.244508, 0.858667, -0.979043, -2.410666, -11.374878, -75.858658, -607.757690
1733468832.488766, 5.860557, -2.453608, -0.490063, 0.834220, -0.851724, -2.457994, -10.420059, -75.274063, -606.937256
1733468832.498767, 6.070947, -1.851017, -0.601693, 0.811045, -0.710654, -2.478225, -9.306091, -74.340683, -607.993164
1733468832.508682, 6.013786, -1.264288, -0.106392, 0.783324, -0.746420, -2.519417, -8.493637, -73.629578, -607.015320
1733468832.518764, 5.938967, -1.092953, 0.359280, 0.775001, -0.936676, -2.611526, -7.917831, -72.610229, -606.814697
1733468832.528772, 6.101174, -0.979228, 0.141557, 0.782963, -1.092224, -2.724903, -6.749008, -71.654648, -607.711365
1733468832.538746, 6.177190, -0.642993, -0.239271, 0.791878, -1.179908, -2.821839, -5.936234, -70.662216, -607.048950
1733468832.548760, 6.145467, -0.371401, -0.265158, 0.770632, -1.215692, -2.933662, -4.860672, -69.431580, -608.214966
1733468832.558755, 6.562956, -0.198419, -0.339677, 0.664319, -1.146949, -3.029093, -4.116699, -68.245880, -607.640869
1733468832.568760, 7.539341, 0.639551, -0.195427, 0.519148, -1.124884, -3.050884, -3.307297, -67.119247, -607.512390
1733468832.578762, 8.639177, 1.595735, 0.086042, 0.407843, -1.239403, -2.985149, -2.588821, -66.068085, -608.838867
1733468832.588768, 9.192986, 1.972373, -0.017059, 0.372437, -1.415565, -2.853225, -1.529968, -65.050171, -608.933533
1733468832.598763, 9.366416, 1.747318, -0.383820, 0.327930, -1.486086, -2.718936, -0.781113, -63.863556, -609.604065
1733468832.608762, 9.241169, 1.611597, -0.364667, 0.195681, -1.538040, -2.574708, -0.054260, -62.930588, -609.916992
1733468832.618762, 8.797943, 1.454029, -0.313940, 0.017080, -1.500612, -2.469651, 0.434296, -62.060104, -610.547363
1733468832.628773, 8.407239, 1.357213, -1.085471, -0.208761, -1.102335, -2.411892, 1.006058, -60.972244, -611.115662
1733468832.638749, 8.632144, 1.935862, -1.431433, -0.478779, -0.574548, -2.345248, 1.335556, -60.260925, -610.792725
1733468832.648768, 9.253440, 3.017143, -1.082030, -0.736123, -0.135488, -2.272934, 1.574066, -59.337936, -611.805969
1733468832.658767, 10.150517, 3.878158, -0.880617, -0.895840, 0.070301, -2.191360, 1.764587, -58.628830, -612.040466
1733468832.668762, 11.188853, 4.808754, -0.742502, -0.901893, -0.002714, -2.088239, 1.759567, -57.945755, -611.098022
1733468832.678760, 12.046276, 5.663334, -1.063474, -0.810052, -0.151441, -1.976647, 2.198853, -57.083176, -612.388062
1733468832.688744, 12.493094, 6.262184, -1.524358, -0.685827, -0.284141, -1.876536, 2.190170, -56.469910, -612.042236
1733468832.698631, 12.731167, 6.797139, -1.852214, -0.562459, -0.281952, -1.802028, 2.513611, -55.565231, -612.764954
1733468832.708077, 12.917167, 7.935132, -2.058565, -0.512888, -0.090237, -1.749331, 2.539749, -54.885666, -612.578247
1733468832.718802, 13.478458, 9.411158, -1.592892, -0.543714, 0.047027, -1.681782, 2.702759, -54.232468, -611.824402
1733468832.728755, 14.545374, 10.934169, -1.343895, -0.547260, 0.032134, -1.588729, 2.823227, -53.831482, -612.462952
1733468832.738750, 16.156522, 12.271331, -1.616535, -0.425653, -0.150850, -1.406972, 2.715317, -53.289093, -612.744141
1733468832.748749, 17.873164, 13.124116, -1.894262, -0.167664, -0.535887, -1.116977, 2.983749, -52.722610, -613.492981
1733468832.758750, 19.111116, 14.006379, -2.347365, 0.141033, -0.908108, -0.741369, 3.239517, -52.410141, -613.805847
1733468832.768764, 20.119075, 14.506468, -2.796876, 0.404139, -1.162595, -0.249902, 3.250290, -52.488998, -613.336182
1733468832.778751, 20.719272, 14.344710, -3.104232, 0.586511, -1.238236, 0.317504, 3.776566, -52.965027, -614.155212
1733468832.788751, 20.833595, 14.082694, -3.475034, 0.661115, -1.059599, 1.026106, 3.354919, -53.581955, -614.879456
1733468832.798745, 20.752042, 14.020295, -3.576788, 0.664693, -0.728009, 1.821355, 3.453705, -54.550018, -614.160889
1733468832.808753, 19.843143, 13.150153, -3.345598, 0.613868, -0.387102, 2.572057, 2.730911, -55.944916, -614.796631
1733468832.818760, 18.429068, 12.307693, -2.726098, 0.517443, -0.081767, 3.225168, 2.155151, -57.446289, -614.848511
1733468832.828754, 16.609624, 11.575666, -2.025644, 0.384160, 0.188468, 3.733053, 1.759918, -59.304016, -613.897217
1733468832.838747, 14.795568, 10.743232, -1.228076, 0.215595, 0.359503, 4.093365, 1.055878, -60.979324, -614.590210
1733468832.848749, 13.257293, 9.845855, -0.743250, 0.078511, 0.438801, 4.331810, 0.261658, -62.734894, -614.743774
1733468832.858740, 12.009615, 9.081057, -0.616357, 0.000546, 0.442339, 4.484351, -0.985916, -64.526718, -614.496033
1733468832.868746, 11.247660, 8.280795, -0.807445, -0.009778, 0.413612, 4.610165, -1.801071, -66.600037, -613.835266
1733468832.878738, 10.516680, 7.776068, -1.183783, 0.079169, 0.417113, 4.729910, -1.801071, -66.600037, -613.835266
1733468832.888747, 9.549423, 7.240964, -0.990002, 0.203895, 0.345714, 4.814125, -2.889725, -68.186981, -614.354065
1733468832.898749, 8.667309, 6.404489, -0.165649, 0.296045, 0.130756, 4.850657, -4.449188, -69.969009, -614.433838
1733468832.908756, 7.851934, 5.692813, 0.327856, 0.355162, -0.069558, 4.867514, -5.472519, -71.662857, -614.346008
1733468832.918765, 7.055563, 5.357774, 0.532411, 0.406830, -0.224660, 4.884897, -6.914459, -73.372620, -613.358337
1733468832.928742, 6.666206, 4.784662, 0.910395, 0.412920, -0.405280, 4.929654, -8.654037, -74.866699, -614.220703
1733468832.938751, 6.321291, 4.225616, 0.987010, 0.423648, -0.589384, 4.988224, -9.992676, -76.435394, -614.140991
1733468832.948771, 5.858312, 3.940557, 0.722001, 0.495821, -0.727940, 5.092838, -11.583542, -77.846405, -613.785095
1733468832.958751, 5.146785, 3.606865, 0.464774, 0.604268, -0.779742, 5.184062, -13.636887, -79.411499, -614.458374
1733468832.968748, 4.638915, 3.024625, 0.444573, 0.674444, -0.778706, 5.267186, -15.146866, -80.939835, -613.398560
1733468832.978755, 4.700566, 2.721908, 0.772130, 0.695379, -0.817311, 5.425443, -17.641617, -82.081100, -614.104248
1733468832.988745, 4.775086, 2.962226, 1.048810, 0.681601, -0.867439, 5.637918, -19.679245, -83.298279, -614.106689
1733468832.998749, 4.964377, 3.092710, 1.103727, 0.633258, -0.930297, 5.945291, -22.079544, -84.524765, -613.843994
1733468833.008755, 4.732738, 2.985869, 0.882114, 0.602907, -0.941344, 6.297868, -24.847992, -85.473801, -613.989197
1733468833.018764, 4.101118, 2.784457, 0.451756, 0.603972, -0.859597, 6.684128, -27.786835, -86.536377, -614.167969
1733468833.028765, 3.254169, 2.683002, 0.541538, 0.560419, -0.735411, 7.094596, -31.068756, -87.251877, -613.657959
1733468833.038737, 2.258031, 2.499547, 1.033996, 0.395489, -0.625149, 7.508428, -34.555435, -87.558609, -613.620483
1733468833.048742, 1.344494, 2.130989, 1.401506, 0.145973, -0.576584, 7.878515, -38.329269, -87.872681, -613.901306
1733468833.058749, 0.577900, 1.843386, 1.403900, -0.073710, -0.557839, 8.254807, -42.026321, -87.814896, -613.765076
1733468833.068743, -0.687435, 1.759888, 1.068861, -0.269299, -0.513076, 8.595984, -46.455246, -87.239624, -613.873169
1733468833.078746, -2.221520, 1.469591, 0.497844, -0.453162, -0.423294, 8.877358, -49.939880, -86.364380, -613.863037
1733468833.088767, -4.180725, 1.962497, -0.281319, -0.535816, -0.210571, 9.195979, -53.717560, -85.097794, -613.846802
1733468833.098757, -8.425944, 2.043601, -0.281917, -0.589277, -0.012387, 9.282599, -58.209351, -83.425797, -614.776367
1733468833.108768, -13.960740, -0.680253, 0.113725, -0.812085, 0.151455, 8.813238, -62.224747, -81.302887, -615.214050
1733468833.118757, -17.939603, -4.363133, 0.498293, -1.158964, 0.048698, 7.946185, -64.967834, -79.248581, -615.702698
1733468833.128745, -19.228133, -5.856068, 0.242712, -1.379943, -0.323474, 7.094608, -67.468399, -77.060852, -615.803833
1733468833.138769, -19.358168, -7.003638, -1.838298, -1.378317, -0.527530, 6.316313, -69.317657, -75.051361, -616.350525
1733468833.148753, -20.033333, -8.341698, -4.389619, -1.220151, -0.400000, 5.568681, -71.539902, -73.187286, -616.425049
1733468833.158746, -21.453094, -10.197653, -6.323835, -1.008112, -0.019657, 4.684777, -72.519150, -71.497833, -617.073914
1733468833.168763, -21.779753, -11.713033, -6.873753, -0.826778, 0.263471, 3.765999, -73.782257, -70.311066, -617.062988
1733468833.178076, -20.871303, -12.258612, -6.655282, -0.604183, 0.297883, 2.999303, -74.478561, -69.163162, -617.446533
1733468833.188743, -19.506309, -12.140697, -5.757307, -0.433251, 0.082295, 2.378921, -75.105881, -68.035263, -617.544128
1733468833.198742, -19.022980, -11.704803, -4.578911, -0.362688, -0.530359, 1.757565, -75.576599, -67.539230, -617.555176
1733468833.208761, -19.519477, -11.952154, -4.630236, -0.232649, -1.185970, 1.085489, -75.952637, -67.167740, -616.976440
1733468833.218738, -20.273800, -12.542175, -6.425439, -0.026125, -1.414397, 0.384820, -75.965240, -66.987686, -616.487366
1733468833.228762, -20.740819, -13.320440, -8.185775, 0.152786, -1.129082, -0.345670, -75.841248, -67.426971, -616.216980
1733468833.238738, -19.922002, -13.651439, -9.086594, 0.298780, -0.552764, -0.975946, -75.355728, -67.766891, -615.664062
1733468833.248755, -18.105402, -13.047800, -8.846276, 0.474622, 0.580271, -1.689011, -75.029190, -68.498123, -615.181458
1733468833.258741, -13.974656, -11.170148, -6.363339, 0.478460, 0.915861, -1.809697, -74.698898, -69.053726, -615.654907
1733468833.268725, -13.974656, -11.170148, -6.363339, 0.454675, 1.165586, -1.881091, -74.281845, -69.921112, -615.881470
1733468833.278744, -11.730241, -10.624569, -4.657321, 0.405352, 1.340750, -1.943099, -73.694412, -70.633102, -616.904663
1733468833.288732, -11.730241, -10.624569, -4.657321, 0.405352, 1.340750, -1.943099, -73.151688, -71.480331, -617.121094
1733468833.298750, -11.677569, -10.293571, -2.968810, 0.227228, 1.406930, -2.302855, -72.541336, -72.301880, -617.578125
1733468833.308735, -11.707496, -10.029610, -2.554015, 0.161259, 1.308371, -2.572075, -71.871078, -73.046524, -617.901245
1733468833.318753, -11.777677, -9.464728, -2.665944, 0.180690, 1.267325, -2.880797, -71.112488, -74.008392, -618.206543
1733468833.328754, -11.704504, -9.006238, -2.821716, 0.244404, 1.303327, -3.239098, -69.960388, -75.104645, -618.488953
1733468833.338732, -11.069891, -8.494777, -2.584690, 0.299470, 1.306839, -3.563860, -68.599594, -76.285675, -618.777710
1733468833.348745, -9.870096, -7.848343, -2.260276, 0.363519, 1.245223, -3.813108, -67.358139, -77.583572, -618.604309
1733468833.358734, -8.549096, -7.309198, -2.134580, 0.470818, 1.138249, -3.995845, -65.778839, -78.696472, -619.856140
1733468833.368734, -7.547272, -6.695983, -1.953220, 0.598075, 1.018600, -4.142159, -64.221603, -79.838028, -619.902039
1733468833.378726, -6.629694, -6.218041, -1.665467, 0.713007, 0.947896, -4.294687, -62.613922, -80.885086, -619.708130
1733468833.388735, -5.780052, -5.862502, -1.277456, 0.781995, 0.919214, -4.421593, -60.551758, -82.000290, -619.523621
1733468833.398720, -5.023634, -5.234922, -0.759710, 0.789375, 0.930605, -4.530436, -58.809875, -83.034653, -619.324707
1733468833.408719, -4.343381, -4.633079, -0.166397, 0.745427, 0.959894, -4.646758, -56.692123, -84.019058, -618.729065
1733468833.418735, -3.658190, -4.268562, 0.353294, 0.647312, 0.990539, -4.772458, -54.674072, -84.854248, -618.651001
1733468833.428732, -2.848651, -4.157382, 0.718560, 0.492373, 0.959587, -4.912500, -52.780014, -85.641968, -618.448547
1733468833.438726, -2.028487, -3.804835, 0.982969, 0.317364, 0.768947, -5.042092, -50.387466, -86.452454, -618.205139
1733468833.448718, -1.241543, -3.101090, 0.655263, 0.222405, 0.536259, -5.138945, -47.981277, -87.106033, -618.101685
1733468833.458712, -0.501885, -2.535160, -0.315586, 0.241172, 0.378412, -5.195762, -45.798676, -87.535202, -618.546082
1733468833.468737, 0.228796, -2.026392, -1.189918, 0.376556, 0.284689, -5.211947, -43.255249, -87.840988, -618.394043
1733468833.478720, 0.916530, -1.633893, -1.677288, 0.567286, 0.239510, -5.217325, -40.649170, -87.848099, -618.034851
1733468833.488720, 1.274015, -1.229722, -1.723077, 0.759536, 0.242444, -5.222560, -38.361511, -88.068863, -617.636536
1733468833.498718, 1.704672, -0.998981, -1.330727, 0.882245, 0.233707, -5.266773, -36.043182, -87.721680, -617.072937
1733468833.508715, 2.648735, -1.074099, -0.735170, 0.889561, 0.177961, -5.286783, -33.791489, -87.555786, -616.584961
1733468833.518717, 3.595343, -1.029656, -0.309002, 0.782328, 0.113359, -5.289748, -31.193466, -87.166336, -616.743713
1733468833.528725, 4.239832, -0.438438, -0.339079, 0.653277, 0.075672, -5.268510, -28.631714, -86.650726, -616.247925
1733468833.538716, 4.895394, 0.184653, -0.628478, 0.567755, 0.075926, -5.192537, -26.133224, -86.028336, -615.660034
1733468833.548716, 5.579088, 0.821810, -0.827945, 0.509492, 0.093185, -5.027568, -24.074234, -85.377792, -614.637329
1733468833.558716, 6.263830, 1.243488, -0.736516, 0.455708, 0.070502, -4.871719, -22.226685, -84.455658, -614.744751
1733468833.568724, 6.757335, 1.496526, -0.581641, 0.393851, 0.019868, -4.730963, -20.256378, -83.426285, -615.040894
1733468833.578722, 7.410653, 1.647660, -0.679205, 0.318452, 0.026097, -4.597963, -18.315979, -82.560837, -614.691956
1733468833.588716, 8.286631, 1.761983, -0.748487, 0.201215, 0.015672, -4.433735, -16.839951, -81.625824, -614.477783
1733468833.598024, 8.794801, 1.633294, -1.203685, 0.067710, 0.118455, -4.309985, -14.935883, -80.536545, -613.824524
1733468833.608723, 9.296086, 1.965640, -2.130091, -0.002964, 0.374945, -4.140486, -13.747147, -79.388199, -614.366882
1733468833.618728, 9.526678, 2.570924, -2.552369, 0.016794, 0.666942, -3.989934, -12.330505, -78.334412, -614.253906
1733468833.628718, 9.723751, 2.763657, -2.238279, 0.076326, 0.796214, -3.872116, -11.130951, -77.151031, -613.724182
1733468833.638725, 10.429142, 3.167978, -1.310227, 0.153361, 0.638407, -3.741454, -9.988983, -76.148819, -613.712646
1733468833.648729, 11.015572, 3.205237, -0.608875, 0.219918, 0.311321, -3.654366, -8.750259, -75.124969, -613.390869
1733468833.658142, 11.507431, 3.096002, -0.564882, 0.252753, 0.037653, -3.590605, -7.612396, -73.848663, -613.377319
1733468833.667738, 12.168680, 3.446453, -1.076643, 0.229318, -0.037222, -3.485785, -6.595291, -72.585190, -612.874512
1733468833.678720, 12.862699, 3.961955, -1.724573, 0.200872, 0.077170, -3.379217, -5.716064, -71.473526, -613.350464
1733468833.688727, 13.776236, 4.662708, -2.109142, 0.204511, 0.242538, -3.226236, -5.126328, -70.485703, -612.284485
1733468833.698716, 14.814272, 5.300912, -2.084601, 0.285651, 0.320673, -3.044137, -4.527832, -69.463837, -612.834106
1733468833.708711, 15.831060, 6.045658, -1.947683, 0.423337, 0.403183, -2.864028, -3.732300, -68.116806, -612.043335
1733468833.717720, 17.395820, 6.902783, -1.136198, 0.460006, 0.395455, -2.613823, -3.098862, -67.286743, -612.202881
1733468833.728726, 18.953099, 7.694216, -0.044592, 0.386875, 0.290347, -2.297583, -2.802429, -66.318665, -612.502991
1733468833.738783, 19.975872, 8.210316, 0.397288, 0.303403, 0.175221, -1.980227, -2.452652, -65.668533, -611.286621
1733468833.748726, 21.165042, 8.717139, 0.280421, 0.224522, 0.155036, -1.615608, -2.262817, -65.082901, -611.462524
1733468833.758722, 22.605005, 9.641600, 0.300173, 0.118738, 0.147024, -1.145340, -1.746597, -64.513916, -611.038574
1733468833.768726, 23.660249, 10.446351, 0.459238, 0.048961, 0.063803, -0.582723, -1.628098, -64.203415, -611.678833
1733468833.778725, 24.158243, 10.618434, 0.395343, 0.048990, -0.058525, 0.008284, -1.487183, -64.335251, -611.506226
1733468833.788715, 24.278103, 10.556334, 0.393397, 0.069037, -0.217716, 0.651389, -1.517227, -64.599487, -611.071350
1733468833.798712, 23.690925, 10.366444, 0.272789, 0.092531, -0.326934, 1.314272, -1.623795, -64.904099, -611.676392
1733468833.808720, 22.337004, 9.896133, -0.051176, 0.136962, -0.341468, 1.932029, -1.948181, -65.429901, -611.499817
1733468833.818720, 20.591481, 9.125799, -0.120458, 0.182140, -0.326241, 2.468038, -2.261642, -66.405899, -612.188599
1733468833.828772, 18.553118, 8.375815, -0.009128, 0.231620, -0.287360, 2.879302, -3.082596, -67.510696, -612.202209
1733468833.838724, 16.468516, 7.649325, 0.242413, 0.259261, -0.251882, 3.147450, -3.716705, -68.777008, -611.356323
1733468833.848724, 14.780454, 6.924779, 0.635361, 0.255001, -0.268051, 3.298078, -4.575058, -69.941254, -612.042297
1733468833.858712, 13.546692, 6.312313, 0.814627, 0.265426, -0.337685, 3.359222, -5.239227, -71.063141, -611.428284
1733468833.868723, 12.970587, 5.896919, 0.920870, 0.317775, -0.539589, 3.419136, -6.149368, -72.234726, -612.196350
1733468833.878706, 12.821399, 5.669918, 0.755820, 0.448717, -0.798463, 3.527869, -7.001999, -73.246964, -612.277283
1733468833.888715, 12.441768, 5.522825, 0.365565, 0.654323, -1.031074, 3.710213, -8.244751, -74.694183, -611.738770
1733468833.898725, 11.672332, 4.967968, 0.277578, 0.843683, -1.194347, 3.879192, -9.556793, -75.858093, -612.542114
1733468833.908709, 10.958860, 4.194791, 0.374992, 0.946375, -1.301508, 4.037297, -10.501785, -76.842102, -611.998962
1733468833.918721, 10.569203, 3.872920, 0.674267, 0.988622, -1.420285, 4.252869, -12.087158, -77.964020, -612.550781
1733468833.928726, 9.894338, 3.559729, 0.423774, 1.002841, -1.365908, 4.465406, -13.248734, -79.543106, -612.672729
1733468833.938715, 9.266009, 3.127875, 0.024541, 0.975453, -1.207448, 4.651124, -15.091614, -80.724564, -611.853027
1733468833.948725, 9.014469, 2.916736, -0.106841, 0.935383, -1.043509, 4.851576, -17.084198, -81.742599, -612.727173
1733468833.958713, 8.891018, 2.967314, -0.452654, 0.944312, -0.893736, 5.074695, -18.673828, -82.972000, -612.568787
1733468833.968718, 8.879795, 3.070115, -0.587926, 1.030253, -0.872911, 5.382975, -20.661713, -84.011978, -611.444092
1733468833.978709, 8.293814, 3.042432, -0.411054, 1.197654, -0.915794, 5.727305, -23.088547, -84.914154, -611.738525
1733468833.988767, 7.003040, 2.799121, 0.106093, 1.314930, -0.934229, 6.057194, -25.334167, -85.816925, -610.533691
1733468833.997829, 5.573253, 2.569727, 0.951546, 1.249339, -0.878527, 6.385473, -28.105515, -86.616669, -610.782410
1733468834.008703, 4.110695, 2.478298, 1.573290, 0.977786, -0.709522, 6.696108, -31.243698, -87.246979, -609.919067
1733468834.018706, 2.989460, 2.370260, 1.509993, 0.582281, -0.415060, 6.987988, -34.191544, -87.681671, -609.735962
1733468834.028702, 2.358588, 2.439991, 0.781856, 0.218086, -0.069848, 7.310223, -37.788269, -87.868118, -610.286804
1733468834.038709, 1.891419, 2.782511, -0.174777, -0.000413, 0.264101, 7.698144, -41.386688, -87.754791, -609.881287
1733468834.048715, 0.560842, 3.010409, -0.870741, -0.083294, 0.614758, 8.084262, -45.070312, -87.501007, -610.808167
1733468834.058714, -1.883339, 2.984672, -0.899172, -0.136095, 0.985867, 8.334333, -49.285904, -86.550522, -610.218201
1733468834.068718, -4.082712, 2.380136, -0.500538, -0.308509, 1.357157, 8.409081, -53.034851, -85.678284, -610.671936
1733468834.078718, -5.894824, 1.735048, 0.223559, -0.654712, 1.566244, 8.374535, -56.638123, -84.101990, -611.484619
1733468834.088715, -7.469011, 1.366191, 0.843058, -1.077357, 1.486648, 8.257586, -60.382889, -82.517700, -611.599915
1733468834.097719, -8.829217, 1.126173, 0.845752, -1.368539, 0.986833, 8.020523, -63.870316, -80.554932, -613.547180
1733468834.108708, -10.019884, 0.361674, -0.092326, -1.299950, 0.188958, 7.642623, -66.580139, -78.550751, -613.538330
1733468834.118715, -11.621006, -0.358232, -1.828272, -0.795759, -0.585409, 7.234852, -69.475327, -76.239487, -613.432495
1733468834.128702, -14.880861, -2.266411, -3.434033, -0.112303, -0.988350, 6.529890, -71.612244, -73.898621, -613.348877
1733468834.138711, -16.971149, -4.672883, -4.118625, 0.403507, -1.090044, 5.722763, -72.774109, -72.027298, -612.257141
1733468834.148728, -17.596634, -5.238513, -2.980033, 0.682682, -1.330031, 5.062995, -74.249298, -70.249802, -611.887939
1733468834.158718, -18.376545, -5.627421, -1.567604, 0.838701, -1.877007, 4.447656, -75.310059, -68.474167, -611.055176
1733468834.168715, -19.568558, -6.892907, -1.060182, 1.025212, -2.566147, 3.776592, -75.744904, -66.952515, -608.972290
1733468834.178713, -20.284724, -8.459762, -2.183512, 1.286202, -2.921294, 3.142153, -76.070206, -65.593506, -607.930176
1733468834.188717, -21.018996, -9.604639, -3.447501, 1.489336, -2.721378, 2.577737, -76.426956, -64.386719, -606.157837
1733468834.197778, -22.427235, -11.055525, -3.602226, 1.424936, -2.038598, 1.962870, -76.419327, -63.446640, -605.667114
1733468834.208717, -23.089980, -12.116306, -2.819621, 1.105874, -1.097835, 1.357112, -76.582687, -62.903412, -604.990356
1733468834.218701, -23.063345, -12.846538, -2.014272, 0.606944, -0.080429, 0.803508, -76.979721, -62.610291, -604.519165
1733468834.228706, -22.596026, -12.764387, -1.005116, 0.131660, 0.701002, 0.333879, -77.608261, -62.549789, -605.583191
1733468834.238699, -22.777986, -13.097480, -0.559046, -0.275629, 1.244952, -0.266438, -77.848221, -63.028625, -605.557861
1733468834.248708, -22.603658, -13.392865, -0.252738, -0.624090, 1.435589, -1.023413, -77.819122, -63.676941, -607.283386
1733468834.258172, -20.982035, -13.089400, -0.804152, -0.836042, 1.422733, -1.764008, -77.819122, -63.676941, -607.283386
1733468834.268701, -18.024897, -12.002881, -1.656189, -0.862512, 1.262938, -2.286073, -77.064362, -65.694702, -608.017090
1733468834.278716, -14.806791, -10.674249, -2.514510, -0.729092, 1.017399, -2.556473, -76.365356, -66.795273, -609.159790
1733468834.288699, -12.439823, -9.748890, -3.241450, -0.509196, 0.763725, -2.649286, -75.588470, -67.983917, -609.775940
1733468834.298708, -11.328315, -9.140014, -3.815160, -0.268858, 0.621081, -2.659467, -74.699188, -69.032043, -608.914001
1733468834.308726, -11.410466, -8.864382, -4.414010, -0.046373, 0.709359, -2.693981, -74.235886, -70.144272, -610.041382
1733468834.318719, -12.128577, -8.631845, -4.570681, 0.116404, 0.967709, -2.815196, -73.363174, -71.193100, -610.631897
1733468834.328695, -12.931083, -8.428188, -3.958364, 0.190258, 1.270897, -3.052181, -72.426193, -72.433243, -610.455994
1733468834.338703, -13.319243, -8.322245, -2.953547, 0.181220, 1.502711, -3.380549, -71.512589, -73.621918, -611.451050
1733468834.348696, -13.011887, -8.163779, -1.853561, 0.125491, 1.619817, -3.747923, -71.512589, -73.621918, -611.451050
1733468834.358725, -11.952753, -7.621342, -0.989254, 0.047418, 1.544224, -4.083675, -70.145309, -75.160385, -611.920654
1733468834.368700, -10.474932, -6.888417, -0.557101, 0.013967, 1.312300, -4.329409, -69.005157, -76.501160, -612.732849
1733468834.378705, -9.148544, -6.177639, -0.732626, 0.073022, 1.062675, -4.517722, -67.545410, -77.906677, -612.297607
1733468834.388746, -8.127716, -5.596895, -1.231069, 0.219004, 0.925338, -4.644275, -65.547333, -79.285919, -613.283264
1733468834.398698, -7.301268, -4.831798, -1.450138, 0.393174, 0.944114, -4.716064, -63.649231, -80.514450, -613.448730
1733468834.408692, -6.569839, -4.006098, -1.148618, 0.526958, 1.091685, -4.738650, -61.817261, -81.761459, -613.269043
1733468834.418699, -5.669170, -3.771317, -0.384120, 0.574066, 1.250481, -4.755033, -60.211304, -82.756454, -612.772827
1733468834.428713, -4.798429, -4.400543, 0.842310, 0.493789, 1.197471, -4.850049, -58.316360, -83.935272, -613.773254
1733468834.438701, -4.226065, -4.857087, 2.064400, 0.303369, 0.846478, -5.038869, -56.170837, -85.075790, -613.793762
1733468834.448710, -4.097078, -4.446631, 2.598457, 0.103013, 0.318021, -5.309596, -53.833023, -85.873962, -613.897095
1733468834.458704, -3.819949, -3.839851, 2.004994, -0.033819, -0.163305, -5.607673, -51.317276, -86.691986, -614.011047
1733468834.468706, -3.285892, -3.075053, 0.672920, -0.058110, -0.433517, -5.823526, -48.377502, -87.303177, -612.914734
1733468834.478695, -2.574814, -2.056170, -0.711527, 0.009487, -0.388809, -5.919068, -45.445267, -87.784134, -613.067017
1733468834.488696, -1.931821, -0.939275, -1.563863, 0.110590, -0.064737, -5.931533, -42.428452, -88.059769, -613.225586
1733468834.498694, -1.065869, -0.268001, -1.757344, 0.195396, 0.390659, -5.888867, -40.017197, -88.134964, -613.510193
1733468834.508698, 0.363470, -0.704793, -1.245883, 0.200902, 0.716982, -5.866378, -37.446228, -88.340942, -613.687988
1733468834.518700, 1.802684, -1.456872, -0.229993, 0.126573, 0.747210, -5.891895, -34.955368, -88.222778, -613.400452
1733468834.528698, 3.118148, -1.212663, 0.726042, 0.062548, 0.513978, -5.927077, -32.669250, -87.852310, -613.051025
1733468834.537995, 4.198682, -0.274136, 1.296909, -0.007478, 0.141959, -5.921468, -29.808762, -87.304565, -613.176453
1733468834.548702, 5.024382, 0.672920, 1.411831, -0.100115, -0.309357, -5.865279, -26.986145, -86.667740, -613.103149
1733468834.558711, 5.655553, 1.516727, 1.004517, -0.183356, -0.662816, -5.759162, -24.509567, -86.070969, -613.039856
1733468834.568701, 6.245574, 1.977311, -0.100706, -0.263975, -0.716524, -5.664370, -21.906311, -84.944931, -613.386292
1733468834.578699, 7.438934, 2.240673, -1.058536, -0.381074, -0.564611, -5.464840, -19.646713, -83.791183, -613.545105
1733468834.588698, 9.088240, 2.461389, -1.550395, -0.577737, -0.312710, -5.157337, -17.441483, -82.675873, -613.276978
1733468834.598718, 10.746823, 2.781464, -2.113033, -0.766257, -0.017731, -4.795580, -15.966080, -81.520905, -614.209229
1733468834.608696, 12.410195, 3.148674, -2.594417, -0.879339, 0.248985, -4.399513, -14.234421, -80.374863, -614.390747
1733468834.618686, 13.904027, 3.607912, -2.742408, -0.862532, 0.346684, -4.006531, -13.050156, -79.620621, -614.887634
1733468834.628687, 14.915427, 4.189254, -2.485930, -0.746989, 0.205166, -3.641596, -12.053085, -78.530640, -615.215698
1733468834.638699, 15.168914, 4.612429, -2.110489, -0.577512, -0.131196, -3.337400, -10.824539, -77.548340, -615.123230
1733468834.648696, 15.004163, 4.299837, -2.204162, -0.415055, -0.472283, -3.174411, -10.033630, -76.500458, -615.459656
1733468834.658700, 15.206024, 4.073285, -2.587982, -0.306045, -0.742255, -3.018917, -8.820923, -75.577286, -616.026306
1733468834.668704, 15.898995, 4.414160, -3.364602, -0.228038, -0.836133, -2.747471, -8.139984, -74.648529, -615.482788
1733468834.678697, 16.230592, 4.576816, -4.125958, -0.150496, -0.764589, -2.450460, -7.112442, -73.773193, -616.451416
1733468834.688696, 16.423774, 4.569035, -4.856638, -0.065680, -0.503862, -2.166482, -6.559509, -72.956665, -616.786438
1733468834.698691, 16.742652, 4.838682, -5.139154, 0.030343, -0.177629, -1.909574, -6.251938, -72.453323, -617.070007
1733468834.708009, 17.037438, 5.223101, -4.691139, 0.116102, 0.118703, -1.685677, -5.725632, -71.794312, -616.471802
1733468834.718690, 17.386543, 5.625177, -3.737648, 0.115032, 0.323886, -1.495189, -5.503784, -71.377060, -616.223328
1733468834.728687, 17.833061, 5.779453, -2.832640, 0.059255, 0.437374, -1.332240, -5.356522, -70.878708, -616.160889
1733468834.738689, 18.412758, 6.058228, -2.290204, 0.034565, 0.464756, -1.189811, -5.271881, -70.264832, -615.910889
1733468834.748699, 19.535040, 6.581660, -1.570596, 0.022487, 0.261298, -0.995639, -4.636383, -70.018677, -615.366333
1733468834.758697, 20.950761, 7.310844, -0.980276, 0.034626, -0.149980, -0.656941, -4.544830, -69.899277, -615.925232
1733468834.768707, 22.023962, 7.649175, -1.453729, 0.126067, -0.526848, -0.181016, -4.211517, -69.677338, -615.913574
1733468834.778665, 22.481254, 7.757662, -2.438494, 0.268418, -0.686933, 0.419067, -4.153061, -69.726715, -615.834778
1733468834.788700, 22.222082, 7.767089, -3.091962, 0.393111, -0.641407, 1.073112, -4.410614, -70.141983, -616.728394
1733468834.798701, 21.245547, 7.582287, -3.303998, 0.468595, -0.408189, 1.704752, -4.724213, -70.699966, -616.593079
1733468834.808701, 19.987544, 7.355586, -3.072060, 0.466302, -0.119315, 2.270594, -5.195557, -71.599686, -616.040222
1733468834.818713, 18.690485, 7.185149, -2.315043, 0.399047, 0.117743, 2.756309, -5.954422, -72.573639, -616.415588
1733468834.828702, 17.327885, 6.994361, -1.805378, 0.309343, 0.329258, 3.155122, -6.761612, -73.633636, -616.308716
1733468834.838683, 16.098013, 6.670096, -1.519570, 0.201109, 0.530274, 3.476359, -7.825226, -74.638351, -615.999695
1733468834.848689, 15.146618, 6.380847, -1.286883, 0.087995, 0.701705, 3.756737, -9.027954, -75.969070, -615.208313
1733468834.858684, 14.484321, 6.280290, -0.999430, 0.009246, 0.732366, 4.035443, -10.081543, -77.435699, -615.529663
1733468834.868684, 14.007426, 6.153697, -0.625186, 0.008347, 0.578008, 4.344408, -12.057526, -78.718994, -615.504761
1733468834.878682, 13.330017, 5.869535, -0.443975, 0.081494, 0.330989, 4.659418, -13.463959, -79.786774, -615.010986
1733468834.888683, 12.267590, 5.360618, -0.509067, 0.189310, 0.119733, 4.950105, -15.246689, -81.182434, -615.290771
1733468834.898682, 11.068544, 4.884321, -0.557849, 0.283712, -0.012884, 5.226291, -17.197983, -82.389114, -615.198608
1733468834.908685, 9.821913, 4.468777, -0.544681, 0.340187, -0.026957, 5.466221, -19.382248, -83.638382, -615.091675
1733468834.918682, 8.659229, 3.911078, -0.458939, 0.318407, 0.080295, 5.646933, -21.689301, -84.578598, -614.981873
1733468834.928686, 7.752425, 3.394978, -0.156222, 0.214694, 0.217012, 5.813035, -24.148956, -85.633118, -614.711548
1733468834.938686, 6.813898, 3.171270, 0.196325, 0.097082, 0.312864, 5.979696, -26.785156, -86.775391, -614.828979
1733468834.948696, 5.966799, 2.849549, 0.623839, -0.014265, 0.306405, 6.139632, -29.548767, -87.553421, -614.169495
1733468834.958680, 5.164443, 2.425626, 1.055095, -0.123294, 0.215161, 6.322023, -32.272675, -88.016068, -615.060913
1733468834.968681, 4.015076, 1.672799, 1.397615, -0.289133, 0.091405, 6.423803, -35.644470, -88.462540, -615.291199
1733468834.978692, 3.322254, 0.731129, 1.403002, -0.505957, -0.039503, 6.491792, -38.457153, -88.442444, -615.508240
1733468834.988730, 3.361609, 0.418237, 1.146074, -0.708435, -0.189797, 6.686030, -41.064713, -88.374680, -615.451843
1733468834.998678, 3.475483, 1.215955, 0.352845, -0.824190, -0.268993, 7.072944, -44.401688, -88.068741, -616.124207
1733468835.008677, 2.946215, 2.212392, -0.610970, -0.854051, -0.222242, 7.535729, -47.959946, -87.598495, -616.583557
1733468835.018677, 1.933019, 2.740613, -1.377115, -0.829435, -0.043640, 8.046830, -51.434753, -86.532501, -616.980713
1733468835.028722, -0.043395, 2.856133, -1.750012, -0.799439, 0.239510, 8.493052, -54.970673, -85.100662, -617.006592
1733468835.038680, -3.004125, 2.743456, -1.600075, -0.862727, 0.712831, 8.841716, -58.951813, -83.041656, -617.575928
1733468835.048690, -6.685658, 2.365621, -0.978480, -1.190296, 1.347757, 8.957351, -63.312927, -81.128387, -618.083740
1733468835.058685, -10.253618, 1.348684, 0.424223, -1.815852, 1.554764, 8.626915, -66.291412, -78.612457, -619.669434
1733468835.068674, -13.314904, 0.742951, 2.066046, -2.333357, 0.735216, 8.033291, -69.655167, -76.160202, -620.926758
1733468835.078717, -17.271322, -0.440982, 1.611747, -2.334077, -0.768165, 7.105769, -72.035126, -73.871872, -621.596680
1733468835.088675, -21.611411, -3.347692, -1.190666, -1.721053, -2.142667, 5.809450, -73.669235, -71.886322, -621.085205
1733468835.098692, -24.719384, -6.943634, -5.060444, -0.823199, -2.731416, 4.309939, -74.415115, -70.218674, -619.989685
1733468835.108680, -25.481339, -9.454253, -7.009923, -0.102404, -2.789805, 2.930954, -74.602249, -69.370911, -619.026306
1733468835.118684, -23.879318, -9.492411, -6.450279, 0.324465, -2.771271, 1.932040, -74.886490, -68.499496, -617.703979
1733468835.128683, -21.329943, -8.976610, -5.542128, 0.596248, -2.775169, 1.317250, -75.230316, -67.960953, -615.993713
1733468835.138684, -18.806604, -8.958354, -5.262006, 0.820079, -2.731539, 1.029910, -75.421463, -67.701187, -614.851929
1733468835.148679, -17.399262, -9.321375, -5.242105, 0.964194, -2.513345, 0.893864, -75.530624, -67.370605, -612.783386
1733468835.158677, -16.940772, -9.933992, -5.334730, 0.941282, -2.002100, 0.769669, -75.801102, -67.015091, -612.793518
1733468835.168744, -16.513557, -10.394427, -5.256619, 0.745276, -1.237826, 0.657312, -76.319946, -66.749695, -612.415344
1733468835.178691, -16.179117, -10.993276, -5.215619, 0.456094, -0.288473, 0.523341, -76.479294, -66.516068, -612.320984
1733468835.188689, -15.828965, -11.627141, -4.918887, 0.157105, 0.617709, 0.345100, -76.930374, -66.497025, -612.748840
1733468835.198684, -15.313463, -12.061240, -4.191948, -0.083433, 1.278907, 0.111795, -77.089233, -66.425156, -613.520325
1733468835.208676, -14.710723, -12.341212, -3.329886, -0.259442, 1.592980, -0.190376, -77.295242, -66.801559, -614.479187
1733468835.218673, -14.053365, -12.210129, -2.447024, -0.366906, 1.500620, -0.550216, -77.248734, -67.186813, -615.121399
1733468835.228683, -13.195792, -11.957242, -2.127547, -0.354016, 1.152100, -0.913271, -76.912750, -67.645737, -615.731567
1733468835.238682, -12.170326, -11.615469, -2.318036, -0.248668, 0.701451, -1.209964, -76.608368, -68.273849, -615.651306
1733468835.248688, -11.470471, -10.942399, -2.504185, -0.138905, 0.277732, -1.438118, -76.193558, -68.827728, -615.237854
1733468835.258690, -11.005098, -10.391134, -2.959233, -0.067787, 0.042031, -1.616283, -75.476181, -69.409439, -615.612610
1733468835.268683, -10.551097, -10.216807, -3.498078, -0.039583, 0.064479, -1.751462, -74.845734, -70.180313, -616.056946
1733468835.278683, -10.161740, -10.072706, -3.892074, -0.085682, 0.292118, -1.837620, -74.457062, -70.769135, -616.058655
1733468835.288683, -10.162339, -9.471761, -3.963601, -0.176803, 0.636035, -1.912421, -73.761169, -71.658234, -616.402893
1733468835.298678, -10.438121, -8.976012, -4.065205, -0.243533, 1.044332, -2.011501, -73.019562, -72.413284, -617.057373
1733468835.308676, -10.528352, -8.643218, -4.031087, -0.254988, 1.438109, -2.138469, -72.617889, -73.366470, -617.615479
1733468835.318696, -10.370933, -8.409933, -3.813065, -0.227564, 1.741563, -2.309557, -71.619629, -74.247208, -618.199890
1733468835.328689, -10.016741, -8.241890, -3.379416, -0.152778, 1.910428, -2.506460, -70.755661, -75.132584, -619.012939
1733468835.338682, -9.486725, -8.005911, -2.789245, -0.045394, 1.900140, -2.728664, -69.988297, -76.165253, -619.583130
1733468835.348678, -8.700978, -7.620894, -2.052729, 0.090061, 1.638054, -2.932712, -68.907761, -77.166931, -618.897095
1733468835.358683, -8.077587, -7.175871, -1.593042, 0.271373, 1.253260, -3.146326, -67.538086, -78.100510, -619.918030
1733468835.368691, -7.450905, -6.960543, -1.545906, 0.455161, 0.891504, -3.359222, -66.387726, -79.291275, -620.013672
1733468835.378681, -6.786215, -6.649895, -1.458368, 0.606461, 0.586255, -3.547497, -64.602478, -80.357101, -619.939331
1733468835.388669, -6.167314, -6.320393, -1.429787, 0.719054, 0.440072, -3.719637, -63.170456, -81.109222, -619.740540
1733468835.398669, -5.639542, -5.831976, -1.433678, 0.787158, 0.490879, -3.846262, -61.386734, -82.287231, -619.190186
1733468835.408677, -5.111770, -5.428403, -1.220444, 0.781435, 0.689215, -3.940831, -59.720245, -83.197922, -619.596069
1733468835.418675, -4.396652, -5.418228, -0.745495, 0.676882, 0.936327, -4.029302, -58.150772, -84.145264, -619.370178
1733468835.428687, -3.511396, -5.474342, -0.115221, 0.475951, 1.109897, -4.132054, -56.353409, -85.017624, -619.491943
1733468835.438682, -2.516456, -5.556792, 0.314987, 0.236537, 1.178221, -4.243370, -54.510803, -85.710434, -619.315308
1733468835.448680, -1.584961, -5.266795, 0.293140, 0.049930, 1.179987, -4.339042, -52.398773, -86.508560, -619.513916
1733468835.458726, -0.765396, -4.532673, 0.079607, -0.031573, 1.105889, -4.414996, -50.431900, -87.037598, -620.512939
1733468835.468673, -0.048483, -3.882797, -0.112378, 0.003749, 0.918156, -4.460582, -48.457047, -87.508392, -620.007874
1733468835.478669, 0.392200, -3.379565, -0.414197, 0.125877, 0.725142, -4.517900, -46.293106, -88.010437, -620.235901
1733468835.488667, 0.834529, -3.148674, -0.804152, 0.292578, 0.590151, -4.585284, -44.342514, -88.198822, -619.465820
1733468835.498722, 1.729661, -3.126977, -0.780360, 0.432812, 0.456069, -4.629598, -42.224792, -88.378281, -619.458008
1733468835.508666, 2.808997, -3.364901, -0.508319, 0.507698, 0.288092, -4.661196, -39.871170, -88.230316, -619.302551
1733468835.518665, 3.545962, -3.102436, -0.408960, 0.501529, 0.189617, -4.666416, -37.628189, -88.288818, -619.058472
1733468835.528664, 4.295497, -2.442535, -0.550517, 0.436375, 0.219541, -4.631480, -35.457962, -88.270248, -618.565369
1733468835.538671, 4.778677, -1.917307, -0.478541, 0.316109, 0.312691, -4.569734, -33.638153, -87.983124, -618.406250
1733468835.548666, 5.012860, -1.625364, -0.199916, 0.124981, 0.418529, -4.543885, -31.678253, -87.730087, -618.076660
1733468835.558668, 5.500678, -1.414225, -0.178667, -0.078067, 0.533595, -4.513948, -29.637222, -87.197235, -618.797852
1733468835.568676, 6.460604, -1.237503, -0.302268, -0.193707, 0.573698, -4.471845, -27.641861, -86.746536, -618.872498
1733468835.578667, 7.749731, -1.049259, -0.465672, -0.248271, 0.546617, -4.342074, -25.783859, -86.244446, -618.832397
1733468835.588674, 8.724321, -0.547225, -0.639701, -0.307659, 0.515570, -4.144990, -24.003586, -85.536774, -618.457031
1733468835.598667, 9.237429, -0.285359, -1.117793, -0.372424, 0.537238, -3.979916, -22.245132, -84.759018, -618.698120
1733468835.608663, 9.699958, 0.027234, -1.651101, -0.354092, 0.538030, -3.792640, -20.970108, -84.092056, -618.454163
1733468835.618675, 9.856330, 0.002693, -2.166004, -0.274887, 0.540343, -3.642516, -19.555054, -83.441589, -618.582458
1733468835.628663, 9.718813, -0.225205, -2.676119, -0.180989, 0.624834, -3.547772, -18.292328, -82.564285, -618.654419
1733468835.638668, 9.839421, -0.167295, -2.868703, -0.056270, 0.714449, -3.485892, -16.917038, -82.014389, -618.040466
1733468835.648665, 10.914567, 0.127491, -2.681506, 0.090663, 0.751092, -3.371672, -15.963226, -81.218948, -617.357910
1733468835.658676, 11.997195, 0.762853, -2.094328, 0.218195, 0.690398, -3.215322, -15.027527, -80.206070, -618.151489
1733468835.668681, 12.730569, 1.111059, -1.432780, 0.313754, 0.552163, -3.095652, -13.690582, -79.629868, -617.229919
1733468835.678699, 13.683611, 1.295712, -1.072303, 0.462169, 0.113396, -2.807167, -12.635956, -78.899734, -617.407349
1733468835.688681, 15.329924, 2.047042, -0.517896, 0.492361, -0.126005, -2.650239, -12.299606, -78.156631, -617.182312
1733468835.698672, 15.329924, 2.047042, -0.517896, 0.492361, -0.126005, -2.650239, -11.071579, -77.237228, -616.519958
1733468835.708670, 16.345514, 2.694225, -0.800561, 0.530237, -0.304639, -2.313370, -10.358383, -76.683746, -616.467407
1733468835.718658, 17.294665, 3.136853, -0.793528, 0.504983, -0.249932, -2.046769, -10.018982, -76.029160, -616.801514
1733468835.728666, 18.054226, 3.750218, -0.832434, 0.449610, -0.034512, -1.780551, -9.677170, -75.610321, -616.502991
1733468835.738664, 19.098547, 4.311957, -0.457741, 0.360717, 0.130458, -1.495306, -9.026093, -75.048584, -616.494751
1733468835.748661, 20.236690, 4.563797, 0.381726, 0.249215, 0.121625, -1.173371, -8.911057, -74.500443, -615.512878
1733468835.758692, 20.793641, 4.971560, 0.699257, 0.249215, 0.121625, -1.173371, -8.911057, -74.500443, -615.512878
1733468835.768682, 21.044733, 5.251382, 0.725144, 0.159120, 0.084777, -0.830041, -8.571808, -74.220322, -616.189941
1733468835.778673, 21.209335, 5.177611, 0.680103, 0.006603, -0.047963, 0.025903, -7.908524, -74.296204, -616.408142
1733468835.788680, 21.307048, 4.872051, 0.546776, -0.014841, -0.195102, 0.527855, -8.287140, -74.357513, -616.216125
1733468835.798662, 21.304803, 4.722263, 0.518045, -0.016828, -0.399650, 1.087151, -8.177811, -74.687958, -616.454407
1733468835.808640, 20.552575, 4.507534, 0.250194, -0.024833, -0.515595, 1.633874, -8.177811, -74.687958, -616.454407
1733468835.818677, 19.024326, 4.138228, -0.253187, -0.031910, -0.466590, 2.086401, -8.626068, -75.170578, -616.413330
1733468835.828669, 17.453880, 3.707421, -0.387861, -0.062354, -0.346576, 2.441284, -10.145020, -76.762924, -616.894653
1733468835.837856, 17.453880, 3.707421, -0.387861, -0.062354, -0.346576, 2.441284, -10.145020, -76.762924, -616.894653
1733468835.848676, 14.827441, 2.953697, 0.002095, -0.193644, -0.161500, 2.851692, -11.263397, -77.581375, -617.439636
1733468835.858668, 14.014759, 2.550423, 0.082151, -0.262478, -0.162717, 2.960468, -12.367157, -78.435379, -616.832581
1733468835.868673, 13.456311, 2.251597, -0.147543, -0.280618, -0.208588, 3.069062, -13.220474, -79.349152, -617.395386
1733468835.878661, 12.877363, 2.042254, -0.521637, -0.229059, -0.275733, 3.176153, -14.210724, -80.248566, -617.658813
1733468835.888659, 12.309788, 1.744774, -0.806098, -0.115595, -0.372625, 3.277765, -15.165955, -81.060760, -617.418457
1733468835.898668, 11.936891, 1.584363, -0.834978, 0.048575, -0.547044, 3.399848, -16.633484, -81.566132, -617.579895
1733468835.908670, 11.624298, 1.534683, -0.657508, 0.220242, -0.805910, 3.545343, -17.800385, -82.489594, -617.863770
1733468835.918657, 11.066748, 1.500716, -0.757166, 0.381452, -0.984310, 3.692028, -19.356827, -83.294525, -617.768127
1733468835.928664, 10.348637, 1.511041, -1.197101, 0.516577, -0.983946, 3.830765, -20.813141, -84.003418, -618.022095
1733468835.938673, 9.842114, 1.552341, -1.311424, 0.608313, -0.902396, 4.019215, -22.002914, -84.873749, -618.024841
1733468835.948667, 9.418789, 1.552191, -1.185579, 0.638388, -0.803564, 4.273592, -23.459045, -85.662567, -618.043091
1733468835.958667, 8.786570, 1.660528, -1.142932, 0.641764, -0.683043, 4.576627, -25.341888, -86.176086, -617.936646
1733468835.968659, 7.964162, 1.836353, -0.928950, 0.636915, -0.584060, 4.911082, -27.347961, -86.880432, -617.377808
1733468835.978657, 6.901286, 1.792958, -0.350302, 0.563330, -0.544088, 5.231510, -29.358643, -87.589218, -617.386902
1733468835.988656, 5.740098, 1.615338, 0.197971, 0.420533, -0.563016, 5.509267, -32.107330, -87.983582, -616.882996
1733468835.998656, 4.697124, 1.608155, 0.398934, 0.269553, -0.581896, 5.759316, -34.472214, -88.378815, -617.115173
1733468836.008655, 3.980211, 1.679383, 0.176572, 0.130382, -0.538885, 6.025758, -37.287109, -88.558899, -616.999146
1733468836.018655, 3.689914, 1.819294, -0.313341, -0.008150, -0.420251, 6.383314, -39.942596, -88.553192, -616.889709
1733468836.028653, 3.258508, 2.211644, -0.932841, -0.121818, -0.201045, 6.809920, -42.941299, -88.319305, -616.393311
1733468836.038655, 1.941847, 2.806154, -1.242740, -0.212429, 0.074129, 7.275615, -46.048767, -87.934891, -616.875000
1733468836.048654, -0.755670, 2.382530, -1.022474, -0.368686, 0.364161, 7.555551, -49.297546, -87.302246, -616.997253
1733468836.058654, -3.625420, 0.664241, -0.913837, -0.653987, 0.710323, 7.579844, -53.110031, -86.266083, -617.292175
1733468836.068654, -5.900959, -0.774375, -0.832135, -1.039034, 1.081391, 7.444441, -56.283981, -84.997559, -618.208740
1733468836.078653, -8.157644, -1.483507, -0.681899, -1.497369, 1.458440, 7.220367, -59.311493, -83.227646, -618.426025
1733468836.088663, -10.460417, -2.753332, -0.542137, -2.037640, 1.730571, 6.804004, -62.316696, -81.397324, -620.059265
1733468836.098653, -12.042984, -4.243872, -0.842011, -2.509235, 1.729898, 6.237828, -64.839722, -79.803619, -621.679871
1733468836.108653, -13.051093, -4.469825, -1.088165, -2.659409, 0.952684, 5.679774, -67.313110, -78.047775, -623.302368
1733468836.118655, -15.297153, -5.651513, -2.098218, -2.314910, -0.414618, 4.931473, -69.245621, -76.161865, -623.985779
1733468836.128651, -18.300080, -7.929446, -4.628740, -1.555493, -1.767417, 3.967592, -70.951309, -74.438309, -624.427734
1733468836.138655, -20.810251, -10.149470, -7.371897, -0.671699, -2.647164, 2.882797, -71.790024, -72.864273, -624.143433
1733468836.148559, -21.125238, -11.369914, -9.171887, 0.087841, -2.902363, 1.990839, -72.192886, -71.926071, -623.047668
1733468836.158653, -19.549554, -11.545589, -9.605387, 0.595464, -2.625180, 1.448411, -72.433960, -71.342804, -621.570129
1733468836.168653, -17.707067, -11.247810, -8.929624, 0.792335, -2.020372, 1.208678, -72.875916, -70.830826, -620.430176
1733468836.178658, -16.514156, -11.058668, -7.912537, 0.726951, -1.247048, 1.141390, -73.509735, -70.156326, -619.357422
1733468836.188652, -16.340576, -11.495310, -6.919991, 0.497604, -0.512974, 1.018635, -73.966736, -69.986420, -619.103149
1733468836.198653, -16.715867, -12.447305, -6.123769, 0.219629, 0.081767, 0.750815, -74.369202, -69.693832, -619.304443
1733468836.208713, -16.875680, -12.891130, -5.639243, -0.001140, 0.484341, 0.407979, -74.753677, -69.469116, -619.376221
1733468836.218658, -16.727389, -12.966248, -5.332935, -0.106631, 0.675348, 0.000118, -75.094696, -69.460632, -619.981750
1733468836.228651, -16.189891, -12.933178, -5.250035, -0.091445, 0.718580, -0.421906, -75.017593, -69.776779, -620.245789
1733468836.238648, -15.215002, -12.592154, -5.013309, -0.023299, 0.673117, -0.806414, -74.883972, -69.962723, -620.534729
1733468836.248665, -14.251485, -12.452093, -4.765808, 0.011904, 0.617416, -1.179755, -74.761963, -70.336411, -619.857727
1733468836.258660, -13.416657, -12.236914, -4.729596, -0.009714, 0.622767, -1.547807, -74.263962, -70.981247, -620.594543
1733468836.268648, -12.398822, -11.794885, -4.986224, -0.026293, 0.687626, -1.854892, -73.576828, -71.592346, -620.951294
1733468836.278646, -11.235689, -10.955568, -5.143344, -0.011395, 0.772445, -2.064431, -72.831604, -72.264832, -621.407104
1733468836.288701, -10.162488, -10.240749, -5.182549, 0.012317, 0.893273, -2.208225, -72.249741, -73.034866, -621.732544
1733468836.298655, -9.393501, -9.692028, -4.989816, 0.037550, 1.007924, -2.301423, -71.439148, -73.832748, -622.074219
1733468836.308665, -9.000403, -9.173084, -4.700865, 0.056847, 1.157233, -2.394361, -70.607635, -74.757080, -622.435364
1733468836.318672, -8.774450, -8.849269, -4.352060, 0.053837, 1.309365, -2.496367, -69.601776, -75.617020, -622.634033
1733468836.328681, -8.481908, -8.674791, -3.897162, 0.040097, 1.438624, -2.628497, -68.658401, -76.490799, -623.174561
1733468836.338660, -8.179042, -8.530241, -3.248932, 0.002854, 1.458103, -2.813235, -67.793396, -77.377029, -623.572754
1733468836.348657, -7.733122, -8.232612, -2.717569, -0.034588, 1.362313, -3.026896, -66.323654, -78.271118, -623.788452
1733468836.358652, -7.099556, -7.933187, -2.740613, -0.028469, 1.261176, -3.256877, -65.437775, -79.076340, -624.722717
1733468836.368662, -6.193351, -7.500136, -3.024026, 0.048545, 1.164563, -3.459142, -64.089951, -80.199677, -625.118469
1733468836.378634, -5.033360, -6.791303, -3.162591, 0.180975, 1.042336, -3.584532, -62.429932, -81.182953, -625.022583
1733468836.388640, -4.019865, -6.034885, -3.141641, 0.347259, 0.912703, -3.645992, -60.651443, -82.069321, -625.000610
1733468836.398650, -3.397223, -5.362114, -3.136404, 0.524927, 0.875633, -3.667848, -58.958755, -82.875107, -624.996948
1733468836.408641, -3.000384, -4.954651, -2.987664, 0.663602, 0.952531, -3.708878, -57.871078, -83.639038, -624.607605
1733468836.418642, -2.470367, -5.327548, -2.584690, 0.707830, 1.043336, -3.805126, -55.792252, -84.427017, -624.891785
1733468836.428654, -1.847725, -5.490204, -1.984793, 0.676854, 1.088309, -3.909559, -53.956070, -85.312027, -624.365845
1733468836.438651, -1.322497, -4.931008, -1.506402, 0.614308, 1.118805, -4.003363, -52.410217, -85.848633, -624.418457
1733468836.448647, -0.862810, -4.386926, -1.215357, 0.549677, 1.131347, -4.098696, -50.372787, -86.547699, -623.671509
1733468836.458646, -0.478541, -3.905093, -0.806397, 0.498867, 1.058934, -4.171294, -48.562271, -86.996918, -624.397827
1733468836.468648, -0.201412, -3.307739, -0.487669, 0.459916, 0.955090, -4.247689, -46.453247, -87.179260, -623.743164
1733468836.478654, -0.085443, -2.936638, -0.470910, 0.441859, 0.860620, -4.346138, -44.104279, -87.573059, -623.910706
1733468836.488646, 0.242413, -2.780267, -0.560991, 0.438243, 0.771049, -4.461551, -42.306030, -87.807465, -624.025879
1733468836.498656, 0.798915, -2.635866, -0.643292, 0.444939, 0.683713, -4.571642, -40.306580, -87.859650, -623.506531
1733468836.508661, 1.547552, -2.488174, -0.871938, 0.461130, 0.624146, -4.677275, -38.028259, -87.965775, -623.141785
1733468836.518644, 2.295291, -2.338536, -1.004517, 0.497227, 0.572007, -4.748693, -35.561081, -87.716400, -623.097046
1733468836.528631, 3.075053, -1.822885, -1.056741, 0.506412, 0.529429, -4.786476, -33.442200, -87.502701, -622.514099
1733468836.538642, 3.921253, -1.141436, -1.260098, 0.536690, 0.565124, -4.781823, -31.320145, -87.207245, -622.302979
1733468836.548662, 4.667646, -0.243760, -1.398812, 0.612744, 0.630605, -4.723364, -29.178482, -86.970184, -621.264221
1733468836.558652, 5.433341, 0.197671, -1.063325, 0.702034, 0.598235, -4.630016, -27.020142, -86.284836, -621.456787
1733468836.568659, 6.324733, 0.503082, -0.492158, 0.766474, 0.449809, -4.513699, -25.114365, -85.667908, -620.967346
1733468836.578654, 7.252336, 0.726640, -0.227150, 0.805745, 0.297752, -4.393899, -23.546677, -84.990326, -620.569763
1733468836.588649, 8.347683, 0.734721, -0.101155, 0.794946, 0.172141, -4.237595, -21.925934, -84.222015, -620.121399
1733468836.598653, 9.137022, 0.699705, -0.070479, 0.696442, 0.176788, -4.084745, -20.122406, -83.304245, -619.841797
1733468836.608641, 9.762357, 0.900669, -0.275632, 0.528996, 0.342302, -3.936279, -18.754349, -82.703323, -619.440430
1733468836.618643, 10.734104, 1.509245, -0.165050, 0.361195, 0.502850, -3.737097, -17.037827, -81.790756, -619.132019
1733468836.628646, 11.608137, 2.172888, 0.168642, 0.253090, 0.528251, -3.504067, -15.776611, -80.940964, -618.964600
1733468836.638706, 12.276269, 2.100762, 0.225504, 0.217470, 0.443839, -3.305005, -14.752228, -80.288696, -618.895691
1733468836.648376, 13.124116, 2.114529, 0.067487, 0.226034, 0.308810, -3.045592, -13.543777, -79.507050, -617.736694
1733468836.658647, 13.662362, 2.349011, 0.019004, 0.234409, 0.148003, -2.768340, -12.709610, -78.661240, -618.386292
1733468836.667894, 13.744064, 1.827973, -0.251242, 0.228519, 0.055929, -2.558792, -12.125290, -77.993225, -618.819763
1733468836.678661, 13.891607, 1.527501, -1.105822, 0.249157, 0.195632, -2.395790, -11.262848, -77.312073, -618.329407
1733468836.688649, 14.133272, 1.918204, -1.372476, 0.311088, 0.360310, -2.259226, -10.526794, -76.746216, -618.266663
1733468836.698639, 14.512603, 2.171840, -0.846949, 0.369662, 0.421533, -2.179133, -10.369049, -75.994690, -617.764771
1733468836.707987, 14.973636, 2.530821, -0.476446, 0.487541, 0.344614, -2.141055, -9.674515, -75.521088, -617.795654
1733468836.718703, 15.393968, 2.785654, 0.201861, 0.655757, 0.009941, -2.110440, -9.220215, -74.711227, -617.362427
1733468836.728641, 15.601067, 2.518401, 0.655862, 0.812975, -0.437053, -2.103384, -8.379364, -74.107559, -617.235962
1733468836.738643, 15.772851, 2.453608, 0.311695, 0.922492, -0.687115, -2.095723, -7.696320, -73.263290, -617.122131
1733468836.747695, 16.131383, 2.739416, -0.355090, 0.974929, -0.632213, -2.033114, -6.899384, -72.750183, -616.526489
1733468836.758699, 16.779164, 3.428347, -0.497246, 0.969448, -0.377347, -1.929479, -6.651642, -72.011047, -616.822510
1733468836.768650, 17.965191, 4.337545, -0.296133, 0.900041, -0.019056, -1.777935, -6.110886, -71.379150, -616.690796
1733468836.778639, 20.163966, 4.963779, 0.352097, 0.777126, 0.167000, -1.469305, -5.792007, -70.999985, -616.317627
1733468836.788686, 22.553230, 5.611410, 1.048361, 0.690058, 0.128350, -0.966922, -5.527771, -70.590851, -615.763855
1733468836.798647, 24.206576, 6.247819, 0.975637, 0.667564, 0.045320, -0.290269, -5.269196, -70.576828, -615.521606
1733468836.808649, 24.961797, 6.598869, 1.015291, 0.668447, -0.075321, 0.490597, -5.385101, -70.754105, -615.385010
1733468836.818657, 24.446595, 6.544850, 1.284190, 0.629122, -0.196728, 1.225955, -5.660126, -71.225266, -615.178101
1733468836.828655, 23.100904, 6.521057, 1.729063, 0.521745, -0.290737, 1.888549, -6.049515, -71.918655, -615.394043
1733468836.838642, 21.074062, 6.067356, 1.551592, 0.391349, -0.205655, 2.408889, -6.680603, -72.798599, -615.248291
1733468836.848668, 19.194015, 5.623680, 1.372775, 0.242702, -0.037975, 2.833450, -7.630859, -73.921295, -614.542603
1733468836.858688, 17.566258, 5.268890, 1.576432, 0.079986, 0.079508, 3.171250, -8.600403, -74.852493, -615.232300
1733468836.868633, 16.034866, 4.710891, 1.873014, -0.065361, 0.040964, 3.404808, -9.601761, -76.096191, -615.451599
1733468836.878639, 14.745289, 4.200926, 1.695544, -0.116083, -0.096258, 3.580039, -10.633896, -77.167191, -615.838867
1733468836.888651, 13.681067, 3.801543, 1.004368, -0.049847, -0.228565, 3.710577, -12.237427, -78.477249, -615.768738
1733468836.898670, 12.876765, 3.323302, 0.346261, 0.084534, -0.316322, 3.834185, -13.258575, -79.184021, -615.519958
1733468836.908638, 12.239608, 3.058593, -0.016011, 0.245771, -0.365210, 3.979967, -14.340927, -80.063126, -615.273743
1733468836.918639, 11.376049, 2.795530, -0.021697, 0.408896, -0.405640, 4.107230, -16.152435, -81.279266, -615.470459
1733468836.928649, 10.484059, 2.340332, 0.595707, 0.514741, -0.519667, 4.211825, -17.633163, -82.216446, -615.282227
1733468836.938649, 9.783007, 2.012027, 1.142184, 0.527358, -0.626556, 4.322214, -19.002853, -83.109894, -615.294006
1733468836.948632, 9.083900, 1.945588, 1.088165, 0.501187, -0.619148, 4.467083, -20.942078, -84.024384, -614.541016
1733468836.958637, 8.183232, 1.798494, 0.957381, 0.446572, -0.466929, 4.603360, -22.762558, -84.801346, -614.812195
1733468836.968634, 7.262063, 1.344644, 1.177947, 0.318970, -0.282278, 4.696309, -24.841858, -85.700317, -614.896973
1733468836.978632, 6.455815, 0.899172, 1.723376, 0.147607, -0.209972, 4.727351, -26.979919, -86.600143, -615.148132
1733468836.988668, 6.208015, 0.691625, 2.299331, -0.041573, -0.302210, 4.786775, -29.110428, -87.086807, -614.944092
1733468836.998629, 6.306028, 0.829591, 2.543091, -0.213404, -0.496818, 4.961143, -30.914490, -87.517197, -615.295898
1733468837.008646, 6.243928, 0.969652, 2.297835, -0.358152, -0.655695, 5.246173, -33.115005, -88.114487, -615.660583
1733468837.018630, 5.981763, 1.050755, 1.806126, -0.496948, -0.733394, 5.616084, -35.829163, -88.336899, -615.877808
1733468837.028630, 5.318869, 1.250821, 1.467346, -0.639122, -0.759250, 6.025230, -38.906952, -88.343964, -616.247192
1733468837.038638, 4.272603, 1.434576, 1.065120, -0.803594, -0.681447, 6.401659, -41.928253, -88.322098, -616.630920
1733468837.048636, 3.012355, 1.499967, 0.682796, -0.974082, -0.536255, 6.709372, -45.195526, -87.868378, -616.536255
1733468837.058630, 1.480963, 1.076643, 0.224905, -1.138313, -0.278663, 6.845524, -48.360062, -87.496674, -617.829529
1733468837.068631, 0.095319, 0.432752, -0.093972, -1.270128, -0.003482, 6.905635, -51.599533, -86.592850, -618.804443
1733468837.078629, -1.307384, -0.009427, 0.126893, -1.417249, 0.251429, 6.935534, -54.274063, -85.492432, -619.144897
1733468837.088628, -2.677316, -0.305410, 0.532411, -1.713924, 0.532441, 6.987407, -57.119995, -83.977478, -619.966858
1733468837.098628, -4.358943, -0.030825, 1.044171, -2.238037, 0.734202, 7.032902, -60.133392, -82.405579, -621.787964
1733468837.108629, -6.440702, -0.073322, 1.364096, -2.900212, 0.631639, 6.934684, -62.773392, -80.627899, -623.135254
1733468837.118624, -8.183381, -0.306159, 0.648679, -3.383454, 0.102774, 6.726317, -65.426071, -78.597046, -624.356323
1733468837.128623, -9.193285, 0.069581, -1.306336, -3.426194, -0.814088, 6.551805, -67.928040, -76.205292, -625.048279
1733468837.138642, -11.378892, -0.401777, -4.878635, -2.909892, -1.430103, 6.365111, -70.270004, -73.816086, -625.717896
1733468837.148625, -15.120132, -3.116502, -9.170840, -2.177474, -1.225808, 5.809804, -71.758530, -71.725937, -625.141296
1733468837.158630, -17.834707, -5.854721, -10.879252, -1.684460, -0.619751, 5.043845, -73.066681, -69.841705, -626.168152
1733468837.168625, -19.153314, -6.870611, -10.301801, -1.474557, -0.089197, 4.225205, -74.597183, -68.353210, -626.445435
1733468837.178638, -20.182521, -7.710227, -9.196727, -1.255981, -0.215075, 3.293299, -75.543228, -67.343414, -626.634216
1733468837.188629, -20.849007, -8.569297, -8.585158, -0.763281, -1.013083, 2.285212, -75.965820, -66.815063, -626.033203
1733468837.198631, -20.539856, -9.365069, -9.172037, 0.019928, -2.083516, 1.344826, -76.122803, -66.438766, -625.151123
1733468837.208634, -19.680637, -9.754576, -9.950452, 0.854697, -2.965778, 0.599187, -75.863892, -66.448639, -623.004089
1733468837.218627, -19.113810, -9.763405, -10.157101, 1.477355, -3.396798, 0.039885, -75.792419, -66.350952, -621.155334
1733468837.228639, -18.866459, -9.874735, -10.080337, 1.814645, -3.239785, -0.345298, -75.596893, -66.738770, -619.679077
1733468837.238630, -18.245463, -10.245088, -9.930251, 1.891448, -2.532642, -0.573367, -75.487534, -67.042007, -618.232788
1733468837.248629, -17.641525, -10.627412, -9.354595, 1.725327, -1.425337, -0.722140, -75.758255, -67.615662, -617.490417
1733468837.258627, -17.293319, -10.954071, -8.190115, 1.387857, -0.199538, -0.891540, -75.694397, -68.016403, -617.452271
1733468837.268627, -16.729035, -11.271901, -6.627599, 0.951851, 0.923001, -1.131266, -75.534256, -68.485764, -617.938599
1733468837.278628, -15.601067, -11.505785, -4.990414, 0.506824, 1.728423, -1.405735, -75.244781, -69.317413, -618.683594
1733468837.288620, -13.841029, -11.388020, -3.448399, 0.146458, 2.071797, -1.642045, -74.949982, -70.195480, -619.837585
1733468837.298637, -12.064831, -11.076026, -2.078017, -0.128218, 1.899897, -1.867791, -74.949982, -70.195480, -619.837585
1733468837.308623, -10.849774, -10.598981, -1.424999, -0.268716, 1.370468, -2.098972, -74.298584, -70.949326, -620.457886
1733468837.318626, -10.091710, -10.172813, -1.953968, -0.254909, 0.807983, -2.311844, -73.656311, -71.752792, -620.903564
1733468837.328623, -9.894936, -9.648333, -3.094506, -0.171500, 0.428189, -2.517171, -72.470490, -72.603149, -621.167847
1733468837.338628, -10.005369, -9.210045, -4.238036, -0.075615, 0.362714, -2.746483, -71.505203, -73.531387, -621.384949
1733468837.348627, -9.909301, -8.778789, -5.046229, 0.002378, 0.564519, -2.960113, -70.571442, -74.549911, -621.562622
1733468837.358630, -9.405023, -8.309077, -5.386804, 0.061821, 0.923247, -3.131505, -69.350082, -75.669998, -620.954590
1733468837.368625, -8.703970, -7.734319, -5.415385, 0.109332, 1.391033, -3.270126, -68.333130, -76.741867, -622.096741
1733468837.378623, -7.759159, -7.148637, -4.751742, 0.125522, 1.739430, -3.365853, -66.974350, -77.703949, -622.483765
1733468837.388622, -6.636577, -6.691045, -3.733309, 0.110335, 1.860512, -3.444779, -65.825928, -78.849792, -623.391357
1733468837.398623, -5.723938, -6.403592, -3.227683, 0.136569, 1.840259, -3.535396, -64.186478, -79.728836, -623.789307
1733468837.408622, -5.028871, -5.928941, -2.961179, 0.251731, 1.690584, -3.620720, -62.841629, -80.830780, -624.129639
1733468837.418642, -4.492869, -5.348048, -2.667141, 0.438205, 1.476883, -3.709439, -61.035187, -81.742386, -624.388123
1733468837.428642, -4.238335, -5.068375, -2.528876, 0.633299, 1.290409, -3.812565, -59.291763, -82.603745, -623.983948
1733468837.438636, -4.165612, -4.866215, -2.296039, 0.792555, 1.214022, -3.946186, -57.742050, -83.408600, -624.172791
1733468837.448632, -3.888782, -4.839729, -1.980753, 0.884856, 1.241650, -4.117579, -55.902390, -84.129684, -623.948242
1733468837.458630, -3.312378, -5.049072, -1.397166, 0.876412, 1.272320, -4.315152, -54.104706, -85.129227, -623.472839
1733468837.468623, -2.546533, -5.054758, -0.748487, 0.783379, 1.242666, -4.521496, -52.172104, -85.639236, -623.419800
1733468837.478676, -1.800889, -4.561702, -0.383521, 0.680574, 1.155125, -4.716480, -49.921005, -86.389389, -623.368286
1733468837.488620, -0.964863, -3.926491, -0.347010, 0.632930, 1.025271, -4.874318, -47.593094, -86.976471, -623.377441
1733468837.498620, 0.017508, -3.084929, -0.491859, 0.657649, 0.862721, -4.938539, -44.931564, -87.432755, -622.984985
1733468837.508624, 0.805798, -2.177975, -0.503082, 0.724770, 0.664309, -4.926302, -42.807526, -87.581177, -622.180542
1733468837.518622, 1.482909, -1.876456, -0.581492, 0.810098, 0.503214, -4.906462, -40.664017, -87.860001, -621.925110
1733468837.528620, 2.158074, -1.954267, -0.694169, 0.858795, 0.423012, -4.880407, -38.486313, -87.850479, -621.723267
1733468837.538679, 2.683152, -1.983895, -0.564433, 0.829610, 0.359834, -4.869958, -36.052597, -87.827820, -621.356873
1733468837.548625, 3.177405, -2.258630, -0.533757, 0.744446, 0.326753, -4.905175, -33.712433, -87.555466, -620.760681
1733468837.558630, 3.659837, -1.912069, -0.727538, 0.674583, 0.349228, -4.886176, -31.618958, -87.200668, -620.005249
1733468837.567670, 3.787777, -1.108515, -0.779163, 0.616252, 0.421373, -4.885185, -29.454468, -86.865417, -620.026245
1733468837.578621, 3.737349, -0.870143, -0.845303, 0.563920, 0.515146, -4.972336, -27.405792, -86.146530, -619.442139
1733468837.588614, 4.290409, -0.502932, -1.008109, 0.567228, 0.625402, -5.032960, -24.936676, -85.535553, -619.630981
1733468837.598675, 5.500229, 0.455946, -0.848744, 0.589363, 0.717045, -4.956762, -22.938187, -84.700043, -618.956909
1733468837.608628, 6.862680, 1.325789, -0.390554, 0.546297, 0.770670, -4.817927, -20.681946, -83.870132, -618.347778
1733468837.618616, 8.493879, 1.752107, -0.286257, 0.495973, 0.800639, -4.580950, -18.916687, -83.110931, -617.942322
1733468837.628680, 10.219351, 2.177077, -0.248847, 0.470031, 0.768083, -4.192551, -17.436951, -82.143097, -617.215088
1733468837.638622, 11.507431, 2.263269, -0.267402, 0.459997, 0.676233, -3.787282, -16.307495, -81.171631, -617.267334
1733468837.648617, 12.237513, 1.924040, -0.221763, 0.469228, 0.544669, -3.416553, -14.946625, -80.281143, -617.116028
1733468837.658620, 12.317270, 2.043301, -0.218770, 0.457552, 0.495434, -3.092943, -14.029083, -79.518738, -616.591553
1733468837.668677, 12.030863, 2.071733, -0.409558, 0.429443, 0.651109, -2.874552, -13.119568, -78.857666, -616.482483
1733468837.678623, 12.246341, 2.223465, -0.791583, 0.374386, 1.068928, -2.702668, -12.737564, -78.277069, -616.395996
1733468837.688630, 12.952032, 2.712630, -0.224007, 0.301121, 1.411433, -2.550463, -12.209335, -77.441833, -615.421387
1733468837.698624, 13.764265, 2.881272, 1.144578, 0.257009, 1.449050, -2.457751, -11.328613, -76.714218, -615.300537
1733468837.708631, 14.844050, 2.944419, 2.352004, 0.215676, 1.133227, -2.366471, -10.517258, -76.268784, -614.503418
1733468837.718626, 15.547347, 3.208978, 3.004723, 0.197870, 0.621839, -2.279212, -10.225525, -75.423553, -614.726807
1733468837.728630, 15.734693, 3.071461, 2.692729, 0.250214, 0.170467, -2.275656, -9.522476, -74.752060, -614.746948
1733468837.738630, 16.036063, 3.067421, 1.897106, 0.372450, -0.065946, -2.326421, -9.052719, -73.853897, -614.301697
1733468837.748633, 16.978331, 3.992780, 1.678186, 0.476710, -0.159738, -2.343672, -8.466278, -73.190506, -613.462402
1733468837.758499, 18.833838, 4.951508, 2.040758, 0.487348, -0.264668, -2.222213, -7.779007, -72.395920, -613.987488
1733468837.768610, 21.133169, 5.699397, 2.451064, 0.476958, -0.533749, -1.901222, -7.073975, -71.828461, -614.250916
1733468837.778621, 22.654984, 6.191106, 2.039261, 0.570827, -0.789485, -1.442186, -6.560837, -71.205292, -614.468323
1733468837.788616, 23.026983, 6.420950, 1.302446, 0.706960, -0.912595, -0.977952, -6.348816, -70.949890, -614.320435
1733468837.798622, 23.155222, 6.479308, 1.131709, 0.785133, -0.957132, -0.493606, -6.214890, -70.575317, -614.630920
1733468837.808619, 23.212683, 6.552481, 1.267580, 0.786459, -0.928670, 0.046361, -6.168655, -70.795624, -614.750732
1733468837.818625, 22.819735, 6.503250, 1.402853, 0.711978, -0.790290, 0.610310, -6.234421, -70.870789, -614.518066
1733468837.828635, 22.102073, 6.397606, 1.634641, 0.534040, -0.583452, 1.192822, -6.191864, -71.311600, -614.470581
1733468837.838627, 21.205743, 6.185869, 1.820790, 0.283067, -0.349841, 1.767947, -6.736221, -71.921631, -614.829651
1733468837.848623, 19.893571, 5.697601, 1.602319, 0.037819, -0.073907, 2.285464, -7.517899, -72.940659, -614.164856
1733468837.858668, 18.210896, 5.182549, 1.388038, -0.168244, 0.175893, 2.673524, -8.146606, -73.758759, -614.453003
1733468837.868612, 16.736966, 4.654627, 1.388637, -0.328078, 0.326713, 2.956493, -9.220657, -74.596848, -614.921509
1733468837.878613, 15.619772, 4.279486, 1.506252, -0.437811, 0.327574, 3.162778, -9.917877, -75.827713, -615.106262
1733468837.888607, 14.694113, 3.933823, 1.496526, -0.476849, 0.208207, 3.334922, -11.029510, -76.781845, -614.982666
1733468837.898613, 13.853150, 3.478775, 1.355717, -0.439512, 0.004060, 3.478802, -12.206253, -78.089996, -615.460693
1733468837.908606, 13.074885, 3.067721, 1.314866, -0.349859, -0.257929, 3.612851, -13.508041, -78.999039, -615.579956
1733468837.918673, 12.382063, 2.747795, 1.205929, -0.252192, -0.499376, 3.752484, -14.650253, -79.777649, -615.359497
1733468837.928626, 11.687146, 2.480243, 0.991948, -0.180384, -0.647614, 3.919175, -15.936111, -80.850143, -615.871948
1733468837.938629, 10.972626, 2.287360, 0.737264, -0.139747, -0.676634, 4.091573, -17.804993, -81.664612, -616.015991
1733468837.948619, 10.173412, 2.056919, 0.564732, -0.139678, -0.577219, 4.239118, -19.526749, -82.843979, -615.594788
1733468837.958609, 9.487623, 1.718588, 0.645237, -0.208526, -0.445731, 4.351299, -21.372650, -83.673843, -616.392578
1733468837.968622, 8.829666, 1.448342, 0.897227, -0.316310, -0.346526, 4.440798, -23.029099, -84.529877, -616.426636
1733468837.978625, 8.455572, 1.292420, 0.998981, -0.424089, -0.302925, 4.541973, -24.889038, -85.235153, -616.867371
1733468837.988614, 8.307431, 1.207875, 0.953790, -0.498698, -0.321330, 4.679740, -27.055649, -85.933777, -617.223206
1733468837.998629, 8.224981, 1.076792, 0.907402, -0.522580, -0.454571, 4.873456, -29.113129, -86.716293, -617.651855
1733468838.008620, 7.849091, 1.059584, 1.215357, -0.513396, -0.738285, 5.117935, -31.360382, -87.372025, -617.753296
1733468838.018610, 7.161057, 0.977582, 1.382053, -0.513353, -1.011815, 5.370301, -33.803177, -87.630295, -618.327698
1733468838.028609, 6.477962, 1.003021, 1.073949, -0.561030, -1.132486, 5.652239, -36.541489, -87.804260, -618.169067
1733468838.038620, 5.654955, 1.240196, 0.561141, -0.646413, -1.068957, 5.937638, -39.174210, -88.069916, -618.672852
1733468838.048609, 4.761768, 1.194557, 0.303914, -0.767515, -0.937035, 6.204948, -42.168533, -88.060333, -618.801880
1733468838.058613, 3.706374, 0.826299, 0.225504, -0.908097, -0.795445, 6.386241, -45.158325, -87.594681, -620.069580
1733468838.068665, 2.732981, 0.448165, 0.082450, -1.046705, -0.646634, 6.516738, -47.858810, -87.176926, -620.533508
1733468838.078656, 2.025345, 0.499939, -0.035763, -1.176994, -0.490428, 6.715677, -51.059509, -86.447922, -620.696289
1733468838.088616, 1.115698, 0.806397, -0.064344, -1.352140, -0.287922, 6.964861, -53.992386, -85.139465, -621.687744
1733468838.098614, 0.147543, 1.186477, -0.047285, -1.626056, -0.099307, 7.231201, -56.862488, -83.988205, -622.590820
1733468838.108607, -1.440262, 1.929577, -0.017508, -2.239591, -0.076561, 7.628944, -60.247620, -81.998505, -623.407104
1733468838.118608, -6.762423, 2.095675, -0.992397, -2.417098, -0.248116, 7.543188, -63.227890, -80.085464, -624.440796
1733468838.128615, -6.762423, 2.095675, -0.992397, -2.453563, -0.296091, 7.316239, -66.101257, -77.803772, -625.128052
1733468838.138603, -10.136002, 0.070928, -4.654328, -2.367736, -0.044507, 7.117720, -68.218628, -75.235657, -625.617798
1733468838.148640, -13.095685, -0.203208, -5.460127, -2.379767, 0.238419, 6.753755, -71.048233, -72.723434, -626.115234
1733468838.158603, -17.457920, -1.955015, -5.219809, -2.494159, 0.005544, 5.876839, -73.176849, -70.226990, -627.498474
1733468838.168602, -21.207389, -4.419098, -5.327997, -2.344757, -0.916058, 4.613857, -74.972839, -68.137344, -628.138550
1733468838.178604, -23.346459, -6.242133, -7.626580, -1.657764, -2.030785, 3.251118, -75.779816, -66.470993, -628.034485
1733468838.188623, -23.346459, -6.242133, -7.626580, -1.657764, -2.030785, 3.251118, -76.171631, -65.260162, -627.368286
1733468838.198606, -22.989573, -7.877073, -12.128876, -0.539501, -3.041101, 2.043335, -76.288864, -64.683380, -625.796509
1733468838.208602, -21.951687, -8.564508, -12.433987, 0.611554, -3.736184, 1.154604, -76.368942, -64.356964, -623.240662
1733468838.218606, -21.168783, -8.959701, -11.413608, 1.870070, -3.434833, 0.127097, -76.486404, -64.351593, -621.008179
1733468838.228609, -20.152744, -9.323021, -10.027515, 1.879677, -2.568542, -0.091868, -76.594238, -64.482666, -619.829285
1733468838.238613, -19.292178, -9.966613, -8.608651, 1.571340, -1.405073, -0.225563, -76.605728, -64.416214, -618.407227
1733468838.248597, -18.965220, -10.540024, -7.265355, 1.054788, -0.127328, -0.385000, -76.837067, -64.864853, -617.179565
1733468838.258608, -18.546683, -10.941202, -6.010045, 0.462203, 1.026179, -0.627690, -76.927032, -65.242233, -618.288269
1733468838.268603, -17.533337, -11.059566, -4.882076, -0.067637, 1.802503, -0.911729, -76.957214, -65.606750, -618.891968
1733468838.278619, -16.093674, -10.976068, -4.205565, -0.433517, 2.121121, -1.223953, -76.827682, -66.307922, -620.443726
1733468838.288610, -14.671817, -10.802039, -4.171747, -0.579109, 2.068310, -1.570877, -76.521423, -66.921539, -621.490845
1733468838.298617, -13.412318, -10.190470, -4.402189, -0.523006, 1.754870, -1.914404, -76.293427, -67.751282, -622.180908
1733468838.308613, -12.315175, -9.627085, -4.797830, -0.351501, 1.331837, -2.240108, -75.546982, -68.546814, -623.019409
1733468838.318608, -11.515511, -9.411158, -5.504569, -0.143221, 0.977283, -2.546150, -74.862366, -69.440048, -623.417786
1733468838.328600, -10.984298, -9.115474, -6.390124, 0.089906, 0.836397, -2.815386, -73.879120, -70.457642, -623.383667
1733468838.338602, -10.423905, -8.451681, -6.931812, 0.322966, 0.908593, -3.026521, -73.000641, -71.596283, -623.685547
1733468838.348600, -9.699061, -7.447015, -6.787711, 0.503958, 1.100443, -3.149379, -71.423798, -72.841766, -623.675171
1733468838.358599, -8.916606, -6.911162, -6.259042, 0.606651, 1.334765, -3.215232, -70.493958, -73.889557, -624.402344
1733468838.368600, -8.529194, -6.991967, -5.466411, 0.625766, 1.560954, -3.312474, -69.003250, -75.204926, -624.855530
1733468838.378598, -8.283638, -7.345560, -4.672434, 0.595975, 1.692239, -3.492524, -67.989227, -76.358673, -624.992798
1733468838.388600, -7.695712, -7.157167, -3.898808, 0.598775, 1.635068, -3.670347, -66.785446, -77.429001, -625.205322
1733468838.398598, -7.100005, -6.398953, -3.373729, 0.687680, 1.447351, -3.835354, -64.993195, -78.721954, -625.423584
1733468838.408600, -6.443694, -5.666776, -3.255815, 0.871842, 1.234442, -3.966390, -63.274506, -79.970749, -625.523193
1733468838.418597, -5.814618, -4.962581, -3.154810, 1.104638, 1.060994, -4.059666, -61.644119, -81.108856, -625.425537
1733468838.428617, -5.245995, -4.735432, -2.896685, 1.323058, 0.991858, -4.170033, -60.291367, -82.175003, -624.979370
1733468838.438606, -4.133589, -5.424513, -2.267309, 1.454861, 0.895175, -4.268322, -58.585327, -83.223679, -624.514282
1733468838.448600, -2.923320, -5.833921, -1.337910, 1.435320, 0.716788, -4.317408, -56.439819, -84.064987, -623.672363
1733468838.458599, -2.262521, -5.559187, -0.734421, 1.296832, 0.571380, -4.370702, -54.557129, -85.034698, -623.678223
1733468838.468597, -1.834108, -5.218611, -0.605583, 1.132818, 0.488128, -4.460889, -52.650482, -85.710693, -622.844116
1733468838.478597, -1.255759, -4.824765, -0.874183, 1.042662, 0.486874, -4.532237, -50.349777, -86.358093, -622.379944
1733468838.488604, -0.488118, -3.850026, -1.096544, 1.011402, 0.579394, -4.505356, -48.142654, -86.947693, -622.359009
1733468838.498610, 0.085593, -3.040786, -0.953940, 0.958064, 0.751722, -4.475377, -45.768188, -87.288055, -621.506470
1733468838.508593, 0.696114, -2.665195, -0.511162, 0.839523, 0.915112, -4.442239, -43.942810, -87.583221, -621.297363
1733468838.518592, 1.311574, -2.422184, -0.105495, 0.687182, 1.052022, -4.433689, -42.158340, -87.896622, -620.978943
1733468838.528595, 2.095375, -2.514061, 0.106392, 0.547975, 1.091035, -4.427777, -40.072449, -88.118225, -620.645996
1733468838.538615, 3.127875, -2.534562, 0.217723, 0.440455, 1.004838, -4.395183, -37.955109, -87.965118, -620.463318
1733468838.548628, 3.775955, -2.258929, 0.219219, 0.400082, 0.820466, -4.361081, -36.049988, -87.974518, -619.513550
1733468838.558616, 4.233397, -1.890073, -0.036362, 0.426115, 0.651402, -4.360565, -34.105164, -87.724396, -619.579834
1733468838.568606, 4.939088, -1.855806, -0.177620, 0.510395, 0.446219, -4.382975, -32.148651, -87.570618, -619.786011
1733468838.578598, 5.961412, -1.578826, -0.056264, 0.587488, 0.263987, -4.325535, -29.986160, -87.041901, -619.415894
1733468838.588215, 6.877344, -0.705990, 0.125995, 0.578282, 0.135947, -4.158480, -28.330154, -86.620819, -619.116211
1733468838.598268, 7.294534, -0.280122, 0.248249, 0.506793, 0.053607, -4.007878, -26.817657, -86.078903, -619.168701
1733468838.608593, 7.573907, -1.007959, -0.282217, 0.479078, 0.099897, -3.935188, -25.152451, -85.543503, -618.027832
1733468838.618595, 8.204480, -1.069759, -0.627879, 0.495589, 0.172217, -3.816585, -23.599792, -85.012726, -617.838806
1733468838.628589, 8.750657, -0.630124, -0.688782, 0.529029, 0.320349, -3.681180, -21.989899, -84.496613, -618.365356
1733468838.638319, 9.375245, -0.318279, -0.545130, 0.538611, 0.553491, -3.497367, -20.659286, -83.761612, -616.907471
1733468838.648281, 10.383204, 0.058359, 0.036661, 0.509833, 0.766375, -3.266882, -19.233398, -82.941589, -617.351440
1733468838.658592, 11.404929, 0.482731, 0.786495, 0.443073, 0.898337, -2.992265, -18.500443, -82.303329, -616.148010
1733468838.668593, 12.197111, 0.655113, 1.504307, 0.353941, 0.869604, -2.705290, -17.567688, -81.748993, -616.204834
1733468838.678599, 12.301707, 0.241216, 1.944391, 0.279626, 0.683938, -2.535070, -16.743668, -81.208542, -616.505798
1733468838.688602, 12.157307, -0.120608, 1.856105, 0.283422, 0.397869, -2.442425, -16.151917, -80.531006, -615.776123
1733468838.698297, 12.143540, -0.241216, 1.365892, 0.351734, 0.148089, -2.411431, -15.151947, -79.875183, -616.071899
1733468838.707913, 12.259061, -0.356287, 0.675015, 0.480398, 0.033193, -2.436546, -15.151947, -79.875183, -616.071899
1733468838.718592, 12.984803, 0.002693, 0.371999, 0.601498, 0.046671, -2.400819, -13.840027, -78.848999, -615.226135
1733468838.728594, 14.221857, 0.445621, 0.885555, 0.625564, 0.045895, -2.286338, -13.183395, -78.203018, -615.845764
1733468838.738600, 15.716138, 0.702549, 1.481562, 0.568241, -0.014600, -2.059466, -12.246368, -77.535217, -614.428711
1733468838.748325, 16.901717, 0.997784, 1.594089, 0.499128, -0.088744, -1.738454, -12.246368, -77.535217, -614.428711
1733468838.758597, 17.311125, 1.013645, 1.236456, 0.451223, -0.086404, -1.414915, -11.274521, -76.710449, -615.034973
1733468838.768598, 17.227777, 0.950348, 0.824054, 0.423827, 0.003525, -1.097087, -11.146515, -76.412994, -614.514526
1733468838.778539, 16.908301, 1.133056, 0.600346, 0.402493, 0.165407, -0.805325, -11.146515, -76.412994, -614.514526
1733468838.788623, 16.370204, 1.172411, 0.676512, 0.356730, 0.386593, -0.600202, -11.000610, -76.211426, -614.301819
1733468838.798308, 16.143653, 1.119888, 1.175852, 0.274777, 0.562717, -0.456832, -10.577515, -75.976440, -613.598572
1733468838.808654, 16.247501, 1.192761, 1.674894, 0.182363, 0.689948, -0.338926, -10.569656, -76.069290, -614.037842
1733468838.818594, 16.287754, 1.398214, 2.292747, 0.102427, 0.650199, -0.267332, -10.660751, -75.793854, -613.766968
1733468838.828588, 16.548123, 1.803283, 2.856283, 0.064104, 0.422342, -0.196476, -10.635864, -75.898056, -612.889893
1733468838.838603, 17.179893, 1.983446, 2.981080, 0.071841, 0.029794, -0.058247, -10.591095, -75.605026, -613.477722
1733468838.848335, 17.505205, 2.162263, 2.458247, 0.170304, -0.343497, 0.154269, -10.421967, -75.835861, -612.887512
1733468838.858605, 17.528100, 2.487426, 1.850119, 0.294258, -0.635644, 0.395834, -10.264297, -75.853668, -613.718628
1733468838.868597, 17.557878, 2.619107, 1.690606, 0.362799, -0.875787, 0.688212, -10.369812, -75.925629, -613.354736
1733468838.878590, 17.270723, 2.662951, 1.366042, 0.384821, -0.963630, 0.981419, -10.684677, -76.091217, -613.243408
1733468838.888587, 16.972645, 2.579902, 1.021277, 0.377316, -0.957301, 1.278487, -11.132202, -76.327530, -613.609253
1733468838.898338, 16.854132, 2.609680, 0.819416, 0.342311, -0.882052, 1.583937, -11.115463, -76.705338, -614.069458
1733468838.908594, 16.560094, 2.572719, 0.750881, 0.273738, -0.797534, 1.894686, -11.619263, -77.218781, -613.193604
1733468838.918585, 16.108488, 2.460790, 0.737713, 0.181555, -0.706707, 2.209754, -12.503494, -78.005234, -615.023315
1733468838.928597, 15.380651, 2.259079, 0.580744, 0.066048, -0.586304, 2.492092, -13.504715, -78.469208, -614.732666
1733468838.938592, 14.540136, 2.040458, 0.277877, -0.051274, -0.405409, 2.735287, -13.999008, -79.182877, -614.202393
1733468838.948597, 13.783868, 1.800739, -0.215179, -0.144717, -0.161893, 2.938437, -14.945724, -79.769257, -614.590759
1733468838.958610, 13.440001, 1.584662, -0.487370, -0.195000, 0.011055, 3.138906, -16.113052, -80.645813, -614.917236
1733468838.968649, 13.251906, 1.377265, -0.555904, -0.199479, 0.116648, 3.319511, -17.411011, -81.434875, -614.167175
1733468838.978587, 13.048399, 1.225682, -0.571167, -0.178151, 0.138873, 3.527436, -18.952866, -82.182480, -614.643555
1733468838.988580, 12.767978, 1.084124, -0.656610, -0.145360, 0.165858, 3.739650, -20.335388, -82.841125, -614.718445
1733468838.998580, 12.233473, 0.706589, -0.789189, -0.129637, 0.234878, 3.918908, -21.673889, -83.770630, -615.074524
1733468839.008625, 11.782166, 0.561889, -0.574459, -0.145707, 0.258239, 4.111597, -23.507294, -84.493988, -614.396729
1733468839.018580, 11.499051, 0.568623, -0.035614, -0.181691, 0.185577, 4.314476, -25.267487, -85.253174, -614.878479
1733468839.028586, 11.224915, 0.359729, 0.429310, -0.235070, 0.002066, 4.517193, -27.206802, -85.974945, -615.235840
1733468839.038599, 10.582072, 0.322020, 0.723199, -0.268525, -0.241561, 4.718311, -29.121201, -86.495346, -615.367310
1733468839.048589, 9.228450, 0.176722, 0.802806, -0.263195, -0.486095, 4.845737, -31.219940, -87.121094, -614.921753
1733468839.058543, 7.801656, -0.301669, 0.695815, -0.253380, -0.708564, 4.896478, -33.321838, -87.478134, -615.638428
1733468839.068580, 6.854899, -0.717512, 0.168043, -0.194264, -0.879752, 4.938343, -35.519531, -87.914032, -616.129089
1733468839.078637, 6.422147, -1.020678, -0.665139, -0.076348, -0.889070, 5.035908, -37.588608, -87.976578, -615.886719
1733468839.088580, 6.331317, -1.247379, -1.532439, 0.007885, -0.651686, 5.219189, -39.802841, -87.916779, -616.185791
1733468839.098576, 6.581361, -0.927155, -1.765873, -0.004668, -0.308285, 5.556499, -41.888611, -87.987045, -615.234070
1733468839.108579, 6.475418, -0.120309, -1.135151, -0.099936, -0.059519, 6.024325, -44.871811, -87.757385, -615.862305
1733468839.118649, 4.701464, -0.237774, -0.077363, -0.297497, 0.126299, 6.343465, -47.853409, -87.389160, -615.958191
1733468839.128573, 2.765453, -1.029806, 0.626682, -0.572104, 0.274125, 6.455318, -50.654480, -86.779266, -616.052063
1733468839.138582, 1.320851, -0.863559, 1.132308, -0.821622, 0.296201, 6.547346, -53.456390, -85.871231, -616.871948
1733468839.148578, -0.209642, -0.342221, 1.545308, -1.036201, 0.192990, 6.636722, -56.323212, -84.851135, -617.147278
1733468839.158575, -1.624765, -0.375740, 1.504008, -1.258993, 0.036538, 6.708812, -58.910492, -83.727982, -617.335815
1733468839.168576, -3.402759, -0.535553, 0.691775, -1.457429, -0.039880, 6.796690, -61.413361, -81.939667, -618.345947
1733468839.178168, -6.364387, -0.940622, -0.457891, -1.607616, 0.018617, 6.715021, -63.928787, -80.093521, -619.243408
1733468839.188593, -9.055918, -1.695095, -1.567304, -1.718606, 0.183618, 6.473971, -66.580048, -78.175903, -619.774292
1733468839.198644, -11.309161, -2.528127, -2.298434, -1.789263, 0.377248, 6.097876, -68.786560, -76.189270, -620.580139
1733468839.208591, -13.880234, -3.487903, -2.321328, -1.925426, 0.471588, 5.548102, -70.691498, -74.159637, -621.516174
1733468839.218577, -16.363171, -3.799448, -1.842488, -2.123894, 0.219995, 4.885345, -72.138504, -72.212082, -622.367249
1733468839.228573, -17.874361, -3.944896, -2.216432, -2.199515, -0.238259, 4.170730, -73.474030, -70.525497, -623.011292
1733468839.238599, -18.111986, -4.879383, -3.801244, -2.009290, -0.783150, 3.526203, -74.475937, -69.052811, -623.359619
1733468839.248245, -18.023700, -5.573402, -5.377975, -1.598250, -1.429969, 2.966041, -75.379333, -67.751450, -623.422119
1733468839.258587, -18.490868, -6.465841, -6.680571, -1.080174, -2.009277, 2.384104, -76.082870, -66.556595, -622.857544
1733468839.268589, -18.777724, -7.571064, -8.045415, -0.570167, -2.223476, 1.824408, -76.671829, -65.799011, -621.942261
1733468839.278577, -18.620754, -8.429236, -8.753501, -0.204692, -2.095823, 1.328204, -76.853424, -65.144272, -621.111755
1733468839.288577, -18.269105, -9.238775, -8.739135, 0.002041, -1.770534, 0.896347, -77.200684, -64.850891, -620.838135
1733468839.298633, -17.846529, -9.592070, -8.551939, 0.146534, -1.318491, 0.513422, -77.385544, -64.629410, -619.304565
1733468839.308584, -17.123630, -9.938331, -8.388385, 0.298363, -0.792355, 0.171961, -77.660431, -64.570496, -619.143494
1733468839.318591, -16.194530, -10.269629, -7.786243, 0.407449, -0.287854, -0.137940, -77.900238, -64.657867, -619.084290
1733468839.328623, -15.146618, -10.404153, -6.675782, 0.424600, 0.127838, -0.417718, -77.585983, -64.843002, -619.258545
1733468839.338582, -14.091224, -10.397868, -5.265897, 0.361059, 0.398042, -0.659236, -77.805679, -65.267914, -619.968201
1733468839.348579, -12.998869, -10.539425, -4.178181, 0.244160, 0.535003, -0.874974, -77.913406, -65.420670, -619.980835
1733468839.358574, -11.914146, -10.786178, -3.476830, 0.111605, 0.556002, -1.065071, -77.566772, -66.022583, -619.687378
1733468839.368578, -11.142016, -10.707468, -3.166781, 0.013213, 0.490896, -1.254623, -77.513611, -66.711090, -620.205322
1733468839.378576, -10.609007, -10.661979, -3.243694, -0.043383, 0.379479, -1.450767, -76.945648, -67.235352, -620.419800
1733468839.388585, -10.260800, -10.416573, -3.570204, -0.060858, 0.261982, -1.641442, -76.586197, -67.899445, -619.617981
1733468839.398574, -10.125827, -9.950751, -4.059818, -0.040672, 0.197145, -1.825547, -76.021332, -68.434494, -620.357666
1733468839.408575, -10.149021, -9.529072, -4.566042, 0.002573, 0.212727, -2.002758, -75.317612, -69.357086, -620.684448
1733468839.418574, -10.060136, -9.111284, -4.872649, 0.068825, 0.284605, -2.159747, -74.546906, -70.231903, -620.753174
1733468839.428593, -9.866355, -8.440608, -5.038298, 0.164945, 0.416519, -2.290421, -73.558853, -71.094589, -620.756653
1733468839.438593, -9.744700, -7.996334, -4.999392, 0.258726, 0.604590, -2.432054, -72.955185, -71.933655, -621.125916
1733468839.448577, -9.404574, -8.220641, -4.720617, 0.315097, 0.779867, -2.595083, -72.394852, -72.906281, -621.097412
1733468839.458579, -8.860791, -8.289474, -4.046051, 0.320525, 0.848258, -2.768968, -71.405670, -74.025192, -621.244385
1733468839.468573, -8.659079, -8.176049, -3.262399, 0.285268, 0.778319, -2.985256, -70.329300, -75.007294, -621.342041
1733468839.478576, -8.767267, -7.979425, -2.848352, 0.256231, 0.634528, -3.267147, -68.987579, -76.339600, -621.693604
1733468839.488575, -8.607155, -7.463475, -2.825607, 0.276001, 0.484324, -3.552488, -67.652496, -77.432205, -621.503662
1733468839.498429, -8.010251, -6.635231, -2.999486, 0.373839, 0.379322, -3.776777, -66.044617, -78.684799, -621.173889
1733468839.508580, -7.171681, -5.697302, -3.238607, 0.524558, 0.369785, -3.928434, -64.457306, -79.709564, -621.266907
1733468839.518572, -6.283283, -5.138256, -3.393033, 0.689994, 0.476200, -4.008428, -63.005112, -80.742966, -621.145996
1733468839.528130, -5.451298, -5.291635, -3.273771, 0.778119, 0.671166, -4.088737, -61.425262, -81.846954, -621.404175
1733468839.538569, -4.642806, -5.860557, -2.826056, 0.758653, 0.874093, -4.184685, -59.525528, -82.866425, -621.105286
1733468839.547768, -3.874716, -5.765687, -2.212691, 0.681538, 1.016726, -4.282825, -57.782104, -83.768723, -621.300842
1733468839.558586, -2.949058, -5.411644, -1.669058, 0.615945, 1.027495, -4.363101, -55.842529, -84.752380, -621.025574
1733468839.568573, -2.090587, -5.005976, -1.253065, 0.593982, 0.925657, -4.434500, -53.909622, -85.526306, -620.691528
1733468839.578569, -1.418564, -4.386626, -1.105373, 0.612895, 0.803913, -4.482033, -51.630157, -86.431030, -620.636292
1733468839.588569, -0.986561, -3.747225, -0.967407, 0.649645, 0.653951, -4.518955, -49.527847, -86.953125, -620.515503
1733468839.598567, -0.481683, -3.132065, -0.957980, 0.709969, 0.516212, -4.509065, -47.516083, -87.362289, -619.980225
1733468839.608581, -0.131681, -2.943521, -1.285088, 0.781038, 0.505639, -4.524802, -45.779556, -87.640854, -619.714478
1733468839.618570, 0.240019, -3.381361, -1.556830, 0.834895, 0.596782, -4.573785, -43.406052, -87.942337, -619.069702
1733468839.628578, 0.636708, -3.273622, -1.415721, 0.837803, 0.744583, -4.642498, -41.328323, -88.157700, -619.309082
1733468839.638571, 1.200692, -2.921674, -1.053149, 0.788458, 0.937701, -4.702569, -38.966309, -88.249466, -618.480469
1733468839.648568, 1.762132, -2.462885, -0.604536, 0.702876, 1.127327, -4.741926, -36.922974, -88.180664, -618.191345
1733468839.658568, 2.301426, -1.866729, -0.020500, 0.617533, 1.231580, -4.776243, -34.643631, -87.941177, -617.812866
1733468839.668589, 3.117849, -1.094300, 0.505177, 0.545195, 1.241779, -4.743979, -32.422623, -87.760254, -617.632812
1733468839.678595, 4.062062, -0.448913, 0.963068, 0.504405, 1.148920, -4.660879, -30.530670, -87.145920, -616.771606
1733468839.688580, 4.904073, -0.201861, 1.266982, 0.437571, 1.040767, -4.564550, -28.405060, -86.875595, -616.735718
1733468839.698575, 5.595399, -0.138864, 1.196802, 0.351549, 0.985422, -4.477339, -26.501144, -86.334152, -616.439697
1733468839.708567, 6.475118, 0.074669, 0.947056, 0.263655, 0.982886, -4.365378, -24.873703, -85.799637, -616.390076
1733468839.718565, 7.657106, 0.210839, 0.627281, 0.223326, 1.017648, -4.243143, -22.865768, -85.062912, -615.984192
1733468839.728569, 9.193734, 0.568324, 0.465373, 0.244107, 0.997748, -4.025262, -21.579575, -84.428558, -615.857056
1733468839.738618, 10.290877, 1.213711, 0.928651, 0.254331, 0.838332, -3.781797, -20.338867, -83.676712, -615.796936
1733468839.748578, 11.014076, 1.348983, 1.136797, 0.266735, 0.620580, -3.584637, -18.957443, -83.020126, -615.431824
1733468839.758572, 12.117952, 1.539023, 1.050456, 0.324514, 0.431722, -3.341697, -17.826965, -82.219681, -615.076721
1733468839.768561, 13.012486, 1.838597, 1.053898, 0.348957, 0.308015, -3.076434, -16.620575, -81.614380, -614.867920
1733468839.778574, 13.603555, 1.619827, 1.028908, 0.290409, 0.300297, -2.856699, -15.702332, -81.088913, -614.158264
1733468839.788637, 14.240412, 1.595137, 0.532411, 0.233827, 0.444327, -2.630889, -15.248840, -80.260071, -614.349304
1733468839.798565, 14.759206, 1.841291, 0.033668, 0.267315, 0.639910, -2.426241, -14.443527, -79.805710, -614.147644
1733468839.808575, 15.302091, 1.686565, -0.007332, 0.362286, 0.804413, -2.280473, -13.886459, -79.182053, -614.502808
1733468839.818586, 16.039355, 1.919850, 0.599299, 0.485534, 0.812365, -2.126333, -13.446152, -78.692093, -613.784912
1733468839.828584, 16.741605, 2.147898, 1.733103, 0.576988, 0.649347, -1.956791, -12.551147, -78.295395, -612.958252
1733468839.838571, 17.480216, 1.831714, 2.715025, 0.605395, 0.388854, -1.787130, -12.196075, -77.604080, -612.623047
1733468839.848576, 18.058565, 1.778293, 3.542670, 0.569816, 0.057836, -1.578066, -11.611969, -77.109879, -613.016846
1733468839.858568, 18.117373, 1.627459, 4.053383, 0.472791, -0.254723, -1.388224, -11.145203, -76.767990, -612.459290
1733468839.868577, 17.921797, 1.352275, 3.983054, 0.348059, -0.447313, -1.218090, -10.603775, -76.066147, -612.619263
1733468839.878569, 17.767520, 1.581969, 3.363404, 0.234911, -0.365393, -1.055715, -10.222443, -76.110306, -611.497253
1733468839.888573, 18.280777, 1.831564, 2.937536, 0.108045, -0.160858, -0.835662, -9.918060, -75.866806, -612.490601
1733468839.898571, 19.213468, 1.869123, 3.145083, -0.005154, -0.051201, -0.537704, -10.241989, -75.740265, -612.444946
1733468839.908580, 19.673754, 2.127996, 3.230975, -0.053762, -0.016584, -0.198855, -10.309097, -75.645157, -612.706482
1733468839.918577, 19.514988, 2.229750, 3.210325, -0.074863, -0.010040, 0.087733, -10.201233, -75.738083, -612.604370
1733468839.928561, 19.457527, 1.979406, 3.358167, -0.086806, -0.122149, 0.374711, -10.156342, -76.025253, -612.286194
1733468839.938580, 19.437775, 1.990030, 3.616442, -0.082614, -0.334944, 0.676943, -10.522141, -76.310913, -613.023438
1733468839.948566, 19.048867, 2.298434, 3.855413, -0.090470, -0.597233, 0.980023, -10.729355, -76.599823, -613.442688
1733468839.958561, 18.576611, 2.347814, 3.912574, -0.137086, -0.830799, 1.299894, -11.063660, -77.080856, -614.090942
1733468839.968591, 17.851317, 2.336890, 3.778050, -0.215327, -1.004517, 1.608195, -11.359528, -77.401367, -614.071777
1733468839.978560, 16.907852, 2.342427, 3.429095, -0.314500, -1.089408, 1.896993, -11.919586, -78.106979, -613.814026
1733468839.988556, 16.110583, 2.226458, 2.868553, -0.434757, -1.073893, 2.183271, -12.818420, -78.950394, -615.396301
1733468839.998552, 15.451280, 2.105251, 2.337938, -0.572907, -0.998133, 2.475545, -13.457214, -79.522598, -615.431763
1733468840.008585, 14.852430, 2.050035, 1.730559, -0.699905, -0.885918, 2.774819, -14.419785, -80.178802, -615.768555
1733468840.018141, 14.236971, 2.086547, 1.127968, -0.796098, -0.758361, 3.076562, -15.723221, -80.968979, -616.297119
1733468840.028561, 13.596971, 2.113182, 0.553509, -0.849290, -0.595333, 3.360375, -16.867172, -82.012772, -616.940186
1733468840.038571, 12.986000, 2.064400, 0.110433, -0.868554, -0.447082, 3.624578, -18.319580, -82.881348, -617.549927
1733468840.048564, 12.436980, 1.965490, -0.160112, -0.854294, -0.332609, 3.871770, -19.940674, -83.494598, -617.751709
1733468840.058597, 11.848305, 1.887080, -0.326060, -0.823308, -0.239318, 4.099130, -21.549011, -84.465103, -618.098633
1733468840.068570, 11.322778, 1.839944, -0.074071, -0.784009, -0.299930, 4.334614, -23.745377, -85.202805, -618.836121
1733468840.078563, 10.576236, 1.608155, 0.316035, -0.737434, -0.447261, 4.532537, -25.591080, -86.013443, -619.131897
1733468840.088556, 9.676316, 1.335815, 0.578948, -0.692589, -0.663754, 4.713814, -27.725632, -86.745728, -619.822083
1733468840.098569, 8.675240, 1.147870, 0.944213, -0.686916, -0.904141, 4.879520, -29.799820, -87.085449, -619.915588
1733468840.108567, 7.486669, 0.864456, 0.963217, -0.725625, -1.078473, 4.993659, -32.234848, -87.665314, -620.541504
1733468840.118567, 6.632088, 0.529567, 0.800561, -0.796382, -1.218750, 5.109393, -34.504333, -87.796524, -620.880371
1733468840.128569, 6.040870, 0.323965, 0.435745, -0.878533, -1.296304, 5.252975, -36.822632, -88.146317, -621.234619
1733468840.138562, 5.334730, 0.075567, -0.449212, -0.942895, -1.214776, 5.381225, -39.187149, -87.999786, -622.228760
1733468840.148557, 4.832397, 0.034866, -1.296161, -0.962568, -1.003063, 5.555871, -42.055954, -87.711105, -622.446411
1733468840.158559, 4.332906, 0.287603, -1.716942, -0.956997, -0.733597, 5.781199, -45.083008, -87.486847, -623.039856
1733468840.168557, 3.493140, 0.087239, -1.495927, -0.998108, -0.510079, 5.964386, -47.934738, -86.998856, -623.562744
1733468840.178574, 2.627936, -0.297480, -1.081880, -1.110793, -0.323584, 6.117057, -50.913925, -86.281189, -623.246521
1733468840.188557, 1.525106, -0.474052, -0.755820, -1.278405, -0.150891, 6.185514, -53.589264, -85.229004, -624.942505
1733468840.198556, 0.704943, -0.580594, -0.411952, -1.449268, -0.117603, 6.212378, -56.292801, -84.167496, -625.441040
1733468840.208564, 0.458639, -0.470012, -0.193781, -1.550949, -0.274226, 6.262540, -58.772980, -82.808929, -625.945190
1733468840.218554, 0.310947, 0.021249, -0.373495, -1.565626, -0.466229, 6.421181, -61.527557, -81.094467, -626.569214
1733468840.228561, -0.465822, 0.944812, -0.591218, -1.577594, -0.587120, 6.637642, -61.527557, -81.094467, -626.569214
1733468840.238562, -1.924788, 1.427692, -0.850091, -1.680134, -0.541669, 6.818804, -66.389191, -76.670609, -627.519531
1733468840.248551, -3.761740, 1.463605, -1.170914, -1.920884, -0.386800, 6.998098, -66.389191, -76.670609, -627.519531
1733468840.258571, -6.514623, 2.000655, -1.080533, -2.292122, -0.385731, 7.089930, -68.669434, -74.355896, -628.284546
1733468840.268550, -10.073903, 1.904587, -1.267131, -2.670963, -0.610022, 6.914949, -71.234711, -71.587723, -629.071167
1733468840.278549, -13.745860, 0.382025, -2.812139, -2.864280, -0.955561, 6.381771, -73.569290, -69.045486, -629.411316
1733468840.288596, -17.068264, -2.031181, -5.749077, -2.665538, -1.182665, 5.531594, -74.835892, -66.567215, -629.192688
1733468840.298564, -19.364752, -4.236241, -9.222764, -2.077167, -1.062172, 4.544407, -76.312332, -64.411499, -629.902710
1733468840.308563, -20.352659, -6.155792, -11.464036, -1.345618, -0.745478, 3.574560, -76.507431, -62.620331, -629.690613
1733468840.318613, -19.997719, -6.252607, -10.802488, -0.778456, -0.665442, 2.830463, -77.220184, -61.404007, -629.477722
1733468840.328555, -19.277364, -5.320964, -8.563311, -0.460908, -0.994039, 2.268015, -77.771439, -60.379059, -629.349548
1733468840.338554, -18.872893, -5.602731, -6.798485, -0.260811, -1.743915, 1.759423, -78.486145, -59.557190, -628.366516
1733468840.348562, -19.264046, -6.698677, -6.443395, -0.032904, -2.632970, 1.205624, -78.785980, -59.390244, -627.046021
1733468840.358560, -19.977219, -8.086715, -7.844901, 0.292404, -3.277298, 0.616616, -79.243134, -59.083130, -625.783936
1733468840.368556, -20.577415, -9.218724, -9.530419, 0.661535, -3.509765, 0.031602, -79.297012, -58.971603, -623.924133
1733468840.378552, -20.772094, -10.051906, -10.782736, 0.971771, -3.233579, -0.470005, -79.284363, -59.154282, -622.064575
1733468840.388553, -20.348619, -10.283844, -11.447576, 1.141069, -2.446325, -0.864390, -79.015762, -59.573486, -620.481018
1733468840.398558, -19.511397, -10.217106, -11.307665, 1.162667, -1.321634, -1.135095, -78.943161, -60.025253, -620.172852
1733468840.408556, -18.181268, -9.693225, -10.177302, 1.069501, -0.147330, -1.295708, -78.794128, -61.008179, -619.840027
1733468840.418560, -16.705093, -9.282619, -8.627655, 0.917454, 0.849502, -1.380353, -78.764221, -61.596405, -620.359985
1733468840.428567, -15.202732, -9.049184, -6.937499, 0.748392, 1.556270, -1.442487, -78.645111, -62.409760, -621.358276
1733468840.438564, -14.031817, -9.296984, -5.274726, 0.563075, 1.867864, -1.580316, -78.634796, -63.180038, -621.507202
1733468840.448612, -13.066655, -9.708787, -3.761740, 0.367300, 1.731158, -1.823510, -78.286774, -64.029114, -622.758789
1733468840.458561, -12.358420, -9.466823, -2.925116, 0.240049, 1.265639, -2.099989, -77.515930, -65.172226, -623.192139
1733468840.468551, -11.868507, -9.072977, -3.135506, 0.224284, 0.742650, -2.397181, -77.068695, -66.218124, -623.234741
1733468840.478604, -11.763910, -8.753501, -4.040664, 0.299054, 0.338861, -2.705074, -76.205399, -67.195923, -623.196655
1733468840.488348, -11.993604, -8.379407, -4.868459, 0.415374, 0.120090, -3.033346, -75.189194, -68.533737, -622.549805
1733468840.498547, -12.130971, -7.731027, -5.535544, 0.553402, 0.133875, -3.347863, -74.022369, -69.801315, -622.960266
1733468840.508599, -12.007370, -7.083994, -5.896171, 0.677540, 0.378888, -3.642744, -72.930023, -71.254425, -623.176941
1733468840.518552, -11.252748, -6.687753, -5.835268, 0.773224, 0.734976, -3.885046, -71.986313, -72.677383, -622.913513
1733468840.528550, -9.872042, -6.316503, -5.294178, 0.821803, 1.044648, -4.035933, -70.583527, -74.229645, -623.094849
1733468840.538615, -8.642769, -5.728127, -4.421791, 0.832482, 1.212258, -4.135796, -69.272507, -75.643295, -623.347900
1733468840.548566, -7.197419, -4.592378, -3.057844, 0.886334, 1.175945, -4.331678, -67.415649, -77.239212, -623.535400
1733468840.558553, -7.197419, -4.592378, -3.057844, 0.987729, 1.035114, -4.436307, -65.926392, -78.468109, -623.420532
1733468840.568546, -6.416460, -3.853617, -2.511218, 1.125903, 0.874180, -4.570177, -64.415573, -80.016739, -623.058533
1733468840.578550, -6.416460, -3.853617, -2.511218, 1.266110, 0.799095, -4.760825, -62.076263, -81.203842, -623.174072
1733468840.588558, -5.526566, -4.299687, -2.450465, 1.374219, 0.775323, -4.976848, -60.128220, -82.556458, -621.696960
1733468840.598545, -4.526538, -4.029441, -1.903839, 1.440845, 0.691818, -5.145953, -58.028030, -83.619156, -622.295532
1733468840.608551, -3.777003, -3.678840, -1.401506, 1.476556, 0.611842, -5.313940, -55.952606, -84.780563, -621.278015
1733468840.618544, -3.006968, -3.374478, -1.082030, 1.486200, 0.582545, -5.491357, -53.680130, -85.722488, -621.049316
1733468840.628546, -2.003648, -2.781613, -0.724096, 1.464359, 0.535399, -5.623742, -51.141052, -86.551285, -620.640808
1733468840.638544, -1.053299, -2.062006, -0.260220, 1.423906, 0.430278, -5.680785, -48.011429, -87.261322, -620.011292
1733468840.648542, -0.308253, -1.367239, 0.175974, 1.360642, 0.283497, -5.670104, -45.627167, -87.847198, -619.240295
1733468840.658559, 0.417339, -1.246631, 0.192434, 1.235712, 0.214639, -5.658479, -43.129730, -88.054169, -618.466736
1733468840.668568, 1.092654, -1.712004, -0.187047, 1.086108, 0.238356, -5.673410, -40.683990, -88.211487, -617.963806
1733468840.678552, 1.618480, -1.960552, -0.566528, 0.963800, 0.320276, -5.738986, -37.858612, -88.343002, -617.765015
1733468840.688554, 2.156876, -1.724424, -0.845004, 0.880767, 0.467039, -5.806781, -35.076584, -88.180756, -616.437622
1733468840.698544, 2.994697, -0.949301, -0.735768, 0.818852, 0.587815, -5.809089, -32.270874, -87.618286, -616.746826
1733468840.707879, 2.994697, -0.949301, -0.735768, 0.769172, 0.554954, -5.754842, -29.603592, -87.426865, -616.160522
1733468840.718562, 4.835390, 0.859069, 0.223259, 0.733844, 0.454467, -5.683016, -27.325592, -86.742935, -615.549438
1733468840.728546, 5.935376, 1.397914, 0.400879, 0.710462, 0.275526, -5.541293, -24.854538, -85.787796, -615.305237
1733468840.738543, 7.362769, 1.735796, 0.622792, 0.678714, 0.005106, -5.308655, -22.551376, -85.273041, -615.193970
1733468840.748545, 8.343494, 1.759589, 0.524629, 0.586341, -0.217256, -5.059687, -20.376221, -83.977356, -614.271301
1733468840.758543, 8.774749, 1.659930, -0.367660, 0.484081, -0.180732, -4.893039, -18.340240, -83.006180, -614.550903
1733468840.768541, 9.504831, 2.045247, -1.460014, 0.436018, 0.122303, -4.705923, -16.378448, -81.894592, -614.116943
1733468840.778545, 10.620379, 2.989610, -1.896507, 0.461144, 0.512040, -4.430960, -14.739975, -80.559082, -613.544922
1733468840.788543, 11.686398, 3.756652, -1.444901, 0.493887, 0.793664, -4.164770, -13.367157, -79.883575, -612.992432
1733468840.798536, 13.063662, 4.224270, -0.343568, 0.498392, 0.848829, -3.852389, -11.831970, -78.689102, -612.809692
1733468840.808535, 14.362666, 4.840178, 0.692972, 0.467697, 0.695156, -3.524023, -11.199020, -77.726028, -612.251343
1733468840.818553, 15.054890, 5.110723, 1.340304, 0.444122, 0.370615, -3.260460, -9.930313, -76.638870, -612.193604
1733468840.828548, 15.627254, 5.096058, 1.532888, 0.431943, -0.002160, -3.023754, -9.207886, -75.618393, -612.312012
1733468840.838554, 16.051775, 5.419275, 0.865354, 0.450701, -0.194971, -2.801081, -8.499329, -74.549179, -611.970337
1733468840.848549, 15.991471, 5.874473, 0.243161, 0.488587, -0.219789, -2.648455, -7.723862, -73.757950, -611.928833
1733468840.858552, 16.402975, 6.123919, 0.130185, 0.504862, -0.223959, -2.505450, -6.984924, -72.906570, -611.535767
1733468840.868541, 17.473333, 6.356306, 0.205901, 0.497377, -0.255945, -2.313254, -6.327042, -72.035522, -611.900085
1733468840.878553, 18.211794, 6.836942, 0.033668, 0.509140, -0.241462, -2.097059, -5.750687, -71.237900, -611.640137
1733468840.888537, 18.855086, 7.197718, -0.125696, 0.527058, -0.175816, -1.848593, -5.281326, -70.782455, -611.249756
1733468840.898534, 19.410840, 7.337779, 0.001197, 0.556603, -0.120583, -1.575422, -4.810547, -70.003586, -611.733826
1733468840.908538, 19.700688, 7.559542, 0.406416, 0.586716, -0.121532, -1.314624, -4.563019, -69.591370, -611.426270
1733468840.918537, 20.502896, 7.816021, 0.960225, 0.606069, -0.235879, -1.000993, -4.148239, -68.955887, -611.094788
1733468840.927637, 21.816115, 8.031050, 1.457321, 0.618493, -0.481267, -0.542853, -3.918991, -68.532272, -611.067261
1733468840.938543, 22.710948, 7.984064, 1.231069, 0.620148, -0.579575, 0.029269, -3.545090, -68.459259, -611.304871
1733468840.948548, 23.120955, 7.798364, 0.846500, 0.588720, -0.479004, 0.713910, -3.470779, -68.809570, -611.479614
1733468840.958545, 22.764369, 7.533505, 1.116596, 0.479481, -0.334088, 1.413066, -3.573059, -69.106689, -611.144226
1733468840.968538, 21.719749, 7.130531, 1.719186, 0.272488, -0.200793, 2.076598, -3.968384, -69.805740, -611.517090
1733468840.978540, 20.157083, 6.653337, 1.908179, 0.022930, -0.023291, 2.634280, -4.745850, -70.436142, -611.096619
1733468840.988539, 18.414703, 6.052841, 1.888726, -0.223886, 0.171572, 3.082008, -5.538544, -71.717392, -610.942627
1733468840.998537, 16.729334, 5.525668, 2.079514, -0.469668, 0.294110, 3.414618, -6.765854, -72.868790, -611.019287
1733468841.008537, 15.264981, 4.940136, 2.164807, -0.677545, 0.348656, 3.639837, -7.703094, -74.050049, -611.697693
1733468841.018538, 14.204649, 4.579509, 2.168698, -0.813987, 0.290688, 3.831954, -8.977737, -75.241989, -611.729309
1733468841.028031, 13.017125, 4.204817, 2.168997, -0.890459, 0.164150, 3.942766, -10.290131, -76.552124, -612.156189
1733468841.038536, 12.099098, 3.545364, 2.151489, -0.924994, -0.051685, 3.996101, -11.716354, -77.798416, -612.379089
1733468841.048537, 11.854291, 3.156306, 1.878999, -0.901140, -0.320703, 4.092834, -12.882660, -79.094543, -613.267456
1733468841.058542, 11.951106, 3.137003, 1.324293, -0.806739, -0.629160, 4.296445, -14.328293, -80.126114, -612.979553
1733468841.068531, 11.748946, 3.093907, 0.531064, -0.646102, -0.864757, 4.580764, -15.724670, -81.133331, -613.419006
1733468841.078532, 10.677690, 2.884414, -0.253785, -0.462697, -0.924173, 4.817649, -17.621674, -82.184097, -614.020203
1733468841.088535, 9.623045, 2.372355, -0.674117, -0.330171, -0.882325, 4.992895, -19.468765, -83.370407, -614.132385
1733468841.098578, 8.852261, 2.193837, -0.595408, -0.215103, -0.854580, 5.176153, -21.604248, -84.572586, -614.799194
1733468841.108531, 7.806893, 2.265513, -0.291344, -0.104515, -0.867320, 5.349537, -23.706650, -85.370865, -615.108215
1733468841.118536, 6.534973, 1.701529, 0.353893, -0.055936, -0.975065, 5.441532, -26.137695, -86.123856, -615.104736
1733468841.128550, 5.521478, 1.070507, 0.736367, -0.076821, -1.089966, 5.480886, -28.623810, -86.686905, -615.493347
1733468841.138537, 4.776133, 0.922815, 0.776619, -0.138848, -1.186528, 5.521879, -31.023651, -87.362350, -615.597412
1733468841.148533, 4.552874, 0.878073, 0.420182, -0.216266, -1.218727, 5.647124, -33.509048, -87.796082, -615.571472
1733468841.158532, 4.560206, 0.977882, -0.407463, -0.282505, -1.124389, 5.909945, -36.016434, -87.935867, -616.027100
1733468841.168532, 4.227861, 1.585560, -1.151162, -0.319817, -0.894164, 6.297809, -38.606308, -87.990875, -616.331543
1733468841.178535, 3.065326, 1.981052, -1.364096, -0.413522, -0.577916, 6.693359, -41.734863, -87.862228, -616.352295
1733468841.188532, 1.523909, 1.875258, -1.173159, -0.608938, -0.224805, 6.999463, -45.285156, -87.749573, -616.631165
1733468841.198532, 0.033519, 1.433528, -1.018583, -0.875740, 0.142038, 7.156209, -48.768143, -87.101166, -617.053894
1733468841.208399, -1.009605, 0.917877, -0.927005, -1.129115, 0.373259, 7.251180, -52.045090, -86.347961, -617.887451
1733468841.218537, -1.781436, 0.884358, -1.151312, -1.309241, 0.531986, 7.350464, -55.202362, -84.961502, -618.488953
1733468841.228540, -2.303222, 0.849193, -1.864185, -1.446949, 0.701617, 7.496116, -58.070831, -83.395050, -619.117798
1733468841.238537, -3.090017, 1.617882, -2.514361, -1.524107, 0.839014, 7.740499, -61.195465, -81.538528, -620.054871
1733468841.248547, -5.416133, 2.319084, -2.826804, -1.574032, 1.046808, 7.908482, -64.446777, -79.642059, -620.963745
1733468841.258533, -8.561665, 1.155352, -3.303699, -1.715109, 1.408341, 7.765996, -67.314880, -77.133377, -622.068542
1733468841.268531, -11.803414, -0.927903, -3.194314, -1.929103, 1.540917, 7.307426, -70.142334, -74.838120, -623.269531
1733468841.278535, -14.977527, -2.906860, -2.456451, -2.110347, 1.103724, 6.488018, -72.539185, -72.618668, -624.020020
1733468841.288530, -17.343746, -4.755932, -2.502988, -2.076852, 0.119830, 5.409298, -74.160858, -70.571274, -625.396973
1733468841.298530, -18.293496, -5.990741, -3.829226, -1.663080, -1.056014, 4.314841, -75.570724, -68.709930, -624.969116
1733468841.308530, -18.666244, -7.367707, -6.194698, -0.921856, -1.998582, 3.319683, -76.042389, -67.217285, -624.423645
1733468841.318527, -18.556709, -8.089110, -7.915231, -0.147584, -2.580506, 2.544235, -76.328537, -66.153427, -622.896057
1733468841.328529, -17.966239, -7.661894, -8.257153, 0.445124, -2.825794, 2.062930, -76.747177, -65.177277, -621.499207
1733468841.338531, -17.641974, -7.671471, -8.344691, 0.811713, -2.651824, 1.757554, -76.821274, -64.673553, -620.443237
1733468841.348528, -17.728614, -8.538621, -8.221240, 0.970680, -2.248151, 1.508152, -77.413818, -63.986725, -619.306519
1733468841.358530, -18.074726, -9.376442, -7.476793, 0.928292, -1.768985, 1.266155, -77.616440, -63.450394, -618.467102
1733468841.368530, -19.001881, -10.187627, -7.095516, 0.798588, -1.224929, 0.934613, -77.989883, -63.182816, -617.805603
1733468841.378526, -20.161273, -11.334151, -6.990620, 0.649689, -0.659459, 0.447845, -78.303421, -63.000122, -616.770386
1733468841.388536, -20.462942, -12.405706, -6.867319, 0.535671, -0.173509, -0.099405, -78.339310, -63.199539, -617.149536
1733468841.398528, -19.830275, -12.671163, -6.548142, 0.524567, 0.128563, -0.593565, -78.248047, -63.515564, -617.183716
1733468841.408537, -18.832042, -12.420370, -6.142923, 0.596304, 0.318698, -1.026762, -78.166351, -64.046173, -617.179321
1733468841.418524, -17.792809, -12.206089, -5.446659, 0.674867, 0.409437, -1.408655, -78.006134, -64.799896, -617.456787
1733468841.428545, -16.859669, -12.000337, -4.444985, 0.694659, 0.407097, -1.777435, -77.504608, -65.648605, -617.386963
1733468841.438556, -16.051326, -11.780220, -3.622577, 0.655749, 0.323670, -2.146657, -76.950363, -66.430176, -616.978943
1733468841.448533, -15.130008, -11.262624, -3.044676, 0.575574, 0.205764, -2.490039, -76.380432, -67.603119, -617.012817
1733468841.458536, -14.134469, -10.639982, -2.786252, 0.473993, 0.095096, -2.780742, -75.508423, -68.789886, -617.435425
1733468841.468529, -13.229012, -9.935189, -2.849399, 0.378623, 0.058559, -3.010885, -74.418808, -69.830536, -617.024231
1733468841.478529, -12.494890, -9.358485, -3.186982, 0.299692, 0.182113, -3.192287, -73.449722, -71.182541, -616.289001
1733468841.488526, -11.994202, -8.767716, -3.492841, 0.242992, 0.417875, -3.343573, -72.571701, -72.481567, -617.009888
1733468841.498538, -11.675773, -8.201188, -3.474735, 0.207344, 0.698223, -3.517488, -71.234436, -73.733551, -617.161377
1733468841.508526, -11.336545, -7.731027, -3.161693, 0.180211, 0.927805, -3.725281, -70.189560, -75.068558, -617.535950
1733468841.518530, -10.752659, -7.325060, -2.738368, 0.163530, 1.048001, -3.960903, -68.702805, -76.508102, -617.707520
1733468841.528545, -10.008661, -6.840833, -2.337190, 0.181412, 1.024662, -4.219195, -67.271957, -78.199738, -618.151123
1733468841.538536, -9.180117, -6.362741, -2.193538, 0.274038, 0.899467, -4.473613, -65.366333, -79.371979, -618.369812
1733468841.548526, -8.257751, -5.620987, -2.196231, 0.459894, 0.721170, -4.693680, -63.679306, -80.757309, -618.338989
1733468841.558523, -7.150732, -4.690840, -2.020557, 0.711191, 0.479786, -4.848521, -61.314316, -82.183899, -618.204346
1733468841.568522, -6.127810, -4.023306, -1.638083, 0.958238, 0.229557, -4.953953, -59.458023, -83.382019, -617.616943
1733468841.578537, -5.448006, -3.639037, -1.204134, 1.116346, 0.062078, -5.056894, -57.231628, -84.327209, -616.780151
1733468841.588523, -4.923227, -3.510049, -0.773926, 1.150618, 0.042150, -5.190607, -55.291779, -85.449783, -616.644775
1733468841.598523, -4.310910, -3.479822, -0.263811, 1.056209, 0.072619, -5.369674, -52.699783, -86.010803, -616.160645
1733468841.608542, -3.277812, -3.429993, 0.128090, 0.904596, 0.046956, -5.559504, -49.959396, -86.864426, -615.961609
1733468841.618523, -2.174534, -2.989460, 0.262764, 0.769780, -0.022584, -5.686361, -47.465027, -87.544632, -615.369385
1733468841.628201, -1.414824, -2.293047, 0.106392, 0.677043, -0.053872, -5.782076, -44.689590, -87.932693, -614.887085
1733468841.638524, -0.829741, -1.608006, -0.123601, 0.611902, -0.057190, -5.844757, -41.787292, -88.235764, -614.566101
1733468841.648524, 0.036063, -0.727688, -0.102951, 0.595250, -0.113398, -5.823207, -39.234482, -88.221130, -614.586853
1733468841.658523, 1.031901, -0.249895, 0.048333, 0.622070, -0.237454, -5.771383, -36.472504, -88.304367, -614.254761
1733468841.668531, 2.037615, -0.238522, 0.235829, 0.636999, -0.405476, -5.677742, -33.859528, -87.936325, -613.785278
1733468841.678529, 2.753182, -0.025289, 0.368258, 0.589167, -0.460857, -5.555906, -31.382690, -87.587982, -612.999878
1733468841.688533, 3.108272, -0.029479, 0.347907, 0.464069, -0.421465, -5.479160, -28.748199, -86.826553, -613.121216
1733468841.698527, 3.234417, -0.153678, 0.366014, 0.273874, -0.267285, -5.432008, -28.748199, -86.826553, -613.121216
1733468841.708529, 3.450194, 0.242563, 0.121057, 0.047330, 0.039744, -5.362797, -26.567520, -86.147446, -613.174622
1733468841.718527, 3.857957, 0.872387, -0.146495, -0.156601, 0.488128, -5.305570, -24.234467, -85.456345, -612.997803
1733468841.728533, 5.162198, 1.525705, -0.046986, -0.319421, 0.875062, -5.135610, -21.954071, -84.680618, -613.140198
1733468841.738553, 6.660968, 2.264316, 0.748787, -0.466995, 1.027257, -4.912265, -20.021317, -83.948029, -612.790405
1733468841.748527, 7.889942, 2.643049, 1.209221, -0.601048, 1.019045, -4.701739, -18.193420, -82.958969, -612.926208
1733468841.758530, 9.256283, 3.254917, 1.199345, -0.645958, 0.819281, -4.415316, -16.722214, -81.905029, -613.143921
1733468841.768554, 10.284593, 3.475483, 0.788590, -0.603531, 0.602078, -4.149856, -15.022049, -80.780457, -613.046265
1733468841.778527, 11.036671, 3.630208, -0.191237, -0.486318, 0.605616, -3.911290, -13.941284, -79.784439, -613.246826
1733468841.788522, 12.041039, 4.318392, -0.397737, -0.394499, 0.667042, -3.667182, -13.073059, -79.004776, -613.061340
1733468841.798522, 13.056031, 5.015104, -0.157718, -0.397161, 0.741932, -3.494396, -12.001190, -77.730301, -613.191284
1733468841.808525, 14.404265, 5.636699, -0.515950, -0.364999, 0.915389, -3.351243, -10.984253, -76.999954, -613.120361
1733468841.818515, 16.418986, 6.174796, -0.476446, -0.270017, 0.934808, -3.191548, -10.366821, -76.082642, -613.192932
1733468841.828518, 18.435054, 6.691943, 0.366612, -0.144025, 0.696857, -3.051939, -9.908920, -75.100967, -612.625244
1733468841.838516, 20.283527, 7.591116, 0.909946, 0.029093, 0.266268, -2.843317, -9.058212, -74.378510, -613.194275
1733468841.848512, 22.152052, 8.142680, 1.438616, 0.206444, -0.347933, -2.527968, -8.310226, -73.550507, -612.758484
1733468841.858523, 23.291542, 8.298752, 1.404648, 0.323629, -0.824485, -2.178242, -7.481812, -72.645432, -612.593262
1733468841.868528, 24.017434, 8.683470, 0.547823, 0.362973, -0.934704, -1.800578, -6.850983, -72.007355, -613.193298
1733468841.878522, 25.112931, 8.796895, 0.090531, 0.305573, -0.909925, -1.309824, -6.332062, -71.386536, -613.271423
1733468841.888523, 26.271724, 9.020604, -0.099359, 0.230067, -0.822978, -0.673190, -5.949448, -71.146118, -612.670410
1733468841.898515, 26.749817, 8.955960, -0.485275, 0.198459, -0.723805, 0.046645, -5.730774, -70.833359, -613.699768
1733468841.908515, 26.381708, 8.502858, -0.688632, 0.170374, -0.627580, 0.797490, -5.754166, -71.080627, -613.679016
1733468841.918529, 25.168446, 7.568820, -0.798167, 0.124068, -0.519724, 1.511383, -6.114258, -71.368393, -614.224976
1733468841.928108, 23.221512, 6.579565, -1.069759, 0.073264, -0.309530, 2.148285, -6.128311, -72.222900, -614.605103
1733468841.938538, 20.848259, 5.646725, -1.197400, 0.012140, -0.039769, 2.650602, -7.060364, -73.100693, -614.315735
1733468841.948523, 18.564191, 4.602553, -0.863259, -0.082867, 0.184769, 2.998035, -7.960800, -73.974442, -614.100403
1733468841.958523, 16.645088, 3.705476, -0.489016, -0.190449, 0.313556, 3.229384, -8.798538, -75.150726, -614.138489
1733468841.968520, 15.026010, 2.881571, -0.182408, -0.278165, 0.336130, 3.366355, -9.833298, -76.231567, -614.042969
1733468841.978517, 13.511228, 2.202815, -0.159663, -0.334447, 0.324195, 3.422864, -10.998444, -77.230087, -614.339478
1733468841.988515, 12.232724, 1.745373, -0.162506, -0.346592, 0.267919, 3.432053, -12.188202, -78.256012, -614.216064
1733468841.998515, 11.328614, 1.314117, -0.022296, -0.311393, 0.133882, 3.403477, -13.185150, -79.183273, -614.902832
1733468842.008514, 10.859500, 0.983867, 0.333692, -0.235507, -0.130559, 3.374788, -14.316986, -80.188065, -614.403992
1733468842.018522, 10.660033, 0.822558, 0.632817, -0.130477, -0.485638, 3.393311, -15.823792, -80.813370, -614.462036
1733468842.028521, 10.496479, 0.789787, 0.642245, -0.014452, -0.791402, 3.453564, -16.529236, -81.805450, -614.780518
1733468842.038516, 10.177751, 0.865504, 0.605434, 0.071598, -1.033826, 3.563215, -17.918198, -82.535583, -615.149597
1733468842.048519, 9.790040, 0.900968, 0.592715, 0.110665, -1.212034, 3.709880, -19.363297, -83.257095, -615.214783
1733468842.058512, 9.183260, 0.955735, 0.232836, 0.131104, -1.256221, 3.883878, -20.875290, -83.951523, -615.311951
1733468842.068512, 8.651747, 1.108066, -0.285658, 0.154192, -1.166713, 4.072951, -22.244797, -84.832840, -615.483582
1733468842.078510, 8.197148, 1.287482, -0.506074, 0.182288, -1.034691, 4.304550, -24.141541, -85.541809, -615.489990
1733468842.088513, 7.497891, 1.519420, -0.468964, 0.202387, -0.904627, 4.556591, -26.066818, -86.250458, -615.087769
1733468842.098512, 6.539014, 1.550395, -0.415394, 0.181588, -0.731391, 4.751438, -28.090561, -86.749176, -615.833862
1733468842.108522, 5.968445, 1.410035, -0.260818, 0.118935, -0.587106, 4.952505, -30.303543, -87.356583, -615.725647
1733468842.118511, 5.293430, 1.462708, -0.004040, 0.056930, -0.473298, 5.171312, -32.727859, -87.788910, -615.531189
1733468842.128512, 4.229208, 1.421557, 0.320973, -0.037585, -0.363005, 5.352634, -35.200943, -87.995987, -615.986084
1733468842.138512, 3.173065, 1.181987, 0.805798, -0.188902, -0.304636, 5.481782, -37.817535, -88.072876, -615.773071
1733468842.148521, 2.340631, 0.891690, 1.104475, -0.374995, -0.293160, 5.563787, -40.298492, -88.283478, -616.180237
1733468842.158510, 1.877653, 0.704344, 1.096095, -0.570931, -0.288000, 5.656246, -42.928131, -88.108063, -616.180786
1733468842.168522, 1.719785, 0.979378, 0.764499, -0.726161, -0.296196, 5.829279, -45.595154, -87.615265, -616.926147
1733468842.178519, 1.491438, 1.391929, 0.118663, -0.816030, -0.273207, 6.088691, -48.290649, -87.238266, -617.206909
1733468842.188513, 0.919373, 1.883040, -0.373196, -0.859223, -0.205474, 6.404178, -51.182632, -86.599701, -616.807495
1733468842.198511, -0.484826, 1.850868, -0.479140, -0.911171, -0.110246, 6.652110, -54.467270, -85.515076, -618.027344
1733468842.208526, -2.687491, 0.816273, -0.418836, -1.052422, 0.096758, 6.706998, -57.474655, -84.184570, -618.938599
1733468842.218520, -4.737676, -0.790087, -0.663942, -1.322568, 0.445710, 6.562204, -60.242737, -82.841400, -619.940674
1733468842.228510, -5.814319, -2.155679, -1.023820, -1.692157, 0.854683, 6.367200, -62.601166, -81.161560, -620.737427
1733468842.238509, -6.034885, -2.674772, -1.329081, -2.073299, 1.182368, 6.230562, -64.705170, -79.408905, -622.048462
1733468842.248557, -5.915923, -2.069488, -1.591695, -2.349723, 1.274786, 6.243960, -67.136292, -77.526871, -623.246399
1733468842.258516, -6.407931, -1.139640, -1.784578, -2.485671, 1.019889, 6.337349, -69.443314, -75.215744, -624.502441
1733468842.268503, -8.149414, -1.496376, -2.259827, -2.493139, 0.431008, 6.317756, -71.462662, -72.946930, -625.448486
1733468842.278510, -10.877008, -3.003376, -3.407099, -2.320679, -0.245329, 6.049888, -73.345612, -70.571686, -626.261841
1733468842.288504, -14.311640, -4.659116, -5.243601, -2.029191, -0.764572, 5.479897, -74.959412, -68.361206, -625.518005
