SamplingTime, AccelerationX, AccelerationY, AccelerationZ, GyroX, GyroY, GyroZ, MagneticFieldX, MagneticFieldY, MagneticFieldZ
1733469145.177825, 9.085696, -3.950582, 0.773327, -0.462445, 0.275600, -0.010882, -4.444855, -77.640610, -620.839233
1733469145.187807, 8.649053, -4.134637, 0.724845, -0.326738, 0.119493, -0.106158, -4.651505, -77.371841, -621.679810
1733469145.197808, 8.336311, -4.411616, 0.756119, -0.119503, -0.074743, -0.249605, -4.404465, -77.375000, -621.793030
1733469145.207850, 8.264784, -4.893449, 0.557101, 0.160978, -0.353910, -0.355021, -4.218445, -77.133148, -621.873108
1733469145.217835, 8.239346, -5.258714, 0.434548, 0.308380, -0.419859, -0.442144, -3.798126, -77.163391, -622.123474
1733469145.227846, 8.121282, -4.966023, 0.518794, 0.334780, -0.392430, -0.495848, -3.825714, -76.828781, -621.277832
1733469145.237848, 8.178144, -5.047725, 0.518195, 0.294957, -0.243894, -0.506197, -3.210571, -76.640152, -620.712280
1733469145.247839, 8.316409, -5.132570, 0.102202, 0.244508, -0.004138, -0.480432, -3.504242, -76.590256, -621.546448
1733469145.257831, 8.307580, -4.896142, -0.043694, 0.187354, 0.233766, -0.448498, -3.288101, -76.526917, -620.659302
1733469145.267827, 8.240543, -4.800075, 0.150685, 0.131548, 0.345286, -0.435798, -3.150635, -76.322235, -621.182556
1733469145.277740, 8.000374, -4.657321, 0.593163, 0.075244, 0.349740, -0.473244, -2.846207, -76.119858, -621.056702
1733469145.287826, 7.617003, -4.602404, 0.773477, 0.019756, 0.338715, -0.561104, -2.480438, -75.863785, -620.162598
1733469145.297819, 7.243358, -4.368969, 0.623839, -0.004437, 0.328001, -0.680841, -2.173889, -75.665726, -620.980774
1733469145.307820, 6.833351, -4.148104, 0.419135, 0.018810, 0.326110, -0.850801, -1.847900, -75.390305, -619.924316
1733469145.317826, 6.616376, -4.017470, 0.146645, 0.080711, 0.312619, -1.041749, -1.656784, -75.055908, -620.317566
1733469145.327819, 6.679074, -3.579780, 0.011971, 0.183922, 0.240148, -1.212002, -1.163406, -74.460205, -620.434448
1733469145.337816, 6.934655, -3.115006, -0.130484, 0.355921, 0.117351, -1.356250, -0.805435, -73.999512, -619.612915
1733469145.347842, 7.743896, -2.457349, -0.755071, 0.581479, 0.008683, -1.455714, -0.242310, -73.423187, -619.998230
1733469145.357820, 8.116643, -2.141314, -0.692523, 0.810754, -0.100750, -1.519699, 0.046112, -73.022293, -618.959229
1733469145.367820, 8.343494, -1.836203, -0.490811, 1.005736, -0.218333, -1.554455, 0.734985, -72.296005, -619.588379
1733469145.377821, 8.409783, -1.601871, -0.234931, 1.139139, -0.307290, -1.569566, 1.253296, -71.753906, -619.674072
1733469145.387816, 8.334216, -1.278803, -0.022296, 1.179757, -0.336097, -1.583883, 1.727112, -71.081863, -619.039368
1733469145.397463, 8.334216, -1.278803, -0.022296, 1.141974, -0.279400, -1.590424, 2.223053, -70.299164, -618.698242
1733469145.407819, 8.130559, -0.629226, 0.254234, 1.058668, -0.154133, -1.612582, 2.673889, -69.863388, -618.235840
1733469145.417829, 8.178892, -0.315286, 0.450110, 0.960001, -0.029286, -1.652722, 3.069077, -69.035461, -617.939697
1733469145.427819, 8.293066, 0.123152, 0.619949, 0.865989, 0.072292, -1.676216, 3.618362, -68.439117, -617.886353
1733469145.437819, 8.353220, 0.497545, 0.872088, 0.787668, 0.126229, -1.696531, 4.252975, -67.821625, -616.770874
1733469145.447811, 8.509741, 0.820613, 0.981623, 0.719322, 0.140429, -1.708619, 4.596481, -67.072418, -616.970459
1733469145.457812, 8.719982, 1.129165, 1.090409, 0.655043, 0.157021, -1.713699, 5.059708, -66.296814, -615.942749
1733469145.467811, 8.847323, 1.523012, 1.397466, 0.578659, 0.153023, -1.714417, 5.557953, -65.456406, -616.351013
1733469145.477812, 8.917503, 1.869722, 1.513584, 0.468424, 0.110517, -1.714018, 6.048401, -64.736450, -616.513123
1733469145.487810, 9.108890, 2.380734, 1.310077, 0.354504, 0.090880, -1.727201, 6.361923, -64.149979, -615.664307
1733469145.497832, 9.425822, 3.012355, 1.204882, 0.274759, 0.114995, -1.737880, 6.627029, -63.218689, -616.227600
1733469145.507811, 9.813084, 3.546112, 1.149067, 0.209656, 0.126271, -1.745646, 6.910324, -62.551910, -615.586304
1733469145.517818, 10.305841, 4.171747, 0.944363, 0.173629, 0.147601, -1.742781, 7.345551, -61.641876, -615.255493
1733469145.527826, 10.798149, 4.778228, 0.882114, 0.184910, 0.150477, -1.689052, 7.617188, -60.849091, -616.221313
1733469145.537825, 11.221025, 5.130475, 0.950648, 0.240827, 0.105839, -1.585659, 7.917313, -60.218079, -615.369934
1733469145.547817, 11.536012, 5.654655, 1.139790, 0.292308, 0.040788, -1.450390, 8.271820, -59.549072, -615.782166
1733469145.557806, 11.580305, 6.380996, 1.324742, 0.324563, -0.019961, -1.299793, 8.412369, -59.101608, -614.858215
1733469145.567808, 11.783812, 7.231686, 1.610101, 0.314522, 0.008552, -1.170019, 8.493149, -58.314438, -614.688232
1733469145.577807, 12.154314, 8.265532, 2.187253, 0.219710, 0.100577, -1.062578, 8.548843, -57.985519, -615.696228
1733469145.587808, 12.566716, 9.367763, 2.841169, 0.080046, 0.158789, -0.972883, 8.487701, -57.613785, -614.871033
1733469145.597817, 13.371766, 10.517279, 3.453786, -0.085417, 0.149766, -0.927387, 8.434464, -57.076141, -615.836609
1733469145.607799, 14.975881, 11.816882, 3.932027, -0.267927, 0.037519, -0.862695, 8.660141, -56.650223, -614.804932
1733469145.617808, 17.053450, 12.895469, 3.957765, -0.418062, -0.265163, -0.649548, 8.775558, -56.481339, -614.897705
1733469145.627807, 18.605940, 13.699023, 3.112612, -0.460467, -0.696442, -0.214812, 8.921906, -56.463013, -616.475586
1733469145.637803, 19.121740, 14.264653, 1.873014, -0.376821, -1.041484, 0.378079, 9.177750, -56.657944, -615.866333
1733469145.647812, 19.119346, 14.495395, 1.048062, -0.264562, -1.187423, 1.036015, 9.038437, -57.311554, -616.900940
1733469145.657808, 18.641853, 14.625130, 0.543185, -0.196915, -1.119659, 1.740068, 8.749725, -58.365631, -616.994446
1733469145.667801, 17.795053, 14.488062, 0.464924, -0.181307, -0.893994, 2.432843, 8.160492, -59.590866, -617.185608
1733469145.677806, 16.764499, 14.188189, 0.975039, -0.227707, -0.624961, 3.071791, 7.589111, -61.075531, -618.366211
1733469145.687806, 15.695488, 13.798981, 1.515530, -0.333754, -0.450330, 3.636709, 6.887711, -62.829178, -618.172974
1733469145.697463, 14.644583, 13.327024, 1.558625, -0.448274, -0.358539, 4.146930, 5.974152, -64.878281, -618.889038
1733469145.707803, 13.628843, 12.867637, 1.457021, -0.529785, -0.266152, 4.601858, 4.765244, -66.887512, -618.674194
1733469145.717801, 13.000964, 12.453889, 1.656039, -0.580089, -0.236732, 5.010385, 3.259155, -69.095871, -618.776245
1733469145.727803, 12.458977, 11.961431, 1.807622, -0.562035, -0.358984, 5.422681, 1.887787, -71.508224, -619.861511
1733469145.737810, 11.836334, 11.482142, 1.938555, -0.431829, -0.644764, 5.831329, -0.142578, -74.026962, -619.548218
1733469145.747816, 10.991032, 10.988189, 1.942296, -0.222736, -0.997204, 6.234249, -2.151093, -76.377106, -620.926331
1733469145.757863, 9.890447, 10.264840, 1.904139, 0.019911, -1.318064, 6.624023, -4.508179, -78.774612, -621.503662
1733469145.767796, 8.950873, 9.619154, 2.010082, 0.244360, -1.583101, 6.988966, -7.251801, -80.868851, -621.179321
1733469145.777808, 8.100033, 8.976760, 1.832462, 0.428038, -1.778073, 7.369937, -10.338028, -83.012329, -621.919739
1733469145.787808, 7.249942, 8.711901, 1.605462, 0.569696, -1.841176, 7.801686, -13.343231, -85.182007, -622.178589
1733469145.797809, 6.113295, 8.672547, 1.569698, 0.684570, -1.823592, 8.319563, -17.475266, -87.123215, -621.520569
1733469145.807801, 4.773140, 8.427141, 1.653645, 0.770323, -1.717944, 8.829722, -21.818375, -88.897919, -622.102234
1733469145.817800, 3.346645, 8.301445, 2.065897, 0.818260, -1.588398, 9.313943, -26.369766, -90.007202, -621.505493
1733469145.827799, 2.206257, 8.333617, 2.422932, 0.802542, -1.428772, 9.813141, -31.063766, -91.015915, -620.672729
1733469145.837849, 1.368436, 9.292645, 2.320730, 0.706130, -1.193222, 10.392203, -35.721069, -91.059082, -620.942810
1733469145.847792, -0.136769, 11.237485, 2.091036, 0.510780, -0.771299, 11.171614, -41.211868, -90.578201, -620.680725
1733469145.856921, -3.687370, 12.941259, 2.808099, 0.217984, -0.209794, 12.101965, -46.884521, -89.421722, -620.945740
1733469145.867802, -9.282320, 13.156138, 4.261829, -0.232855, 0.330953, 12.964363, -53.226089, -86.980972, -620.744263
1733469145.877797, -15.695488, 10.803685, 6.289867, -1.009209, 0.841878, 13.366369, -59.199600, -83.802582, -622.428467
1733469145.887805, -20.318392, 9.073126, 6.336853, -2.143280, 1.088355, 13.066210, -63.986374, -79.958679, -623.887451
1733469145.897790, -23.385664, 8.836549, 2.787000, -3.095332, 1.168776, 12.493977, -68.594574, -75.884888, -625.802307
1733469145.907791, -27.540651, 5.419126, -1.016488, -3.372740, 0.747052, 11.660968, -72.359177, -71.856827, -626.552185
1733469145.917842, -33.607259, -1.086070, -4.641010, -2.707023, -0.774420, 10.320189, -75.748444, -67.946320, -627.199219
1733469145.927803, -40.438216, -9.891644, -8.908375, -1.034200, -2.450760, 8.270991, -77.372101, -65.209366, -625.813293
1733469145.937804, -44.028770, -16.348956, -9.598953, 0.801039, -3.545289, 5.490440, -77.927505, -63.811295, -623.192261
1733469145.947794, -42.430191, -18.160768, -7.816919, 2.053648, -4.157057, 2.619363, -76.982361, -63.349350, -620.052551
1733469145.957807, -36.964379, -15.831210, -4.783765, 2.705686, -4.219507, 0.339037, -76.172180, -63.858414, -617.004395
1733469145.967792, -30.384963, -12.029367, -1.312322, 2.769284, -3.904965, -1.016069, -75.567215, -64.366516, -615.377075
1733469145.977800, -24.942643, -9.553463, 0.908899, 2.388226, -3.214371, -1.512778, -75.460220, -64.959717, -613.673767
1733469145.987800, -21.326800, -8.517073, 2.252944, 1.750559, -2.128881, -1.481904, -75.487137, -65.665802, -613.176575
1733469145.997794, -19.311780, -8.854506, 3.158700, 0.978364, -0.804871, -1.290703, -75.729706, -66.280518, -613.504639
1733469146.007796, -18.245762, -10.257658, 3.550451, 0.155793, 0.507263, -1.156987, -75.729706, -66.280518, -613.504639
1733469146.017792, -17.894862, -11.944223, 3.170073, -0.588037, 1.590804, -1.193570, -76.032028, -67.058609, -614.535278
1733469146.027790, -17.962199, -12.563723, 2.543390, -1.135708, 2.354037, -1.446178, -76.154724, -67.759903, -615.354248
1733469146.037836, -18.008736, -12.154913, 2.067842, -1.446615, 2.707810, -1.889174, -76.027466, -68.608322, -617.414856
1733469146.047787, -17.277008, -11.330709, 1.401057, -1.538690, 2.702102, -2.462471, -75.604782, -69.590683, -619.001404
1733469146.057787, -15.833903, -10.157550, 0.638504, -1.470873, 2.489992, -3.021196, -74.542984, -70.769791, -620.650757
1733469146.067789, -14.161104, -8.848520, -0.114323, -1.293123, 2.220390, -3.475376, -73.348068, -72.138611, -621.979553
1733469146.077805, -12.644078, -7.573458, -0.725742, -1.047805, 1.958939, -3.801296, -72.056091, -73.655014, -622.805237
1733469146.087787, -11.395801, -6.728006, -1.245883, -0.764082, 1.767220, -4.017146, -70.921692, -75.156403, -623.398987
1733469146.097786, -10.229227, -6.299743, -1.349133, -0.481352, 1.694592, -4.178825, -69.271637, -76.568726, -624.661804
1733469146.107836, -9.129241, -5.871929, -1.063175, -0.270113, 1.678632, -4.279887, -67.775925, -78.088699, -625.504395
1733469146.117786, -8.413075, -5.580286, -0.774824, -0.154948, 1.684056, -4.358389, -66.070847, -79.370834, -625.406128
1733469146.127783, -8.053346, -5.453393, -0.777367, -0.094854, 1.718880, -4.471965, -64.471222, -80.914825, -626.418091
1733469146.137802, -7.742998, -5.309292, -0.808342, -0.031436, 1.797044, -4.670399, -62.228409, -82.566330, -626.985596
1733469146.147823, -7.418733, -4.994754, -0.621295, 0.048605, 1.861690, -4.964041, -60.401321, -83.705200, -627.495239
1733469146.157784, -6.722469, -4.478354, -0.463428, 0.132751, 1.902770, -5.323408, -58.212921, -85.003906, -627.566467
1733469146.167779, -5.801001, -3.719692, -0.274735, 0.226503, 1.890641, -5.696932, -55.516479, -86.487518, -627.740051
1733469146.177784, -4.858883, -2.649034, -0.098162, 0.344460, 1.795027, -6.035303, -52.577209, -87.611389, -628.439270
1733469146.187847, -3.763386, -1.788618, -0.030376, 0.495860, 1.653850, -6.336351, -49.571030, -88.697327, -628.382385
1733469146.197779, -2.618060, -1.097442, 0.191237, 0.689458, 1.456947, -6.596403, -46.231689, -89.698608, -628.238770
1733469146.207791, -1.414375, -0.252139, 0.649128, 0.893785, 1.172602, -6.756417, -42.692383, -90.398026, -627.568542
1733469146.217788, -0.269048, 0.686837, 1.004218, 1.064843, 0.832561, -6.822444, -39.148834, -90.872284, -627.338135
1733469146.227799, 0.693421, 1.654094, 1.334468, 1.158812, 0.477689, -6.811852, -35.882233, -90.990219, -626.751343
1733469146.237796, 1.472135, 2.060510, 1.441758, 1.162407, 0.093652, -6.765114, -32.598465, -91.093796, -626.072388
1733469146.247791, 2.032677, 1.999607, 0.995689, 1.127283, -0.284226, -6.782851, -29.678024, -90.953979, -625.563904
1733469146.257798, 2.551471, 2.162712, 0.450708, 1.115673, -0.560894, -6.828460, -26.098892, -90.237015, -625.472229
1733469146.267784, 3.071910, 2.681506, 0.289549, 1.100717, -0.703333, -6.861428, -23.060043, -89.463470, -624.703857
1733469146.277783, 3.593996, 3.097349, 0.206350, 0.992609, -0.695851, -6.900615, -20.072296, -88.550934, -623.924683
1733469146.287170, 3.885939, 3.632453, 0.011223, 0.800380, -0.557612, -6.969285, -16.787689, -87.398071, -624.161743
1733469146.297787, 4.303877, 4.663905, -0.080655, 0.571736, -0.245121, -7.033119, -13.425079, -85.604172, -623.655151
1733469146.307777, 5.588067, 6.085462, 0.235679, 0.332190, 0.115579, -7.009728, -10.470154, -83.922974, -623.277771
1733469146.317778, 7.322666, 6.860286, 0.583736, 0.106604, 0.328683, -6.859680, -7.960266, -82.011154, -623.851807
1733469146.327772, 9.192388, 7.181408, 0.859518, -0.059145, 0.401786, -6.599923, -5.318604, -80.208725, -623.705017
1733469146.337839, 10.746075, 7.494599, 1.365443, -0.156221, 0.270908, -6.242179, -3.326340, -77.848007, -623.598938
1733469146.347775, 11.589582, 7.638850, 1.341651, -0.228167, -0.059654, -5.809787, -1.348373, -75.968719, -623.205811
1733469146.357784, 12.085481, 7.469909, 0.496647, -0.258010, -0.374262, -5.441015, 0.508926, -73.869720, -624.291138
1733469146.367778, 13.030742, 7.883657, -0.102502, -0.210578, -0.567790, -5.089971, 1.531769, -71.970963, -623.834290
1733469146.377506, 14.100950, 8.551789, -0.811185, -0.154524, -0.725009, -4.679298, 2.778275, -69.967911, -624.432129
1733469146.387825, 15.077635, 8.932317, -1.899949, -0.082915, -0.675807, -4.272702, 3.714447, -68.216110, -625.053101
1733469146.397778, 15.824326, 9.101707, -2.359635, 0.043978, -0.465114, -3.849563, 4.160492, -66.719574, -624.965210
1733469146.407774, 16.340576, 9.208249, -1.844583, 0.178277, -0.185392, -3.473180, 4.962479, -65.031998, -625.053589
1733469146.417774, 16.680702, 9.323769, -0.831686, 0.229227, -0.031806, -3.102495, 5.452759, -63.665024, -625.020874
1733469146.427769, 16.686688, 9.246706, -0.191536, 0.202257, 0.065336, -2.744203, 6.209763, -62.585663, -625.143860
1733469146.437772, 16.696115, 9.136573, 0.490662, 0.100209, 0.166028, -2.408351, 6.268723, -61.540085, -624.797974
1733469146.447783, 17.259201, 9.535806, 1.532888, -0.044646, 0.197473, -2.108711, 6.297318, -60.675018, -623.942383
1733469146.457785, 17.839197, 9.928305, 2.133533, -0.225396, 0.073016, -1.830897, 6.768951, -59.762695, -625.099121
1733469146.467830, 18.087146, 10.402956, 1.930475, -0.407418, -0.077588, -1.585531, 6.829422, -59.035141, -625.098694
1733469146.477787, 18.224813, 11.270405, 1.390732, -0.543211, -0.139831, -1.381554, 7.097824, -58.551010, -625.289551
1733469146.487767, 18.974796, 11.581053, 0.994641, -0.637164, -0.138816, -1.218029, 6.941025, -57.954987, -625.422119
1733469146.497777, 20.086903, 11.640160, 0.467169, -0.642379, -0.243669, -1.004364, 7.328705, -57.298325, -625.554077
1733469146.507784, 20.829255, 11.882872, -0.362123, -0.518483, -0.404799, -0.655404, 7.652100, -56.913422, -625.876709
1733469146.517772, 21.119253, 11.866861, -1.007809, -0.350889, -0.442968, -0.163973, 7.610779, -57.052322, -626.086853
1733469146.527855, 21.026926, 11.786056, -0.972794, -0.238571, -0.348515, 0.431400, 7.667038, -57.302933, -626.028015
1733469146.537796, 20.605397, 11.663204, -0.636109, -0.189937, -0.249451, 1.098067, 7.276672, -57.839340, -625.746948
1733469146.547867, 19.464859, 11.409418, -0.544980, -0.185086, -0.151108, 1.783011, 7.335785, -58.705612, -625.673767
1733469146.557771, 17.953669, 11.014225, -0.311994, -0.220150, 0.016455, 2.363143, 7.147064, -59.951630, -626.598389
1733469146.567767, 16.591069, 10.464906, 0.075567, -0.322627, 0.192571, 2.830082, 6.438202, -61.238541, -626.698059
1733469146.577779, 15.222933, 10.181642, 0.372747, -0.468576, 0.368945, 3.191972, 5.825409, -62.727051, -626.253296
1733469146.587767, 14.214525, 9.873837, 0.770783, -0.833859, 0.577678, 3.737351, 5.076782, -64.242874, -626.229614
1733469146.597770, 13.334207, 9.352799, 0.936881, -0.998462, 0.616117, 3.956439, 4.445160, -65.773788, -626.278137
1733469146.607770, 12.476933, 8.981698, 0.725742, -1.116157, 0.639603, 4.174174, 3.843140, -67.487930, -626.453735
1733469146.617771, 11.984476, 8.767566, 0.596755, -1.163675, 0.565631, 4.409573, 2.625763, -69.186523, -626.163452
1733469146.627768, 11.707945, 8.512434, 0.720355, -1.145312, 0.364981, 4.652850, 1.525009, -70.916061, -626.195312
1733469146.637770, 11.434857, 8.351125, 0.869843, -1.069777, 0.069337, 4.908751, 0.114426, -72.600082, -626.356812
1733469146.647772, 10.984896, 8.194604, 0.766893, -0.931898, -0.226929, 5.148585, -1.574768, -74.588287, -626.378418
1733469146.657763, 10.278457, 7.841310, 0.537349, -0.761066, -0.468236, 5.363081, -3.433533, -76.201538, -627.001343
1733469146.667764, 9.441085, 7.514202, 0.295983, -0.573724, -0.642415, 5.548308, -5.390259, -78.152832, -627.943298
1733469146.677766, 8.647407, 7.261913, 0.255880, -0.380135, -0.811253, 5.757390, -7.441238, -79.827362, -628.026123
1733469146.687786, 7.944260, 7.057059, 0.350601, -0.191816, -0.946698, 5.973384, -9.476624, -81.315521, -628.215332
1733469146.697766, 7.252486, 6.837241, 0.416890, -0.023558, -1.079764, 6.227590, -12.016083, -83.047440, -628.758606
1733469146.707768, 6.681768, 6.749105, 0.626533, 0.130206, -1.209690, 6.504652, -14.631241, -84.685181, -628.830994
1733469146.717761, 5.969493, 6.658574, 0.685340, 0.280778, -1.268775, 6.767605, -17.807846, -86.012436, -629.197693
1733469146.727763, 5.334581, 6.687454, 0.842909, 0.417383, -1.341071, 7.060246, -20.971619, -87.294022, -628.884277
1733469146.737764, 4.965874, 6.974160, 1.407042, 0.515419, -1.488659, 7.457174, -24.245026, -88.410294, -629.166260
1733469146.747778, 4.337695, 7.179313, 1.948132, 0.532683, -1.581423, 7.889962, -28.107391, -89.251785, -628.361694
1733469146.757774, 3.239804, 7.320421, 2.231097, 0.443546, -1.581492, 8.332114, -32.162506, -89.673965, -628.500244
1733469146.767103, 2.087145, 7.516147, 2.417545, 0.258232, -1.452989, 8.772560, -36.461548, -89.690689, -628.492676
1733469146.777764, 0.724845, 7.581688, 2.373552, 0.017294, -1.197745, 9.173190, -41.032089, -89.641098, -628.366150
1733469146.787763, -0.318429, 7.926304, 2.199224, -0.274187, -0.840145, 9.600968, -45.480820, -88.573257, -628.075623
1733469146.797760, -0.979677, 8.802133, 1.853860, -0.567115, -0.453272, 10.134535, -49.711960, -87.250656, -628.470520
1733469146.807757, -2.036867, 9.878476, 1.518373, -0.851142, 0.008419, 10.758177, -54.127380, -85.234283, -628.738281
1733469146.817760, -4.195090, 10.560824, 1.696591, -1.247715, 0.487416, 11.340598, -58.724838, -82.595779, -629.445923
1733469146.827758, -7.409156, 10.459669, 2.823362, -1.923683, 0.747436, 11.658481, -63.246231, -79.236008, -630.345459
1733469146.837770, -10.606912, 10.364200, 4.201824, -2.765337, 0.641782, 11.735257, -66.841599, -75.122681, -631.668457
1733469146.847766, -14.175469, 11.201871, 3.785233, -3.334466, 0.187726, 11.655983, -70.162628, -70.387848, -631.764404
1733469146.857766, -19.089568, 11.427824, 1.883339, -3.414422, -0.700272, 11.196836, -73.309784, -65.178497, -633.750305
1733469146.867782, -25.154979, 8.954913, -0.884658, -2.930679, -1.836588, 10.193185, -76.353012, -60.360947, -633.896973
1733469146.877771, -32.513707, 2.860921, -4.840178, -1.954967, -2.621264, 8.393960, -78.414825, -56.168777, -633.251892
1733469146.887765, -39.831734, -5.705383, -9.535058, -0.903390, -2.841887, 5.921640, -79.444992, -52.703979, -631.799011
1733469146.897760, -43.716327, -11.606491, -12.718149, 0.029782, -2.609948, 3.425893, -79.711472, -50.744125, -630.758362
1733469146.907759, -42.727521, -12.867188, -13.134291, 0.809324, -2.147487, 1.476936, -79.147491, -49.695740, -629.053772
1733469146.917759, -38.242284, -10.673052, -10.634296, 1.251424, -1.766071, 0.321960, -78.724548, -49.477478, -627.702576
1733469146.927775, -32.913988, -7.386860, -7.007529, 1.338048, -1.431965, -0.163253, -78.721985, -49.945450, -626.914185
1733469146.937766, -28.715456, -5.788731, -4.518756, 1.119092, -0.989390, -0.257547, -78.987442, -50.101151, -626.263977
1733469146.947765, -26.165931, -6.102970, -3.311181, 0.673580, -0.332552, -0.270340, -79.244980, -50.388535, -625.666321
1733469146.957756, -25.322274, -7.943363, -3.461567, 0.180224, 0.546814, -0.463541, -79.713989, -50.643127, -626.578125
1733469146.967767, -25.161862, -10.265439, -4.394258, -0.204604, 1.407660, -0.892063, -79.969162, -51.060028, -627.314392
1733469146.977768, -24.485051, -11.869554, -5.037400, -0.389953, 1.966032, -1.453171, -79.949982, -51.924088, -628.287109
1733469146.987762, -23.066487, -11.944822, -5.080646, -0.375363, 2.117514, -1.998342, -79.817307, -52.711151, -629.380371
1733469146.997757, -21.277719, -10.612149, -4.667945, -0.221564, 1.939930, -2.468142, -79.346436, -53.967773, -630.450439
1733469147.007762, -19.386449, -9.061904, -4.160973, 0.001178, 1.550959, -2.823466, -78.958160, -55.355408, -631.297119
1733469147.017803, -17.555933, -7.691074, -3.775806, 0.241000, 1.068290, -3.084125, -78.181168, -56.802368, -631.532410
1733469147.027753, -16.168193, -6.627749, -3.834464, 0.471932, 0.680205, -3.282824, -77.605911, -58.456741, -631.906616
1733469147.037749, -15.144972, -5.882853, -4.210952, 0.689401, 0.459610, -3.457801, -77.148376, -60.065689, -631.660400
1733469147.047750, -14.532206, -5.357625, -4.435259, 0.852325, 0.414897, -3.620789, -76.513275, -61.960312, -631.233765
1733469147.057760, -14.253281, -4.986972, -4.405481, 0.924199, 0.555197, -3.843601, -75.323837, -63.579102, -631.890198
1733469147.067756, -13.835642, -5.070919, -4.183718, 0.927816, 0.781973, -4.116234, -74.540558, -65.594650, -632.005981
1733469147.077745, -13.216592, -5.017947, -3.854216, 0.911058, 1.033501, -4.394646, -73.460175, -67.719040, -632.450073
1733469147.087763, -12.539033, -4.748749, -3.433584, 0.910466, 1.268100, -4.689570, -72.226089, -69.708282, -632.752075
1733469147.097750, -11.920580, -4.348469, -2.973898, 0.938480, 1.465151, -5.013423, -70.602798, -71.768799, -633.170654
1733469147.107815, -11.292551, -3.670012, -2.475305, 0.984858, 1.616397, -5.340158, -68.716461, -73.969833, -633.237793
1733469147.117749, -10.552145, -2.806304, -2.017564, 1.051599, 1.728442, -5.666237, -66.767899, -76.176865, -633.415527
1733469147.127214, -9.586832, -2.008137, -1.508048, 1.154000, 1.712804, -5.982155, -64.455704, -78.086838, -633.472107
1733469147.137759, -8.502858, -1.231218, -0.847098, 1.274713, 1.559342, -6.271858, -61.797150, -80.432404, -633.535583
1733469147.147815, -7.311892, -0.542586, -0.236427, 1.395888, 1.294456, -6.523283, -59.010544, -82.370773, -632.740112
1733469147.157761, -6.044312, -0.027234, 0.459537, 1.480859, 0.913366, -6.747024, -56.390472, -84.177170, -632.734375
1733469147.167752, -4.886117, 0.393697, 1.139640, 1.502463, 0.440504, -6.929015, -53.029297, -85.721176, -632.214294
1733469147.177769, -3.925144, 0.893336, 1.480814, 1.470202, -0.014951, -7.065421, -49.916351, -87.176056, -631.595337
1733469147.187744, -3.138649, 1.121983, 1.462259, 1.393909, -0.363054, -7.191243, -46.567032, -88.419250, -630.961548
1733469147.197786, -2.540248, 1.394622, 1.364545, 1.269637, -0.609257, -7.272737, -43.100021, -89.091141, -630.341797
1733469147.207762, -2.123657, 2.052579, 1.036540, 1.132165, -0.703106, -7.319908, -39.860062, -89.897614, -629.450134
1733469147.217747, -1.509544, 2.667290, 0.532411, 1.041446, -0.720198, -7.342090, -36.393326, -90.219269, -629.314697
1733469147.227746, -0.867000, 2.862717, 0.064045, 1.005129, -0.702041, -7.378438, -33.039627, -90.260162, -628.611694
1733469147.237806, -0.289100, 2.649034, -0.428712, 0.987321, -0.610585, -7.447277, -29.270401, -89.826584, -628.402222
1733469147.247744, 0.289399, 2.672378, -0.914286, 0.951509, -0.387762, -7.524197, -26.068573, -89.483734, -627.165222
1733469147.257744, 0.782006, 3.340061, -1.171064, 0.896936, -0.090158, -7.618472, -22.583847, -88.473389, -627.216919
1733469147.267746, 1.060631, 4.241179, -1.002871, 0.845861, 0.158100, -7.716131, -18.927322, -87.299210, -627.014038
1733469147.277747, 1.675193, 5.231181, -0.322619, 0.801637, 0.306072, -7.767907, -15.114914, -85.906677, -626.304382
1733469147.287743, 3.111714, 6.358551, -0.135123, 0.812314, 0.348109, -7.664170, -11.941544, -84.389236, -626.037598
1733469147.297741, 5.590012, 7.669975, 0.018106, 0.858591, 0.268668, -7.314662, -9.417587, -82.386337, -625.518555
1733469147.307741, 8.747365, 8.720281, 0.620846, 0.854963, -0.077636, -6.750233, -6.767487, -80.641235, -625.110657
1733469147.317744, 11.805808, 9.008633, 1.564461, 0.768234, -0.650239, -6.029770, -5.263336, -78.665924, -625.583191
1733469147.327741, 13.671340, 8.666711, 1.779939, 0.611246, -1.117857, -5.322789, -3.228958, -76.892990, -625.504639
1733469147.337741, 14.230386, 8.139388, 0.646883, 0.456214, -1.177510, -4.683736, -1.789307, -75.375565, -625.578064
1733469147.347741, 14.209886, 7.794174, -1.202189, 0.291079, -0.687969, -4.143655, -1.103836, -73.945358, -625.218018
1733469147.357743, 14.150929, 7.948450, -2.253842, 0.024953, 0.251228, -3.760592, -0.179016, -72.439011, -625.461975
1733469147.367741, 14.930990, 8.688259, -2.363077, -0.344229, 1.377097, -3.440482, 0.530411, -71.160614, -624.618591
1733469147.377738, 16.811934, 9.829395, -1.488445, -0.638957, 2.203701, -3.082882, 0.991074, -69.911133, -624.414917
1733469147.387748, 19.095704, 10.755502, -0.070629, -0.755030, 2.513609, -2.725224, 1.410614, -69.047089, -623.579468
1733469147.397748, 21.108329, 11.481693, 1.386093, -0.684265, 2.231516, -2.383452, 1.638763, -68.041412, -622.564453
1733469147.407740, 23.012917, 12.314726, 2.856133, -0.463523, 1.460352, -2.032605, 2.018753, -67.218857, -622.357788
1733469147.417752, 24.718636, 12.906842, 3.984550, -0.206501, 0.479186, -1.670301, 2.018753, -67.218857, -622.357788
1733469147.427746, 25.709237, 13.362488, 4.272752, 0.013979, -0.347850, -1.323674, 2.675354, -65.988480, -623.067871
1733469147.437739, 25.945963, 13.893852, 3.657891, 0.174030, -0.834718, -0.981478, 2.975876, -65.606827, -623.510742
1733469147.447736, 26.438271, 14.118158, 3.034950, 0.243167, -1.086458, -0.501753, 3.183395, -65.506989, -623.251648
1733469147.457748, 27.783364, 14.426112, 2.821267, 0.268475, -1.267829, 0.246192, 3.356201, -65.582779, -624.111572
1733469147.467742, 28.385655, 14.633061, 2.451363, 0.267042, -1.309409, 1.142079, 3.356201, -65.582779, -624.111572
1733469147.477747, 27.678318, 14.237270, 1.885135, 0.201478, -1.193782, 2.094023, 3.060074, -66.325958, -624.396545
1733469147.487745, 25.870097, 13.452121, 1.458518, 0.059159, -0.910636, 2.998925, 2.572388, -67.252762, -624.828491
1733469147.497752, 23.215227, 12.626421, 1.097442, -0.152391, -0.497574, 3.770739, 1.939255, -68.764038, -625.514465
1733469147.507753, 20.237887, 11.812243, 0.988955, -0.408213, -0.043392, 4.368963, 0.846817, -70.240952, -625.674927
1733469147.517740, 17.613693, 10.978761, 1.001674, -0.685283, 0.372023, 4.838471, -0.137650, -72.017899, -625.593872
1733469147.527748, 15.406239, 10.105177, 1.188721, -0.964842, 0.666150, 5.171014, -1.466782, -73.921356, -625.666199
1733469147.537796, 13.438205, 9.296535, 1.361702, -1.218259, 0.868042, 5.361329, -3.461624, -75.922577, -626.101868
1733469147.547742, 12.005724, 8.665364, 1.445799, -1.377453, 0.863858, 5.478436, -5.313324, -77.573761, -626.519165
1733469147.557743, 11.401488, 8.333767, 1.858499, -1.392399, 0.562999, 5.597411, -6.952393, -79.375687, -626.495544
1733469147.567751, 11.090990, 8.073248, 2.137424, -1.264244, 0.072216, 5.756965, -8.975067, -80.949890, -626.643250
1733469147.577739, 10.686818, 7.903858, 2.204312, -1.040866, -0.483498, 5.958850, -11.167343, -82.497650, -627.290955
1733469147.587736, 10.049362, 7.643638, 2.084601, -0.796247, -0.962906, 6.193654, -13.983994, -84.137772, -628.079895
1733469147.597744, 9.317784, 7.378331, 1.951125, -0.598222, -1.290771, 6.468377, -16.357986, -85.365372, -628.879395
1733469147.607783, 8.398560, 7.312042, 1.848623, -0.460132, -1.480603, 6.773795, -19.239059, -86.672195, -628.936157
1733469147.617730, 7.305757, 7.215376, 1.778443, -0.368294, -1.567505, 7.095751, -22.490692, -87.538971, -629.557251
1733469147.627728, 6.154445, 7.060950, 1.666514, -0.313196, -1.556718, 7.399742, -26.127136, -88.534760, -629.874573
1733469147.637775, 4.830601, 6.967576, 1.417218, -0.269099, -1.448103, 7.666369, -29.737411, -89.168640, -629.770996
1733469147.647733, 3.689465, 7.069479, 1.349133, -0.215767, -1.349465, 7.950587, -33.611481, -89.558685, -629.787537
1733469147.657743, 2.575114, 7.310695, 1.726519, -0.164609, -1.316966, 8.245745, -37.566315, -89.624054, -629.684021
1733469147.667744, 1.322946, 7.366061, 2.349610, -0.161341, -1.317240, 8.554180, -41.393326, -89.169540, -630.267456
1733469147.677793, 0.260968, 7.586627, 2.906561, -0.260780, -1.295871, 8.934840, -45.528259, -88.423584, -629.715210
1733469147.687730, -1.105523, 8.063073, 3.442712, -0.501496, -1.173268, 9.392240, -49.303055, -87.274338, -629.923828
1733469147.697725, -3.146430, 8.543709, 4.155436, -0.971065, -0.963066, 9.839743, -53.639633, -85.341797, -630.345215
1733469147.707775, -5.125088, 9.123105, 4.905420, -1.684008, -0.868300, 10.176387, -58.044830, -82.780380, -630.447693
1733469147.717733, -7.235128, 9.900473, 5.326500, -2.317978, -1.074696, 10.423288, -61.942932, -79.751831, -631.062927
1733469147.727738, -10.302250, 10.333374, 4.291906, -2.551203, -1.448143, 10.564770, -65.557800, -76.049210, -631.775085
1733469147.737746, -14.644134, 9.644144, 2.214786, -2.467857, -1.712463, 10.410932, -69.476227, -72.062775, -632.102112
1733469147.747740, -19.544616, 7.478588, -0.171185, -2.247875, -1.824033, 9.835209, -72.482208, -67.684052, -631.364502
1733469147.757735, -24.285884, 4.761169, -2.924068, -1.912654, -1.739365, 8.930662, -74.978912, -63.529724, -631.815125
1733469147.767741, -28.475886, 1.774702, -5.498583, -1.429031, -1.587851, 7.683424, -77.011002, -59.755768, -631.257690
1733469147.777697, -31.792454, -1.887080, -7.343316, -0.817460, -1.426535, 6.215509, -77.976624, -56.525162, -631.086975
1733469147.787776, -33.702728, -5.242254, -8.517073, -0.253688, -1.141850, 4.754783, -78.423050, -54.000595, -630.202698
1733469147.797892, -34.260726, -7.220613, -7.940819, 0.002054, -0.844094, 3.428318, -78.733765, -52.341141, -629.620117
1733469147.807860, -33.402405, -7.370849, -6.311864, -0.019223, -0.481136, 2.446328, -78.579239, -50.956894, -628.915466
1733469147.817870, -31.671996, -6.389675, -4.700716, -0.217205, -0.306861, 1.785889, -78.645599, -50.121979, -629.097351
1733469147.827841, -30.684537, -6.064812, -2.892495, -0.500703, -0.331903, 1.196602, -78.620392, -49.407059, -628.570557
1733469147.837793, -30.257322, -7.251139, -3.443760, -0.688925, -0.189284, 0.591038, -79.124268, -49.033340, -629.197815
1733469147.847784, -29.837888, -8.856451, -5.266795, -0.794492, 0.092913, -0.084529, -79.187241, -49.010544, -628.692993
1733469147.857723, -28.102241, -10.512191, -8.123826, -0.841339, 0.481642, -0.827204, -79.290543, -49.270111, -629.827881
1733469147.867748, -25.986665, -10.153510, -9.203162, -0.785219, 0.978087, -1.536261, -79.378616, -49.690872, -630.121338
1733469147.877727, -25.986665, -10.153510, -9.203162, -0.618323, 1.533484, -2.116257, -79.177963, -50.737930, -630.826538
1733469147.887716, -20.497958, -7.857919, -8.617330, -0.404264, 1.978200, -2.511558, -78.654495, -51.838470, -631.737122
1733469147.897730, -18.345271, -6.458958, -7.744644, -0.170208, 2.187208, -2.753747, -78.321716, -53.163712, -632.670471
1733469147.907723, -16.728736, -5.506813, -7.116465, 0.093023, 2.194468, -2.907245, -77.500977, -54.609787, -634.067810
1733469147.917721, -15.645210, -4.949413, -6.634183, 0.372799, 2.064910, -3.017695, -76.836380, -56.122681, -635.258362
1733469147.927715, -14.991443, -4.853346, -6.371719, 0.639959, 1.896280, -3.153360, -76.225342, -57.681580, -635.948242
1733469147.937717, -14.495395, -4.942081, -6.155193, 0.877867, 1.803927, -3.334183, -75.805573, -59.292740, -636.185852
1733469147.947728, -14.144195, -4.857536, -5.771672, 1.065392, 1.777683, -3.561463, -74.612610, -61.165878, -636.333496
1733469147.957729, -13.784317, -4.506187, -5.308993, 1.208758, 1.799136, -3.831358, -73.556885, -62.972076, -637.661255
1733469147.967730, -13.229461, -4.181174, -4.713734, 1.314314, 1.874579, -4.137130, -72.319550, -64.909897, -638.194519
1733469147.977726, -12.457630, -3.859752, -4.004901, 1.385782, 1.946401, -4.471686, -70.945572, -67.036865, -638.552673
1733469147.987726, -11.435455, -3.400814, -3.320159, 1.442818, 1.986418, -4.791659, -69.511902, -69.234299, -638.893372
1733469147.997722, -10.498724, -2.718915, -2.703054, 1.499908, 1.950024, -5.092867, -67.610229, -71.392700, -639.319824
1733469148.007716, -9.545981, -2.145654, -2.274492, 1.576617, 1.847229, -5.398639, -65.755325, -73.537689, -639.369934
1733469148.017717, -8.579023, -1.643919, -1.999907, 1.635740, 1.744777, -5.710164, -63.552750, -75.681519, -639.686096
1733469148.027717, -7.688230, -0.759560, -1.685817, 1.681680, 1.628342, -5.982346, -61.099075, -77.890350, -639.672791
1733469148.037724, -6.862231, 0.081104, -1.220145, 1.746241, 1.508062, -6.218454, -58.634216, -79.746811, -638.915344
1733469148.047721, -6.090699, 0.632518, -0.676811, 1.824286, 1.334201, -6.450284, -55.978745, -81.787506, -638.093140
1733469148.057724, -5.212925, 0.850989, -0.296582, 1.906383, 1.117035, -6.712492, -53.061310, -83.495163, -638.053223
1733469148.067717, -4.276792, 1.042974, 0.193182, 1.991603, 0.859321, -6.997229, -49.965057, -85.237930, -637.477051
1733469148.077721, -3.306841, 1.472434, 0.656161, 2.046280, 0.560493, -7.253364, -46.731049, -86.412613, -636.742371
1733469148.087715, -2.526930, 2.165256, 0.913837, 2.033134, 0.216231, -7.468782, -42.926178, -87.597855, -635.691528
1733469148.097718, -1.948431, 2.846556, 0.962768, 1.980735, -0.099068, -7.659984, -39.270950, -88.236877, -634.282104
1733469148.107713, -1.628656, 3.743185, 0.956484, 1.906889, -0.384782, -7.819148, -35.561874, -88.751144, -633.796509
1733469148.117715, -1.446397, 4.488230, 0.768539, 1.803026, -0.598851, -7.961083, -32.104202, -88.998047, -632.689575
1733469148.127715, -1.142782, 4.999841, 0.447117, 1.674996, -0.688030, -8.167528, -28.232605, -88.816727, -631.982910
1733469148.137728, -0.704494, 5.680842, 0.005686, 1.545467, -0.688226, -8.383496, -24.391647, -88.037109, -631.139771
1733469148.147720, 0.187346, 6.604854, -0.377087, 1.419843, -0.551275, -8.569238, -20.535812, -87.238098, -630.080994
1733469148.157720, 1.706168, 7.790882, -0.464026, 1.306656, -0.332727, -8.673980, -16.494766, -85.781479, -629.867615
1733469148.167713, 3.661782, 8.925434, -0.383072, 1.179985, -0.111249, -8.590295, -12.818039, -84.059280, -629.167786
1733469148.177319, 5.844546, 9.787646, -0.019004, 1.056458, 0.071796, -8.310223, -9.682709, -82.069214, -629.061096
1733469148.187756, 8.058883, 10.245387, 0.951097, 0.920893, 0.160322, -7.886988, -6.762238, -79.957764, -628.269470
1733469148.197727, 10.396073, 10.688165, 1.828272, 0.748635, 0.039922, -7.375693, -4.441055, -77.900848, -628.735413
1733469148.207718, 12.834268, 11.043255, 2.190545, 0.524506, -0.143233, -6.773416, -2.422318, -75.582199, -628.288025
1733469148.217711, 15.074193, 11.332056, 1.794454, 0.271160, -0.361237, -6.108282, -0.872665, -73.499146, -628.454590
1733469148.227713, 17.213711, 11.896938, 0.691475, 0.072702, -0.395084, -5.409850, 0.158173, -71.392242, -628.307434
1733469148.237710, 19.223793, 12.765734, -0.051026, -0.104203, -0.110084, -4.723541, 1.128372, -69.397430, -628.546021
1733469148.247709, 21.209035, 13.533225, 0.027234, -0.320112, 0.382632, -4.072918, 1.693588, -68.035477, -627.884460
1733469148.257712, 22.989873, 14.289044, 0.451157, -0.534426, 0.838434, -3.468998, 2.366837, -66.664062, -628.629456
1733469148.267708, 24.308629, 15.424644, 0.880917, -0.645042, 1.130486, -2.901634, 2.751358, -65.633469, -627.878540
1733469148.277715, 25.808297, 16.177022, 1.670853, -0.633049, 1.181121, -2.393013, 3.029053, -64.498459, -627.605896
1733469148.287715, 27.245865, 16.583288, 2.232892, -0.528758, 0.900571, -1.859009, 3.452515, -63.775269, -627.637695
1733469148.297711, 27.975947, 17.073052, 2.441786, -0.351084, 0.468645, -1.253269, 3.406174, -63.191849, -627.207153
1733469148.307711, 28.177210, 16.993594, 2.532168, -0.179130, 0.007996, -0.610622, 4.041245, -63.138229, -627.294128
1733469148.317716, 28.005575, 16.611420, 2.151190, -0.067381, -0.352691, 0.065746, 3.915283, -63.200089, -627.218079
1733469148.327715, 27.369466, 16.058359, 1.761684, 0.005587, -0.579281, 0.831172, 4.298935, -63.589645, -627.567749
1733469148.336971, 26.043377, 15.094993, 1.464952, 0.018755, -0.699234, 1.681203, 3.850494, -64.303299, -627.688965
1733469148.347707, 24.056789, 14.032566, 1.040879, -0.056409, -0.683035, 2.556874, 3.455383, -65.557373, -627.462646
1733469148.357710, 21.502325, 13.101071, 0.652719, -0.198448, -0.503337, 3.380941, 2.716904, -67.023087, -628.408813
1733469148.367732, 18.895788, 12.213571, 0.529268, -0.385866, -0.173370, 4.079448, 1.586731, -68.869827, -628.599976
1733469148.377701, 16.580894, 11.366323, 0.701501, -0.621571, 0.166589, 4.629553, 0.396851, -70.608566, -628.912476
1733469148.387701, 14.550761, 10.512939, 0.622792, -0.829477, 0.423603, 5.045630, -1.143707, -72.396606, -628.952209
1733469148.397771, 12.991237, 9.665093, 0.757017, -0.967448, 0.607598, 5.331300, -2.537170, -74.119156, -628.811951
1733469148.407703, 11.823166, 9.011476, 1.198747, -1.035181, 0.611720, 5.543720, -4.606216, -76.333801, -629.699768
1733469148.417702, 10.705822, 8.395567, 1.655142, -1.028635, 0.419889, 5.696467, -6.396851, -77.867905, -629.287720
1733469148.427702, 9.857976, 7.842806, 2.177526, -0.959173, 0.078220, 5.797421, -8.506195, -79.619522, -629.887329
1733469148.437703, 9.048586, 7.422624, 2.425027, -0.847692, -0.390316, 5.903272, -11.051376, -81.334076, -630.440308
1733469148.447698, 8.150910, 6.865523, 2.205209, -0.730354, -0.785801, 5.983346, -13.321808, -82.979309, -630.388611
1733469148.457706, 7.601740, 6.485144, 2.203713, -0.608702, -1.075244, 6.039897, -16.053284, -84.209808, -631.205566
1733469148.467700, 7.391499, 6.252458, 2.296189, -0.479617, -1.369225, 6.177264, -18.948959, -85.219315, -631.904053
1733469148.477703, 6.785467, 6.088305, 2.169895, -0.350608, -1.687917, 6.402435, -21.875259, -86.481155, -632.059082
1733469148.487704, 6.001515, 5.951985, 1.868225, -0.218864, -1.956332, 6.656638, -25.043594, -87.108902, -632.561951
1733469148.497702, 5.279813, 6.054936, 1.356166, -0.077154, -2.140909, 6.973589, -28.327957, -87.975143, -632.660706
1733469148.507771, 4.308067, 6.300042, 0.742801, 0.073054, -2.167826, 7.371115, -31.854065, -88.590836, -632.384827
1733469148.517695, 3.175909, 6.670545, 0.446668, 0.187411, -1.972585, 7.795276, -36.064194, -88.514832, -632.085938
1733469148.527707, 2.013973, 7.038803, 0.707786, 0.198158, -1.617230, 8.257653, -40.166458, -88.390091, -632.442139
1733469148.537705, 0.911892, 7.192631, 1.257554, 0.070319, -1.221067, 8.723068, -44.512527, -87.883606, -632.600098
1733469148.547744, -0.240617, 7.463774, 1.993921, -0.168494, -0.890409, 9.180886, -48.570236, -86.557892, -632.082397
1733469148.557701, -1.825579, 8.155549, 2.781464, -0.483402, -0.662472, 9.662510, -52.791519, -84.924728, -632.906860
1733469148.567703, -4.174889, 9.164106, 3.516035, -0.852023, -0.592057, 10.166126, -56.503296, -82.452621, -633.215149
1733469148.577695, -6.894553, 10.198102, 3.695001, -1.315227, -0.626186, 10.671212, -60.609375, -79.116165, -633.301147
1733469148.587697, -10.624569, 11.758373, 2.847753, -1.878953, -0.739561, 11.164785, -64.388779, -75.340256, -633.565918
1733469148.597695, -16.936882, 12.361862, 1.063325, -2.290383, -1.024329, 11.524124, -68.802109, -71.068817, -634.283508
1733469148.607693, -24.373571, 8.957157, -1.610699, -2.300656, -1.566484, 11.327137, -72.491577, -66.712112, -634.167664
1733469148.617697, -31.330822, 2.551770, -6.016629, -1.826059, -2.172866, 10.359118, -75.150665, -62.549500, -633.520264
1733469148.627696, -37.049672, -4.145710, -10.491092, -0.974008, -2.258829, 8.705029, -76.605652, -59.423492, -632.724548
1733469148.637707, -39.754222, -8.883835, -12.252926, -0.099066, -1.723069, 6.611556, -77.027985, -57.139969, -631.959290
1733469148.647702, -39.418735, -10.621876, -10.820445, 0.442381, -0.974379, 4.535276, -77.343140, -55.580093, -630.983398
1733469148.657708, -36.697276, -9.981876, -7.852383, 0.583831, -0.323073, 2.750459, -77.002258, -54.721817, -631.234741
1733469148.667697, -33.110313, -7.966257, -4.645350, 0.514431, -0.119005, 1.468305, -77.082672, -54.519745, -630.780762
1733469148.677696, -30.393492, -6.538864, -3.090316, 0.447005, -0.475107, 0.678737, -77.462006, -54.387802, -630.745972
1733469148.687705, -28.806286, -7.046135, -3.612102, 0.435216, -0.961184, 0.162134, -77.362885, -54.535934, -630.030273
1733469148.697707, -28.111968, -8.935759, -5.305252, 0.427914, -1.114555, -0.303889, -77.827713, -54.826279, -630.099731
1733469148.707697, -27.438449, -10.865785, -6.884377, 0.375378, -0.766635, -0.832237, -77.781647, -55.572281, -629.996216
1733469148.717710, -26.191968, -12.305448, -7.838167, 0.274276, -0.018059, -1.452954, -77.777542, -56.741028, -630.572510
1733469148.727717, -24.220941, -12.154165, -7.470657, 0.159474, 0.888904, -2.100919, -77.293411, -57.868759, -631.183289
1733469148.737723, -22.169559, -10.663176, -6.172102, 0.039567, 1.575960, -2.658701, -76.869385, -59.332245, -632.301392
1733469148.747700, -20.284425, -8.798841, -5.067777, -0.030082, 1.915225, -3.105420, -76.150131, -60.956696, -632.442688
1733469148.757718, -18.432659, -7.561188, -4.553622, 0.001134, 1.910655, -3.466681, -75.271484, -62.432419, -633.378357
1733469148.767705, -16.893637, -6.783073, -4.523096, 0.129983, 1.672197, -3.773584, -74.193497, -64.324783, -634.344727
1733469148.777698, -15.825523, -6.220884, -4.924873, 0.336882, 1.368421, -4.029396, -73.043015, -66.263077, -634.524170
1733469148.787691, -14.856919, -6.008848, -5.310489, 0.584753, 1.188881, -4.282663, -71.888138, -67.869049, -634.577576
1733469148.797694, -14.126089, -5.429900, -5.231480, 0.817517, 1.146772, -4.521145, -70.700455, -70.153824, -635.278381
1733469148.807688, -13.670742, -4.917989, -4.942979, 1.021786, 1.248310, -4.751433, -68.870331, -72.047348, -635.263245
1733469148.817687, -12.991836, -4.542399, -4.315848, 1.181693, 1.482707, -5.036149, -67.092148, -74.257599, -635.477722
1733469148.827687, -11.962180, -4.176086, -3.355324, 1.296734, 1.694411, -5.357998, -65.072266, -76.462021, -635.631592
1733469148.837686, -10.584317, -3.973477, -2.362628, 1.397621, 1.760164, -5.713249, -62.677612, -78.570602, -635.395630
1733469148.847690, -9.164405, -3.428796, -1.330727, 1.491642, 1.629180, -6.087089, -60.223145, -80.710098, -634.785706
1733469148.857693, -7.993342, -2.319532, -0.643292, 1.546030, 1.372954, -6.453362, -57.227158, -82.603653, -635.077698
1733469148.867711, -6.682815, -0.912490, -0.508020, 1.574394, 1.068156, -6.789865, -53.850281, -84.387451, -634.078613
1733469148.877700, -5.551705, 0.503381, -0.385766, 1.636139, 0.797196, -7.045269, -50.972137, -86.211395, -633.777527
1733469148.887695, -4.614524, 1.516128, -0.225654, 1.719334, 0.583050, -7.210070, -47.492477, -87.546707, -632.740845
1733469148.897683, -3.747823, 2.011578, -0.000150, 1.784590, 0.417664, -7.358763, -43.923798, -88.559494, -632.120728
1733469148.907681, -2.951901, 2.385223, 0.070779, 1.817903, 0.274379, -7.511615, -40.225143, -89.293289, -631.224609
1733469148.917691, -2.234089, 2.813187, 0.196923, 1.833233, 0.175113, -7.672290, -40.225143, -89.293289, -631.224609
1733469148.927688, -1.800140, 3.327491, 0.401178, 1.839853, 0.029385, -7.820736, -36.438812, -89.723419, -630.667725
1733469148.937699, -1.586458, 4.060267, 0.561141, 1.817341, -0.082279, -7.947074, -32.622421, -90.004959, -629.627502
1733469148.947687, -1.445350, 4.970063, 0.738162, 1.717044, -0.098532, -8.091872, -28.849640, -89.811417, -628.493530
1733469148.957683, -1.141136, 5.954679, 0.716016, 1.553171, -0.056643, -8.247554, -24.941437, -89.288361, -627.382080
1733469148.967686, -0.448763, 6.897246, 0.680103, 1.407223, 0.049402, -8.381911, -20.939499, -88.196365, -626.877563
1733469148.977696, 1.098041, 7.924807, 1.043273, 1.334527, 0.183621, -8.470450, -16.867142, -86.885483, -626.431030
1733469148.987690, 3.530999, 9.088090, 1.878550, 1.285222, 0.171553, -8.409986, -13.084564, -85.149384, -625.612671
1733469148.997682, 6.273706, 9.838822, 2.561048, 1.163606, -0.040780, -8.136971, -10.072113, -83.205994, -624.977539
1733469149.007699, 8.715044, 10.177602, 2.805256, 0.960606, -0.337201, -7.686163, -7.056320, -81.175705, -624.309692
1733469149.017694, 10.756998, 10.219949, 2.428020, 0.719306, -0.664807, -7.137603, -4.955215, -79.183792, -625.366211
1733469149.027685, 12.943054, 10.450391, 0.994940, 0.516965, -0.906505, -6.512963, -2.723099, -76.804245, -624.878601
1733469149.037688, 15.872210, 11.173739, -0.318878, 0.434525, -0.764779, -5.775790, -1.278671, -74.925201, -625.155151
1733469149.047716, 18.789395, 11.906514, -0.290896, 0.087234, 0.260077, -4.024672, -0.313629, -72.976990, -624.755615
1733469149.057688, 20.692935, 12.654104, -0.506823, -0.249767, 1.339434, -3.276849, 0.581894, -71.476151, -624.615784
1733469149.067726, 22.333263, 13.589489, -0.056264, -0.249767, 1.339434, -3.276849, 0.972687, -70.197678, -624.368530
1733469149.077736, 24.311472, 14.082245, 2.178275, -0.617063, 2.301805, -2.621282, 1.286362, -69.345596, -623.535950
1733469149.087782, 25.567680, 14.662839, 3.910180, -0.880552, 2.672775, -2.014998, 1.525742, -68.571335, -622.930176
1733469149.097821, 26.568007, 15.319000, 5.659294, -0.953966, 2.630867, -1.549966, 1.700302, -68.039276, -622.092712
1733469149.107702, 28.021437, 15.425991, 7.733122, -0.896577, 1.963459, -1.130980, 2.027878, -67.756165, -621.590820
1733469149.117699, 28.700043, 15.668404, 8.017433, -0.621265, -0.174009, -0.121076, 2.056274, -67.286163, -621.305420
1733469149.127677, 28.338968, 15.810260, 6.915203, -0.422565, -0.926165, 0.438919, 2.237778, -67.254623, -621.909546
1733469149.137676, 28.001386, 15.461605, 5.971588, -0.243191, -1.503961, 1.129968, 2.375595, -67.477554, -622.966309
1733469149.147673, 27.486632, 14.825795, 4.777929, -0.093959, -1.802136, 1.968165, 2.777527, -67.962952, -623.138733
1733469149.157675, 26.096349, 13.929615, 3.379116, -0.034356, -1.785527, 2.846020, 2.211639, -68.522797, -623.819153
1733469149.167683, 23.800908, 12.967445, 2.565836, -0.098291, -1.516542, 3.650719, 1.469955, -69.722656, -624.209351
1733469149.177676, 21.083340, 11.989264, 2.163760, -0.285389, -1.079042, 4.287360, 0.468521, -71.377228, -625.054077
1733469149.187681, 18.454207, 11.229404, 2.020856, -0.528954, -0.616292, 4.761803, -1.069412, -72.981842, -625.837402
1733469149.197679, 16.438888, 10.588506, 2.079514, -0.779009, -0.256384, 5.141770, -2.409851, -74.950394, -625.729126
1733469149.207681, 14.993389, 10.040833, 2.197129, -1.008913, -0.045697, 5.468867, -4.595474, -76.379623, -625.881165
1733469149.217685, 13.612084, 9.559149, 2.230049, -1.180878, 0.014152, 5.731103, -6.245895, -78.381287, -626.878052
1733469149.227682, 12.243199, 9.163657, 2.301127, -1.248210, -0.129891, 5.940901, -8.328674, -80.175064, -627.219971
1733469149.237687, 11.039365, 8.693346, 2.617611, -1.217988, -0.494466, 6.119032, -10.727493, -81.947815, -627.560730
1733469149.247673, 9.912145, 8.074295, 3.003975, -1.143363, -0.970798, 6.259712, -13.092987, -83.455063, -628.332275
1733469149.257680, 8.675988, 7.534403, 2.991405, -1.031600, -1.439827, 6.385434, -15.750305, -84.658066, -629.029968
1733469149.267672, 7.721749, 7.165397, 2.762609, -0.907416, -1.856625, 6.552526, -18.605759, -85.828339, -630.042236
1733469149.277671, 7.003189, 6.929119, 2.352902, -0.764719, -2.197284, 6.794310, -21.838867, -86.933716, -630.971619
1733469149.287686, 6.250662, 6.919093, 1.949928, -0.613664, -2.431376, 7.121917, -25.061234, -87.906052, -631.437256
1733469149.297677, 5.300014, 7.095516, 1.528398, -0.467080, -2.547961, 7.535883, -28.500900, -88.425949, -631.673584
1733469149.307693, 4.382137, 7.303363, 1.125125, -0.343206, -2.531970, 8.029746, -32.110336, -88.871948, -632.169189
1733469149.317670, 3.462913, 7.711125, 0.867150, -0.271596, -2.383654, 8.615242, -36.161987, -88.912415, -632.033081
1733469149.327669, 1.937208, 8.413973, 0.776320, -0.284047, -2.070000, 9.219608, -40.328644, -88.447556, -631.933228
1733469149.337678, -0.170288, 8.820538, 0.901716, -0.410819, -1.635813, 9.729459, -45.278473, -87.732117, -632.187256
1733469149.347730, -2.102259, 8.801385, 1.369932, -0.684780, -1.210275, 10.120541, -49.977692, -86.415955, -631.713989
1733469149.357672, -3.683928, 9.112182, 1.582717, -1.014663, -0.843372, 10.462728, -54.383087, -84.504791, -632.254456
1733469149.367668, -5.450849, 9.513510, 1.275810, -1.287053, -0.442148, 10.772406, -58.589417, -81.924332, -632.617981
1733469149.377667, -7.807342, 9.474903, 0.627879, -1.550336, 0.055994, 11.036914, -62.506851, -78.548340, -633.055054
1733469149.387669, -10.930279, 10.216657, 0.060603, -1.953997, 0.582328, 11.231201, -66.039581, -74.700073, -633.410583
1733469149.397666, -14.731672, 11.077971, -0.042796, -2.414029, 0.660904, 11.085786, -69.598816, -70.568512, -634.617310
1733469149.407665, -19.356522, 9.485977, -0.318578, -2.549582, -0.010105, 10.375652, -73.002960, -66.013062, -635.721802
1733469149.417677, -24.794203, 5.618593, -1.765424, -2.163758, -1.066358, 9.031539, -75.617798, -61.590591, -636.683105
1733469149.427666, -30.797215, -0.174926, -4.806360, -1.364359, -1.868250, 7.058915, -77.616592, -57.990875, -636.180664
1733469149.437693, -35.021334, -5.728576, -8.161085, -0.572597, -2.152647, 4.900878, -77.934311, -55.078186, -635.148376
1733469149.447668, -35.893871, -8.145822, -9.284864, -0.067114, -2.078425, 3.025470, -78.336411, -53.304993, -633.362793
1733469149.457666, -33.309031, -7.742399, -8.538471, 0.196690, -1.822325, 1.837307, -77.675934, -51.840073, -632.255432
1733469149.467671, -29.511827, -5.282058, -6.702568, 0.255099, -1.641386, 1.298678, -77.800186, -51.253632, -631.611084
1733469149.477668, -26.980408, -3.443161, -4.744709, 0.204895, -1.618100, 1.078256, -78.059433, -50.751068, -630.662231
1733469149.487667, -26.220249, -3.959561, -4.236689, 0.137910, -1.446835, 0.871436, -78.296402, -50.339066, -629.786011
1733469149.497674, -26.733506, -6.114192, -5.297321, 0.022332, -0.958966, 0.498626, -78.814514, -50.116089, -629.874023
1733469149.507672, -27.644949, -8.725818, -6.505495, -0.172000, -0.237083, -0.102542, -79.437592, -50.046509, -629.759460
1733469149.517663, -28.062737, -10.679037, -7.369951, -0.405925, 0.580576, -0.828552, -79.343246, -50.292557, -629.993591
1733469149.527665, -27.337743, -10.921749, -7.849390, -0.575088, 1.358118, -1.535376, -79.303619, -50.852356, -630.381104
1733469149.537676, -25.282321, -10.262446, -8.005462, -0.623368, 1.952530, -2.114772, -78.973785, -51.817383, -631.370239
1733469149.547660, -22.438308, -9.247005, -7.695114, -0.539232, 2.228659, -2.506991, -78.568039, -53.005096, -632.105957
1733469149.557676, -19.924845, -8.098686, -7.005883, -0.360357, 2.204753, -2.779776, -77.915344, -54.127487, -633.546814
1733469149.567670, -18.131140, -7.118710, -6.404340, -0.139867, 1.995432, -2.983765, -77.302628, -55.748535, -634.923157
1733469149.577659, -16.840665, -6.352416, -6.212055, 0.097969, 1.721124, -3.169549, -76.514694, -56.967133, -635.353149
1733469149.587712, -15.975011, -5.962909, -6.247071, 0.345922, 1.486851, -3.361226, -75.978561, -58.385635, -636.344849
1733469149.597669, -15.438261, -5.793968, -6.442647, 0.568801, 1.405177, -3.594307, -75.267868, -59.992981, -636.665466
1733469149.607657, -15.317204, -5.663035, -6.475867, 0.746837, 1.453160, -3.892248, -74.446960, -61.928848, -637.245300
1733469149.617655, -15.230714, -5.508609, -6.189161, 0.875081, 1.566711, -4.252326, -73.070633, -63.678452, -637.856628
1733469149.627656, -15.130906, -4.933402, -5.588067, 0.979364, 1.697605, -4.648832, -71.594315, -65.843765, -638.118591
1733469149.637707, -14.656405, -4.342334, -4.950461, 1.083062, 1.826593, -5.061620, -70.247452, -68.048706, -638.312622
1733469149.647660, -13.641563, -3.899706, -4.171597, 1.173351, 1.858328, -5.438246, -68.571106, -70.272171, -638.480957
1733469149.657676, -12.303802, -3.432836, -3.170671, 1.240812, 1.778141, -5.787493, -66.703476, -72.545898, -639.442261
1733469149.667668, -10.966042, -2.713229, -2.509572, 1.332327, 1.625365, -6.106568, -64.409744, -74.809647, -639.605225
1733469149.677653, -9.679458, -1.667412, -2.154632, 1.468839, 1.429631, -6.382249, -61.880615, -77.120438, -639.749390
1733469149.687701, -8.466196, -0.861164, -1.849670, 1.642403, 1.213310, -6.641398, -59.049423, -79.221664, -638.958008
1733469149.697656, -7.438635, -0.221763, -1.573290, 1.816243, 1.004181, -6.890293, -56.379700, -81.236588, -638.607056
1733469149.707652, -6.616825, 0.596156, -1.171214, 1.959622, 0.829316, -7.139433, -53.156860, -83.146255, -637.878601
1733469149.717653, -5.815665, 1.282394, -0.677260, 2.057915, 0.639360, -7.387854, -50.326080, -84.656296, -637.387756
1733469149.727664, -4.968567, 1.838448, -0.151583, 2.124140, 0.434910, -7.622740, -47.104111, -86.339691, -636.109619
1733469149.737712, -4.045453, 2.135778, 0.368109, 2.115617, 0.189435, -7.857970, -43.429688, -87.438004, -636.015686
1733469149.747661, -3.205836, 2.312649, 0.921319, 2.024341, -0.110032, -8.096185, -39.565460, -88.295929, -634.021118
1733469149.757663, -2.586486, 2.902072, 1.402404, 1.853313, -0.367890, -8.307500, -35.714142, -88.815094, -633.571289
1733469149.767652, -2.194435, 4.092439, 1.213860, 1.678279, -0.472626, -8.485107, -31.510025, -88.809708, -633.332825
1733469149.777659, -1.697190, 5.374384, 0.820613, 1.546304, -0.501796, -8.621855, -27.578903, -88.743713, -632.187988
1733469149.787718, -1.098490, 6.243629, 0.475249, 1.452700, -0.460084, -8.720365, -23.271301, -88.003006, -631.661987
1733469149.797667, -0.365565, 6.962189, -0.029329, 1.365798, -0.315070, -8.727175, -19.166824, -86.763062, -630.749512
1733469149.807653, 0.589722, 7.842208, -0.402675, 1.244777, -0.006098, -8.623642, -15.694763, -85.475098, -629.726501
1733469149.817652, 2.123058, 8.640225, -0.540940, 1.068169, 0.302368, -8.406898, -11.927094, -83.673431, -629.779175
1733469149.827656, 4.335450, 9.177574, -0.142156, 0.912241, 0.388985, -8.035751, -9.042282, -81.561234, -629.085632
1733469149.837707, 6.483648, 9.313893, 0.537798, 0.768973, 0.279185, -7.615324, -6.003937, -79.256134, -628.842041
1733469149.847649, 8.353819, 9.491064, 0.541239, 0.652251, 0.180927, -7.087144, -3.312088, -77.094742, -627.777588
1733469149.857667, 10.647763, 10.155006, 0.063746, 0.606667, 0.093066, -6.385626, -1.581970, -75.025528, -627.797424
1733469149.867721, 12.620286, 10.463110, 0.014964, 0.568914, -0.038109, -5.597929, -0.014511, -73.157745, -627.642944
1733469149.877658, 14.264055, 10.309283, 0.285509, 0.442990, -0.142336, -4.771574, 1.262466, -71.360001, -627.572754
1733469149.887649, 15.289222, 10.116250, 0.035913, 0.232497, 0.051136, -4.001550, 2.093887, -69.651184, -627.862488
1733469149.897711, 15.060277, 9.843311, -0.796820, -0.016323, 0.656483, -3.476409, 2.465973, -68.249756, -627.453003
1733469149.907648, 14.279168, 9.945214, -1.181090, -0.323847, 1.528097, -3.300104, 2.695755, -67.091873, -627.027832
1733469149.917649, 14.111724, 11.068394, -0.491111, -0.601875, 2.268115, -3.370671, 3.139313, -65.735474, -626.283936
1733469149.927659, 15.866374, 12.784289, 0.982521, -0.697367, 2.482561, -3.435141, 3.616516, -64.238861, -625.495178
1733469149.937698, 19.277962, 14.451102, 2.729240, -0.529766, 1.955967, -3.338532, 4.429398, -62.899811, -624.615540
1733469149.947643, 22.858640, 16.623092, 4.673033, -0.161049, 0.737653, -3.014945, 4.947098, -61.631104, -624.229736
1733469149.957652, 25.821764, 18.152687, 5.951985, 0.200194, -0.720260, -2.507352, 5.418137, -60.437927, -624.967651
1733469149.967658, 27.995999, 18.507777, 5.626224, 0.447460, -1.871681, -1.808832, 5.998444, -59.623703, -625.637512
1733469149.977656, 29.032987, 18.582297, 3.603423, 0.557762, -2.273358, -0.937591, 6.420227, -59.186554, -626.100830
1733469149.987659, 29.198187, 18.511668, 0.941520, 0.567127, -2.038742, 0.094439, 6.541916, -59.134827, -626.919556
1733469149.997652, 29.098977, 18.124705, -0.462231, 0.488021, -1.567022, 1.257272, 6.296143, -59.934372, -627.531006
1733469150.007379, 28.328643, 17.345093, -0.775572, 0.340361, -1.066374, 2.441940, 5.693558, -61.001846, -627.969666
1733469150.017655, 26.230574, 16.400730, -0.536600, 0.116493, -0.615572, 3.508418, 5.231812, -62.582245, -628.195007
1733469150.027651, 23.379379, 15.466243, -0.063446, -0.143694, -0.244087, 4.386352, 4.271667, -64.601944, -628.637329
1733469150.037650, 20.164715, 14.430751, 0.096666, -0.399981, 0.131991, 5.033484, 2.961304, -66.848206, -628.771118
1733469150.047656, 16.921619, 13.477859, 0.031873, -0.638406, 0.473639, 5.454135, 1.502335, -69.125473, -627.992493
1733469150.057514, 14.450653, 12.379669, 0.189142, -0.850641, 0.667397, 5.718058, -0.025681, -71.263123, -628.620605
1733469150.067702, 12.724583, 11.400590, 0.587627, -1.000747, 0.630739, 5.888473, -1.497757, -73.287689, -628.671204
1733469150.077649, 11.442488, 10.687567, 0.953640, -1.063313, 0.396416, 6.016749, -3.285950, -75.386749, -629.143677
1733469150.087643, 10.426748, 10.141240, 0.952294, -1.041710, 0.084558, 6.115314, -5.663116, -77.201019, -629.440674
1733469150.097658, 9.495553, 9.649231, 0.608277, -0.913373, -0.242441, 6.206264, -7.684326, -79.079651, -629.767090
1733469150.107659, 8.821436, 9.203610, 0.169988, -0.691509, -0.502448, 6.327166, -10.273087, -81.103409, -630.601990
1733469150.117650, 8.140286, 8.766818, -0.251541, -0.437435, -0.660768, 6.425975, -12.888504, -82.615616, -630.530518
1733469150.127646, 7.431752, 8.266879, -0.178667, -0.208239, -0.816301, 6.533781, -15.455521, -84.035614, -630.960327
1733469150.137642, 6.846669, 7.829039, 0.241365, -0.016040, -0.969902, 6.640959, -18.657227, -85.483337, -631.189941
1733469150.147649, 6.077232, 7.508965, 0.499790, 0.130488, -1.073464, 6.739209, -21.657013, -86.889008, -630.334473
1733469150.157658, 5.568763, 7.224204, 0.870292, 0.236213, -1.249501, 6.907934, -25.129120, -87.621918, -631.267151
1733469150.167063, 5.072864, 7.031022, 1.334767, 0.344906, -1.476757, 7.142768, -28.424179, -88.455719, -631.225403
1733469150.177642, 4.178630, 7.033416, 1.557727, 0.465914, -1.692937, 7.442438, -31.877548, -88.938065, -630.864014
1733469150.187646, 3.019986, 7.134871, 1.776198, 0.537887, -1.808837, 7.822058, -35.585052, -89.306366, -630.548645
1733469150.197648, 1.730709, 7.306505, 2.044648, 0.475657, -1.746689, 8.246705, -39.745438, -89.213821, -630.294861
1733469150.207647, 0.291793, 7.505224, 2.312051, 0.261917, -1.530694, 8.675639, -43.985733, -88.361862, -630.137512
1733469150.217640, -1.014094, 7.713370, 2.349161, -0.070199, -1.175923, 9.085800, -48.223145, -87.416245, -630.092407
1733469150.227639, -2.061108, 7.995137, 2.158971, -0.485838, -0.738524, 9.502438, -52.741425, -85.744659, -630.566040
1733469150.237637, -3.018490, 8.464550, 1.622072, -0.913203, -0.301955, 9.929417, -56.795715, -83.450241, -630.689514
1733469150.247636, -4.651784, 8.971373, 1.122731, -1.186444, -0.068204, 10.319447, -61.052628, -80.788254, -630.804565
1733469150.257641, -8.226627, 8.850765, 1.113902, -1.312295, -0.029934, 10.420890, -65.361679, -77.641922, -631.822632
1733469150.267640, -12.933028, 7.235876, 1.516876, -1.421589, -0.262821, 10.053410, -68.201874, -73.969360, -632.046021
1733469150.276663, -16.335488, 4.898387, 1.391031, -1.500733, -0.529209, 9.525584, -68.201874, -73.969360, -632.046021
1733469150.287640, -18.663400, 3.815759, -2.553715, -1.464247, -0.428793, 9.154654, -72.793076, -66.236176, -632.576050
1733469150.297634, -20.949713, 2.925266, -2.512864, -1.388505, -0.160378, 8.813836, -74.650330, -62.498383, -633.187866
1733469150.307643, -24.084921, 1.945139, -1.437868, -1.376539, -0.179287, 8.345798, -76.163864, -58.686310, -632.782898
1733469150.317730, -27.099669, 0.280421, -1.089960, -1.472608, -0.453201, 7.689552, -76.163864, -58.686310, -632.782898
1733469150.327715, -27.099669, 0.280421, -1.089960, -1.659088, -0.748910, 6.863031, -76.992798, -55.199463, -632.649597
1733469150.337680, -29.585748, -1.877802, -2.043601, -1.866631, -0.928950, 5.914527, -77.770767, -51.732422, -632.534424
1733469150.347637, -35.088671, -7.863606, -6.219986, -2.000025, -0.944486, 4.751626, -78.695663, -48.949921, -632.377258
1733469150.357636, -37.133768, -10.146327, -8.656386, -1.957828, -0.916668, 3.339596, -79.056671, -46.863190, -631.838562
1733469150.367632, -37.268442, -10.731410, -11.069142, -1.630500, -0.895066, 1.834337, -79.151260, -45.319016, -631.247192
1733469150.377629, -35.444061, -10.182390, -12.318168, -1.059904, -0.794572, 0.508161, -79.047089, -44.760574, -631.083008
1733469150.387631, -32.596307, -9.307459, -12.286594, -0.473725, -0.605357, -0.518143, -79.039932, -44.632004, -630.622742
1733469150.397632, -29.492824, -8.319103, -11.850849, -0.043872, -0.238081, -1.225943, -78.970993, -45.015625, -630.981323
1733469150.407635, -26.759094, -7.581389, -11.271453, 0.182092, 0.354051, -1.675460, -78.947449, -45.779251, -630.618530
1733469150.417640, -24.047212, -7.526472, -10.566510, 0.269597, 1.080067, -1.994216, -79.170441, -46.736786, -631.189331
1733469150.427629, -21.610663, -7.571663, -9.487772, 0.316912, 1.696911, -2.235449, -78.832138, -47.843430, -631.755676
1733469150.437631, -20.120721, -6.962338, -8.324938, 0.394746, 1.971602, -2.447390, -79.092651, -49.192719, -633.104858
1733469150.447641, -19.268984, -6.261436, -7.457340, 0.559363, 1.912598, -2.688588, -78.382690, -50.585358, -633.825684
1733469150.457636, -18.665645, -5.892430, -6.754791, 0.788854, 1.591974, -2.986387, -78.226456, -52.150482, -634.241150
1733469150.467644, -18.385374, -5.707926, -6.418256, 1.042171, 1.150326, -3.351302, -77.712967, -53.813507, -635.482178
1733469150.477635, -18.188451, -5.370344, -6.320842, 1.293411, 0.799849, -3.776114, -77.145630, -55.820114, -635.471802
1733469150.487632, -17.826627, -4.770297, -6.017527, 1.494046, 0.670835, -4.238559, -76.357651, -57.946014, -635.695923
1733469150.497630, -17.168371, -3.785981, -5.467309, 1.614297, 0.767755, -4.679066, -75.607330, -60.112213, -635.762695
1733469150.507626, -15.939098, -2.814534, -4.815188, 1.658044, 1.062970, -5.059998, -74.235840, -62.495865, -635.556274
1733469150.517626, -14.173823, -2.393603, -3.828328, 1.641474, 1.447859, -5.355926, -73.102432, -65.038696, -635.958679
1733469150.527666, -12.561478, -1.990629, -2.652327, 1.567204, 1.750057, -5.574557, -71.320038, -67.760742, -636.773926
1733469150.537640, -11.300632, -1.180192, -1.754651, 1.488737, 1.905547, -5.759329, -69.772141, -70.118225, -636.765198
1733469150.547628, -10.206631, -0.491410, -1.018733, 1.461596, 1.931169, -5.933545, -67.779907, -72.621872, -636.779907
1733469150.557625, -9.156175, -0.118663, -0.399981, 1.493851, 1.837949, -6.128541, -65.455246, -74.982239, -637.175537
1733469150.567620, -8.439112, 0.294038, 0.062249, 1.551602, 1.620234, -6.337264, -62.942368, -77.450684, -637.318115
1733469150.577625, -7.933486, 0.643891, 0.287304, 1.626639, 1.359150, -6.603312, -60.508179, -79.537872, -637.016479
1733469150.587623, -7.279421, 0.911742, 0.475249, 1.705427, 1.095050, -6.911689, -57.798584, -81.616409, -636.794617
1733469150.597623, -6.253355, 1.022623, 0.789039, 1.753822, 0.825486, -7.257224, -54.947952, -83.488403, -636.291382
1733469150.607624, -5.324854, 1.830517, 1.235258, 1.740535, 0.524477, -7.600825, -51.352432, -85.223938, -635.286072
1733469150.617621, -4.432116, 3.350835, 1.344045, 1.669533, 0.174156, -7.861934, -47.742828, -86.644028, -634.821655
1733469150.627621, -3.326145, 4.389918, 0.996138, 1.587851, -0.127094, -8.049227, -44.021912, -87.820358, -633.946350
1733469150.637636, -2.246060, 5.027524, 0.527173, 1.522886, -0.396194, -8.157222, -40.400024, -88.609161, -633.158691
1733469150.647621, -1.435623, 5.463269, 0.049680, 1.511542, -0.591693, -8.222324, -36.595825, -89.178299, -632.343140
1733469150.657622, -0.792481, 5.943157, -0.168342, 1.515825, -0.664163, -8.278318, -32.739395, -89.241852, -631.555908
1733469150.667623, -0.101754, 6.402544, -0.245855, 1.448919, -0.643752, -8.342040, -28.841736, -88.894501, -630.778442
1733469150.677620, 0.678457, 7.092673, -0.333542, 1.287929, -0.491866, -8.411550, -24.872025, -88.539597, -630.700134
1733469150.687619, 1.563713, 8.296058, -0.231340, 1.085207, -0.275607, -8.405985, -21.175766, -87.644287, -630.054626
1733469150.697622, 3.250877, 9.366715, -0.295834, 0.884512, -0.034911, -8.317894, -17.163528, -86.182343, -629.474426
1733469150.707620, 5.809830, 10.081385, -0.105794, 0.719701, 0.165721, -8.078690, -14.023819, -84.510254, -629.033386
1733469150.717638, 9.175479, 10.791565, 0.214431, 0.576037, 0.253645, -7.693526, -11.059906, -82.695755, -628.359680
1733469150.727619, 13.252654, 11.623400, 0.428712, 0.427288, 0.321658, -7.139070, -8.454819, -80.789795, -628.605774
1733469150.737627, 17.194109, 12.443414, 1.194108, 0.307151, 0.258506, -6.348228, -6.276184, -78.984924, -628.087585
1733469150.747635, 19.380913, 12.269236, 1.450437, 0.184742, 0.019797, -5.437153, -5.150833, -77.404343, -628.452332
1733469150.757634, 20.451869, 11.901726, 0.445621, 0.009623, -0.034880, -4.629139, -3.556122, -75.572662, -628.297119
1733469150.767622, 21.536293, 12.283302, -0.508618, -0.179543, 0.319511, -3.894423, -2.686707, -74.127335, -628.504150
1733469150.777682, 22.699276, 12.634651, -0.373346, -0.376693, 0.919753, -3.202784, -1.893051, -73.096741, -628.172607
1733469150.787623, 23.877074, 12.774263, 0.301969, -0.541260, 1.389414, -2.587140, -1.420258, -72.128311, -628.037231
1733469150.797612, 24.888474, 13.032238, 0.817470, -0.611741, 1.630407, -2.030806, -1.002960, -71.213074, -627.460266
1733469150.807614, 25.499146, 13.188609, 1.262492, -0.565271, 1.658817, -1.523957, -0.828720, -70.772476, -627.072876
1733469150.817289, 25.994147, 13.452271, 2.046294, -0.413439, 1.484936, -1.102776, -0.735779, -70.336090, -626.680664
1733469150.827611, 27.051636, 13.759327, 3.455282, -0.196730, 1.029052, -0.721064, -0.496582, -69.968231, -626.231018
1733469150.837610, 27.908610, 13.835942, 4.257190, 0.011405, 0.249970, -0.245106, -0.183990, -69.890366, -626.133240
1733469150.847611, 27.727249, 13.598467, 3.728969, 0.218210, -0.564688, 0.353505, -0.135681, -70.029510, -625.601135
1733469150.857615, 26.831519, 12.925547, 2.820968, 0.385738, -1.090707, 1.051181, 0.091080, -70.230453, -626.267700
1733469150.867629, 25.293244, 12.147581, 2.192341, 0.424008, -1.292322, 1.851024, -0.434952, -70.958374, -626.593628
1733469150.877614, 23.056611, 11.272051, 1.626261, 0.336864, -1.189160, 2.685022, -0.828125, -72.194565, -626.894226
1733469150.887615, 20.539557, 10.383952, 1.323545, 0.165437, -0.865491, 3.459629, -2.026413, -73.450317, -627.277466
1733469150.897681, 18.005294, 9.534908, 1.413926, -0.068100, -0.466243, 4.106743, -3.466949, -74.909225, -627.737061
1733469150.907613, 15.737836, 8.695441, 1.539472, -0.327960, -0.097635, 4.589723, -5.077576, -76.406937, -627.680420
1733469150.917612, 14.018200, 8.066814, 1.623418, -0.581368, 0.190192, 4.957824, -6.638428, -78.068481, -628.128418
1733469150.927575, 12.568362, 7.386711, 1.746271, -0.804054, 0.352523, 5.249223, -8.415131, -79.793228, -628.144165
1733469150.937654, 11.369764, 6.810905, 1.925537, -0.973410, 0.373938, 5.446929, -10.494186, -81.223053, -628.262695
1733469150.947604, 10.518476, 6.398504, 2.230498, -1.076262, 0.218548, 5.591516, -12.649719, -82.690598, -628.065063
1733469150.957610, 9.687239, 6.090999, 2.364873, -1.103140, -0.103751, 5.734910, -15.131256, -83.972946, -629.270996
1733469150.967607, 8.759336, 5.814019, 2.295740, -1.055231, -0.509086, 5.867259, -17.436478, -85.261932, -630.222229
1733469150.977612, 7.894281, 5.518635, 2.127248, -0.951134, -0.922986, 6.004092, -20.566818, -86.182617, -630.153809
1733469150.987656, 6.966528, 5.288343, 1.906832, -0.818134, -1.269380, 6.153406, -23.206650, -87.143906, -630.799133
1733469150.997607, 6.045359, 5.137059, 1.674295, -0.688690, -1.536386, 6.335382, -25.942596, -87.974350, -631.169922
1733469151.007608, 5.082142, 4.938041, 1.309329, -0.575854, -1.690434, 6.526768, -29.103806, -88.621460, -631.535461
1733469151.017605, 4.268263, 4.787505, 1.100734, -0.479885, -1.730991, 6.691474, -32.386108, -88.941681, -632.083984
1733469151.027628, 3.639486, 4.836886, 1.108815, -0.384759, -1.759815, 6.909912, -35.872269, -89.028641, -632.148193
1733469151.037615, 2.793734, 5.062240, 1.175553, -0.310842, -1.763148, 7.201912, -39.457275, -88.801804, -632.292480
1733469151.047601, 1.748815, 5.463419, 1.255310, -0.291443, -1.705926, 7.533466, -43.067062, -88.296051, -631.771484
1733469151.057608, 0.673369, 5.902156, 1.337611, -0.340433, -1.578678, 7.903088, -46.899490, -87.498795, -632.246216
1733469151.067604, -0.566528, 6.297199, 1.458817, -0.443792, -1.400924, 8.275900, -50.871811, -86.484619, -632.565186
1733469151.077603, -2.187253, 6.697929, 1.653645, -0.569523, -1.207468, 8.635672, -54.955002, -84.544678, -632.421265
1733469151.087647, -4.071340, 6.925528, 2.099565, -0.723464, -1.013687, 8.960467, -58.462738, -82.258240, -632.891357
1733469151.097602, -5.958420, 7.044190, 2.534711, -0.914237, -0.901857, 9.211876, -61.992188, -79.642410, -632.709351
1733469151.107607, -7.658004, 7.545626, 2.728193, -1.159328, -0.955074, 9.433490, -65.358276, -76.589569, -632.596497
1733469151.117662, -9.744101, 8.128464, 2.228702, -1.368734, -1.152256, 9.696041, -68.688736, -73.182190, -632.646729
1733469151.127599, -13.378350, 8.212112, 1.798045, -1.475673, -1.379745, 9.919446, -71.682205, -69.317551, -632.421448
1733469151.137618, -18.559851, 7.220463, 1.900248, -1.457385, -1.884030, 9.878966, -74.662796, -65.420410, -632.072876
1733469151.147645, -24.277803, 4.052785, 1.267730, -1.270194, -2.802534, 9.300155, -76.977859, -61.121658, -630.519592
1733469151.156894, -29.827413, -0.073921, -1.082478, -0.842877, -3.932847, 8.212799, -78.561356, -57.473709, -629.114197
1733469151.167614, -34.976443, -4.774188, -4.538209, -0.251701, -4.578230, 6.830377, -79.695175, -54.554337, -627.030029
1733469151.177607, -38.389677, -9.279177, -7.168689, 0.205025, -4.333198, 5.129522, -79.975464, -52.358551, -624.794128
1733469151.187615, -38.553680, -10.662278, -8.866028, 0.360388, -3.363931, 3.371743, -79.643723, -51.224579, -623.402100
1733469151.197610, -35.904645, -9.508273, -9.671527, 0.397634, -1.851022, 1.988542, -79.249054, -50.472992, -622.678467
1733469151.207602, -32.204407, -7.712472, -8.383596, 0.444643, -0.270675, 1.195676, -79.463074, -49.976242, -622.790833
1733469151.217611, -29.532328, -7.157466, -5.752518, 0.491510, 0.748833, 0.817166, -79.878967, -49.789490, -623.416138
1733469151.227613, -28.211177, -7.569418, -3.755904, 0.526736, 1.049552, 0.562084, -80.087906, -49.659286, -624.178345
1733469151.237608, -28.144439, -8.530092, -2.857929, 0.553552, 0.869486, 0.288285, -80.406525, -49.988068, -624.451660
1733469151.247607, -28.543223, -10.409839, -3.376273, 0.551826, 0.579619, -0.193385, -80.624313, -50.257629, -624.172424
1733469151.257602, -28.479178, -12.161946, -4.350264, 0.549047, 0.505701, -0.889500, -80.702240, -50.893585, -624.814331
1733469151.267606, -27.281928, -12.818855, -4.779575, 0.509223, 0.672410, -1.708658, -80.595169, -51.856903, -625.627625
1733469151.277609, -25.131935, -11.851298, -4.576516, 0.463466, 0.894968, -2.496605, -80.543030, -53.407211, -625.586121
1733469151.287614, -22.621764, -9.703250, -3.933524, 0.450012, 1.019239, -3.127856, -79.666855, -55.145782, -626.597839
1733469151.297612, -20.186711, -7.730428, -3.409642, 0.473678, 1.015733, -3.554648, -79.067154, -57.004684, -626.671326
1733469151.307605, -18.295591, -6.371120, -3.070713, 0.524307, 0.968875, -3.795371, -78.744461, -58.979324, -626.968140
1733469151.317606, -16.993445, -5.541829, -2.807650, 0.555458, 0.967806, -3.937581, -77.809937, -60.936005, -627.344055
1733469151.327594, -16.250344, -5.069572, -2.602946, 0.543512, 1.055709, -4.064184, -77.055862, -62.910034, -628.002197
1733469151.337606, -15.830761, -4.694431, -2.557905, 0.507161, 1.214970, -4.207271, -76.053055, -64.900116, -628.575562
1733469151.347654, -15.399655, -4.556914, -2.624045, 0.476380, 1.468494, -4.420006, -74.902130, -67.080383, -628.959290
1733469151.357596, -14.978574, -4.236091, -2.495506, 0.502673, 1.752876, -4.697278, -73.752808, -69.070358, -629.867676
1733469151.367600, -14.426412, -3.748721, -2.069039, 0.581740, 1.965919, -5.032408, -72.073257, -71.402985, -630.611328
1733469151.377593, -13.488783, -3.374627, -1.421557, 0.702160, 2.093066, -5.432652, -70.106964, -73.749023, -631.072144
1733469151.387649, -12.298266, -2.472312, -0.528670, 0.828832, 2.074786, -5.849075, -67.851852, -75.905121, -631.407898
1733469151.397595, -10.898406, -1.304990, 0.180613, 0.946139, 1.937612, -6.238094, -65.523270, -78.184402, -631.517822
1733469151.407592, -9.375694, -0.131083, 0.880767, 1.047291, 1.726533, -6.576958, -62.791214, -80.362762, -631.699219
1733469151.417590, -7.921815, 1.111957, 1.460613, 1.109412, 1.439438, -6.840323, -59.756454, -82.597687, -631.348999
1733469151.427631, -6.595277, 2.168997, 1.633145, 1.127961, 1.117586, -7.007102, -56.692749, -84.355759, -630.972778
1733469151.437603, -5.330091, 2.776526, 1.535431, 1.115389, 0.852494, -7.105759, -53.478317, -85.856552, -630.790283
1733469151.447586, -4.177283, 3.067421, 1.482160, 1.088161, 0.663134, -7.138904, -50.414017, -87.333435, -630.097473
1733469151.457600, -3.195062, 2.881422, 1.509544, 1.029150, 0.511381, -7.134664, -47.397491, -88.492264, -630.326294
1733469151.467650, -2.513762, 2.454506, 1.446397, 0.951499, 0.358550, -7.210984, -43.863068, -89.343857, -629.692139
1733469151.477606, -2.179621, 2.631527, 1.367538, 0.891710, 0.170311, -7.369844, -40.346512, -90.182816, -629.324707
1733469151.487601, -1.863138, 3.233519, 1.146224, 0.870788, -0.056414, -7.557633, -36.592056, -90.422104, -629.236877
1733469151.497306, -1.492186, 4.058770, 0.707038, 0.865720, -0.198377, -7.784223, -32.635803, -90.456924, -628.721069
1733469151.507586, -0.863259, 5.450550, 0.370802, 0.868180, -0.247537, -7.994484, -28.910294, -89.851837, -628.136780
1733469151.517589, 0.183007, 6.754941, 0.159065, 0.809903, -0.082163, -8.139316, -24.911118, -89.219009, -627.884460
1733469151.527613, 1.958607, 7.411999, 0.188543, 0.771021, -0.061215, -8.038211, -20.951889, -88.023224, -627.673157
1733469151.537597, 4.658668, 8.327632, 0.458490, 0.727219, -0.154661, -7.681039, -17.664978, -86.656509, -626.621094
1733469151.547590, 7.768735, 9.258827, 0.800711, 0.636631, -0.363717, -7.084531, -14.471405, -85.321747, -626.307251
1733469151.557597, 10.863241, 9.603143, 1.369034, 0.460922, -0.672997, -6.302372, -12.156128, -83.961258, -626.448181
1733469151.567589, 12.867936, 9.217527, 1.236156, 0.286217, -0.833642, -5.509275, -10.232574, -82.385391, -626.204285
1733469151.577591, 13.754240, 8.460959, -0.071227, 0.160797, -0.549329, -4.842067, -8.813492, -80.874130, -626.735535
1733469151.587587, 14.549863, 8.139089, -1.068712, -0.009547, -0.012888, -4.301210, -7.689056, -79.517838, -626.787720
1733469151.597583, 15.766865, 8.476821, -0.903811, -0.276302, 0.703641, -3.880144, -6.788406, -78.468018, -626.894592
1733469151.607581, 17.359758, 8.973468, -0.720206, -0.546845, 1.498349, -3.605465, -6.336609, -77.524445, -626.735168
1733469151.617592, 19.568708, 9.601497, 0.004040, -0.742179, 2.048349, -3.390889, -4.903168, -76.039001, -626.584961
1733469151.627593, 22.549190, 10.526706, 1.342549, -0.764145, 2.066886, -3.043070, -4.190369, -75.020157, -625.677185
1733469151.637585, 25.900773, 11.850400, 2.821267, -0.600088, 1.501590, -2.500088, -3.351334, -74.081146, -625.557617
1733469151.647593, 28.817210, 13.061567, 4.096329, -0.340574, 0.546767, -1.795905, -2.942245, -73.515854, -624.562012
1733469151.657608, 30.691870, 13.459902, 4.615422, -0.076783, -0.482734, -0.985495, -2.699387, -73.052750, -625.700317
1733469151.667591, 30.998028, 13.405584, 4.188207, 0.092423, -1.148560, -0.179453, -2.550018, -72.749817, -625.538635
1733469151.677592, 29.895648, 12.943204, 3.028366, 0.119285, -1.342091, 0.589594, -2.556183, -72.903671, -626.311035
1733469151.687585, 28.445360, 12.362460, 2.028787, 0.024099, -1.202548, 1.328507, -2.761688, -73.258575, -626.407104
1733469151.697591, 27.252898, 11.655722, 1.513584, -0.147726, -0.968375, 2.116388, -3.508957, -74.085464, -626.969727
1733469151.707584, 25.987114, 11.103559, 1.333570, -0.346635, -0.757788, 2.921083, -4.119553, -75.158371, -627.385193
1733469151.717583, 23.884855, 10.524761, 0.984765, -0.503425, -0.563551, 3.645965, -5.293442, -76.313538, -627.980652
1733469151.727155, 21.164144, 9.743952, 0.307056, -0.503425, -0.563551, 3.645965, -5.293442, -76.313538, -627.980652
1733469151.737600, 18.407520, 8.870966, -0.273388, -0.665252, -0.002402, 4.594872, -8.174652, -79.129578, -628.566528
1733469151.747590, 16.145449, 8.053047, -0.410306, -0.680823, 0.220434, 4.852881, -10.081909, -80.626587, -628.173950
1733469151.757598, 14.676307, 7.455843, -0.067337, -0.660320, 0.267029, 5.064206, -11.755020, -81.980042, -628.939270
1733469151.767582, 13.540707, 6.973262, 0.488118, -0.633665, 0.178188, 5.244761, -13.827927, -83.108963, -629.300659
1733469151.777590, 12.463466, 6.514323, 0.963965, -0.610586, 0.002162, 5.417071, -16.081924, -84.523010, -629.684875
1733469151.787588, 11.485434, 6.058827, 1.453430, -0.602442, -0.254825, 5.609978, -18.175888, -85.660217, -629.604126
1733469151.797581, 10.519673, 5.734562, 1.776348, -0.609002, -0.503402, 5.806979, -20.696915, -86.570953, -629.979248
1733469151.807578, 9.637709, 5.548113, 1.845481, -0.642371, -0.682380, 6.035498, -23.464798, -87.490677, -630.384827
1733469151.817576, 8.847024, 5.380370, 1.859098, -0.699212, -0.811830, 6.252087, -26.415894, -88.025787, -630.613220
1733469151.827585, 7.898172, 5.068824, 1.763778, -0.742686, -0.923206, 6.448710, -26.415894, -88.025787, -630.613220
1733469151.837588, 7.200262, 4.924723, 1.545607, -0.733572, -1.038924, 6.719120, -29.415817, -88.686920, -631.079407
1733469151.847581, 6.395810, 5.182848, 1.378013, -0.678055, -1.176954, 7.033423, -32.665817, -88.989777, -631.379211
1733469151.857584, 5.294927, 5.390545, 1.285986, -0.590008, -1.312855, 7.375670, -36.122467, -89.059616, -631.346191
1733469151.867192, 4.128501, 5.639692, 1.235707, -0.506277, -1.409183, 7.753092, -39.411224, -89.064148, -632.448914
1733469151.877577, 2.759467, 5.959916, 1.378312, -0.503588, -1.410434, 8.154196, -42.893738, -88.339828, -632.213379
1733469151.886899, 1.351228, 6.496816, 1.520318, -0.643912, -1.283395, 8.573170, -46.814499, -87.372559, -632.434326
1733469151.897580, -0.110433, 7.262661, 1.517475, -0.899740, -1.069800, 8.989513, -51.216461, -86.117661, -632.203003
1733469151.907578, -1.769165, 8.188918, 1.490091, -1.194721, -0.877172, 9.408434, -54.916199, -84.239899, -632.398193
1733469151.917576, -3.741239, 9.181015, 1.507898, -1.481404, -0.827295, 9.790241, -58.469543, -81.822220, -632.564392
1733469151.927585, -6.286126, 9.632771, 1.415871, -1.701698, -0.910757, 10.005914, -62.621170, -79.032730, -633.072510
1733469151.937575, -9.065794, 8.836101, 0.749984, -1.779871, -0.958318, 10.013454, -66.239639, -75.665573, -633.464172
1733469151.947577, -12.216713, 7.549666, -0.557849, -1.807333, -0.701680, 9.860301, -69.741959, -71.787247, -633.959045
1733469151.957572, -16.031874, 6.190508, -1.950377, -1.996535, -0.114131, 9.395452, -72.311844, -67.793030, -633.526245
1733469151.967575, -19.959412, 4.127304, -2.483835, -2.353610, 0.182861, 8.496615, -74.625107, -63.670898, -634.690979
1733469151.977576, -23.458687, 1.803133, -2.511667, -2.442113, -0.189517, 7.261319, -76.630508, -59.891022, -635.178833
1733469151.987577, -25.948058, -0.406116, -3.969137, -1.977502, -1.047773, 5.890192, -77.681488, -56.457565, -635.330688
1733469151.997638, -27.252300, -2.638859, -6.342988, -1.092303, -1.987806, 4.572320, -78.628250, -53.632385, -635.017944
1733469152.007576, -27.653328, -4.348169, -7.693767, -0.185345, -2.812485, 3.439438, -78.997437, -51.614410, -633.780212
1733469152.017575, -27.462690, -4.918887, -7.791929, 0.441464, -3.247642, 2.597980, -78.713745, -50.150192, -632.271606
1733469152.027595, -26.819099, -4.455011, -7.653515, 0.783224, -3.105390, 2.119257, -78.804138, -48.802063, -630.246338
1733469152.037621, -26.400712, -4.159776, -7.279421, 0.782824, -2.512010, 1.871624, -79.289627, -47.932404, -628.936401
1733469152.047578, -26.778697, -4.879682, -6.717531, 0.509496, -1.588482, 1.629786, -79.283813, -47.078888, -627.343811
1733469152.057580, -27.804462, -6.103419, -6.811803, 0.163890, -0.479793, 1.264681, -79.689941, -46.621078, -627.421509
1733469152.067574, -28.811224, -7.529764, -7.074118, -0.137276, 0.478185, 0.734557, -79.969070, -45.934341, -627.175537
1733469152.077623, -29.447783, -8.995764, -7.095666, -0.309710, 1.128430, 0.028747, -79.891068, -45.967941, -627.982178
1733469152.087585, -29.474568, -10.022278, -7.428460, -0.302098, 1.486889, -0.779035, -80.243546, -46.114151, -628.740967
1733469152.097567, -28.410794, -10.336666, -7.714716, -0.140894, 1.614644, -1.563500, -80.250824, -46.862289, -629.967041
1733469152.107567, -26.225337, -10.070162, -7.785645, 0.109465, 1.590571, -2.234173, -80.028046, -47.793976, -630.229309
1733469152.117617, -23.543232, -9.257031, -7.546374, 0.388116, 1.434759, -2.708866, -79.674469, -49.022263, -631.267700
1733469152.127579, -21.010915, -7.771279, -7.116016, 0.652406, 1.256363, -3.011026, -79.383179, -50.339890, -631.762573
1733469152.136950, -18.965668, -6.575226, -6.709002, 0.871627, 1.090003, -3.209458, -78.941879, -52.055984, -632.217773
1733469152.147567, -17.548451, -5.893776, -6.030844, 0.997821, 0.955791, -3.376766, -78.699371, -53.657257, -632.273193
1733469152.157615, -16.765996, -5.496040, -5.494244, 1.063287, 0.904968, -3.579504, -78.099930, -55.687302, -632.984375
1733469152.167569, -16.324714, -5.265448, -5.281758, 1.127046, 0.925166, -3.829477, -77.631012, -57.596390, -633.498535
1733469152.177574, -16.253038, -5.003881, -5.047875, 1.190477, 0.997415, -4.152727, -76.661545, -59.491852, -633.615234
1733469152.187576, -16.111630, -4.862773, -4.650288, 1.238973, 1.080606, -4.540370, -76.016266, -61.558411, -633.774292
1733469152.197612, -15.487342, -4.783166, -4.143316, 1.262895, 1.136338, -4.936170, -74.872604, -63.986267, -634.363708
1733469152.207565, -14.601787, -4.386327, -3.525312, 1.281925, 1.164881, -5.327713, -73.507950, -66.320496, -634.216553
1733469152.217561, -13.565696, -3.746028, -3.170073, 1.336087, 1.192929, -5.682378, -71.942245, -68.936371, -634.694031
1733469152.227575, -12.377574, -2.823512, -2.907159, 1.446078, 1.206583, -6.003502, -70.304550, -71.209229, -634.693481
1733469152.237577, -10.980108, -1.976862, -2.558504, 1.595940, 1.196587, -6.265696, -68.176483, -73.836960, -634.237976
1733469152.247577, -9.618556, -1.090110, -1.976413, 1.753193, 1.124942, -6.465800, -66.190994, -76.343796, -633.710571
1733469152.257571, -8.484602, -0.213533, -1.201141, 1.882017, 1.046022, -6.639750, -63.649887, -78.633484, -633.927917
1733469152.267563, -7.308450, 0.364218, -0.453701, 1.966960, 0.918831, -6.800041, -60.950287, -80.997055, -633.124573
1733469152.277559, -6.134842, 0.621445, 0.364368, 2.000736, 0.699437, -6.942944, -58.299759, -83.007446, -632.301941
1733469152.287628, -5.006276, 0.712125, 1.189170, 1.969168, 0.384933, -7.086116, -55.195435, -84.840042, -631.641602
1733469152.297561, -4.102913, 0.787094, 1.843984, 1.866465, 0.006305, -7.235999, -52.088715, -86.497253, -631.058594
1733469152.307569, -3.537134, 1.069909, 2.138172, 1.710266, -0.285399, -7.395865, -48.844788, -87.802460, -630.409546
1733469152.317565, -3.033005, 1.557428, 2.149544, 1.514275, -0.476306, -7.564757, -45.076660, -88.787430, -629.184448
1733469152.327564, -2.468871, 2.234838, 2.105251, 1.311161, -0.610524, -7.744144, -41.699570, -89.610519, -628.698914
1733469152.337556, -1.788918, 2.811840, 1.715595, 1.159791, -0.743461, -7.900834, -38.131119, -90.260529, -628.671387
1733469152.347574, -0.812532, 3.443461, 1.247678, 1.080594, -0.847863, -7.970649, -34.028763, -90.406738, -626.907227
1733469152.357559, 0.212635, 4.168455, 0.719308, 1.010474, -0.825454, -7.980321, -30.291092, -90.140244, -627.092957
1733469152.367624, 1.056591, 4.658219, 0.219818, 0.907228, -0.647016, -7.956470, -26.618073, -89.498489, -626.619263
1733469152.377560, 1.929727, 5.271284, 0.097863, 0.747882, -0.359501, -7.866224, -22.806366, -88.653748, -626.020630
1733469152.387564, 2.707244, 6.030096, 0.000150, 0.541093, 0.033873, -7.781167, -19.153564, -87.478668, -625.916870
1733469152.397576, 3.688866, 6.577919, -0.180912, 0.390723, 0.429720, -7.658657, -15.777832, -85.948624, -625.783569
1733469152.407574, 5.831078, 7.600244, 0.279074, 0.299887, 0.559149, -7.304092, -12.612808, -84.235596, -625.684265
1733469152.417565, 8.817695, 8.733150, 1.684770, 0.167587, 0.252690, -6.714754, -10.133331, -82.486420, -625.456055
1733469152.427578, 11.721114, 9.371803, 2.968660, -0.033313, -0.269867, -5.988100, -7.777298, -80.876221, -625.611328
1733469152.436941, 14.344410, 9.146599, 2.826954, -0.227087, -0.732874, -5.172063, -5.913223, -79.109344, -625.753418
1733469152.447619, 15.781979, 8.647856, 1.204283, -0.309595, -0.827869, -4.389649, -4.686218, -77.651932, -625.570496
1733469152.457559, 16.161909, 8.189516, -1.190218, -0.322061, -0.363345, -3.738365, -3.638641, -76.114807, -626.503052
1733469152.467555, 16.491860, 8.014590, -2.857180, -0.440344, 0.618411, -3.286359, -3.270844, -74.978867, -626.392273
1733469152.477569, 17.321899, 8.760384, -3.033902, -0.656977, 1.731815, -2.920857, -2.369675, -73.912155, -626.140320
1733469152.487567, 19.153314, 10.066720, -1.664569, -0.795003, 2.438289, -2.554798, -1.857361, -72.902649, -625.341797
1733469152.497563, 21.541829, 11.060763, 0.147393, -0.762953, 2.599813, -2.112082, -1.307190, -72.001511, -624.817200
1733469152.507573, 24.033146, 12.090569, 2.052579, -0.571750, 2.126060, -1.588426, -0.899963, -71.612503, -623.990967
1733469152.517563, 25.876232, 12.883349, 4.083012, -0.324713, 1.204956, -1.028313, -0.748413, -71.219391, -623.524109
1733469152.527573, 26.947338, 12.939014, 5.303007, -0.132946, 0.184491, -0.453811, -0.481506, -70.949295, -623.410034
1733469152.537573, 26.935068, 12.762890, 5.197363, -0.008700, -0.535919, 0.079995, -0.564346, -70.713577, -623.482300
1733469152.547571, 26.078542, 12.589909, 4.083760, 0.039224, -0.830182, 0.591992, -0.450378, -70.937820, -623.364014
1733469152.557570, 25.485379, 12.243498, 3.144934, -0.000553, -0.864771, 1.198488, -0.503326, -71.469131, -624.295227
1733469152.567362, 25.176676, 11.976096, 2.798822, -0.127371, -0.792072, 1.931200, -0.933960, -72.236435, -624.753662
1733469152.577553, 24.471285, 11.407473, 2.505233, -0.286342, -0.674949, 2.739163, -1.476089, -73.091995, -624.833923
1733469152.587560, 22.941240, 10.725425, 2.101361, -0.449546, -0.488301, 3.502718, -2.471588, -74.332901, -625.236023
1733469152.597565, 20.451420, 10.019135, 1.587356, -0.617162, -0.188815, 4.097840, -3.775620, -75.886993, -625.842896
1733469152.607548, 17.947684, 9.273940, 1.220744, -0.792815, 0.141147, 4.537876, -5.625107, -77.338181, -626.156006
1733469152.617596, 15.926379, 8.671948, 1.283442, -0.955477, 0.376618, 4.859379, -7.008789, -78.904953, -625.983887
1733469152.627546, 14.341866, 8.152107, 1.713650, -1.085598, 0.418233, 5.113399, -8.782349, -80.376694, -626.517578
1733469152.637550, 13.117681, 7.614010, 2.229750, -1.178678, 0.285487, 5.315300, -10.796539, -81.688889, -626.855957
1733469152.647560, 12.127230, 7.056460, 2.717569, -1.250012, -0.006220, 5.493765, -13.121826, -83.298096, -626.934875
1733469152.657554, 11.283872, 6.608894, 3.009661, -1.283079, -0.381766, 5.687052, -15.376205, -84.337280, -628.056091
1733469152.667565, 10.289381, 6.374263, 2.893243, -1.270983, -0.723362, 5.874758, -17.731812, -85.433594, -629.036804
1733469152.677592, 9.241768, 6.128408, 2.523339, -1.226719, -1.002851, 6.083731, -20.417664, -86.505951, -629.683716
1733469152.687545, 8.414721, 5.853823, 2.191293, -1.159875, -1.245807, 6.311759, -23.262390, -87.386139, -630.344604
1733469152.697545, 7.478887, 5.645228, 1.751359, -1.048562, -1.405532, 6.536538, -26.298111, -88.067093, -630.957581
1733469152.707626, 6.654085, 5.621436, 1.421857, -0.915341, -1.563917, 6.813969, -29.723877, -88.626724, -631.521423
1733469152.717543, 5.976676, 5.711218, 1.436222, -0.789042, -1.761503, 7.141465, -33.060944, -88.655212, -632.035400
1733469152.727571, 5.000589, 5.842002, 1.357662, -0.663068, -1.912131, 7.492890, -36.905426, -88.685699, -632.290527
1733469152.737563, 3.713856, 6.084714, 1.217302, -0.550349, -1.995623, 7.843073, -40.631836, -88.208740, -632.397461
1733469152.747568, 2.520346, 6.393865, 1.159841, -0.465039, -2.006713, 8.220115, -44.506226, -87.758408, -631.774109
1733469152.757555, 1.425747, 6.922385, 1.101033, -0.431328, -1.930236, 8.670527, -48.480392, -86.597977, -632.154541
1733469152.767547, -1.357363, 9.044396, 1.379359, -0.494250, -1.723093, 9.210873, -52.951370, -85.059982, -632.447510
1733469152.777559, -1.357363, 9.044396, 1.379359, -0.708339, -1.455542, 9.754179, -57.352921, -82.597198, -632.152344
1733469152.787546, -5.074211, 10.085874, 1.968932, -1.035704, -1.250929, 10.216745, -61.299759, -80.050140, -632.569275
1733469152.797545, -7.349152, 10.017190, 1.072453, -1.340658, -1.157174, 10.540440, -65.632950, -76.416428, -632.755493
1733469152.807543, -10.180594, 9.304915, -0.564134, -1.477806, -1.002610, 10.715250, -68.903534, -72.700363, -632.948364
1733469152.817543, -14.067730, 8.268974, -1.813608, -1.506857, -0.631877, 10.754975, -72.147858, -68.394501, -632.817688
1733469152.827551, -18.410812, 6.091597, -2.603694, -1.669533, -0.057525, 10.495750, -74.792007, -63.904587, -633.802734
1733469152.837569, -22.683265, 3.268085, -3.154211, -2.030603, 0.528178, 9.776080, -76.488464, -59.556946, -634.010315
1733469152.847557, -27.005996, 1.029656, -3.361309, -2.370109, 0.762982, 8.691514, -77.820755, -55.540359, -634.669800
1733469152.857545, -29.887418, -0.919673, -4.060416, -2.483438, 0.374459, 7.244288, -78.409988, -51.978088, -635.515747
1733469152.867565, -30.752473, -2.147898, -5.793519, -2.228612, -0.578772, 5.723168, -78.592667, -49.053223, -635.152771
1733469152.877555, -30.981568, -3.284695, -7.709778, -1.596851, -1.665930, 4.403374, -78.742355, -46.762863, -633.478821
1733469152.887548, -31.067161, -4.429123, -8.842685, -0.824799, -2.506988, 3.303964, -78.718109, -45.085388, -632.467773
1733469152.897543, -31.276354, -4.900632, -9.182811, -0.196429, -2.939605, 2.432553, -78.973541, -43.893646, -630.996582
1733469152.907543, -31.538519, -5.481674, -9.320926, 0.214207, -2.896260, 1.734917, -78.799042, -43.360489, -629.473999
1733469152.917548, -31.642966, -6.258742, -9.428665, 0.372297, -2.371417, 1.160478, -79.215714, -42.949463, -628.565002
1733469152.927541, -31.583261, -7.243059, -9.431808, 0.266051, -1.453473, 0.615840, -79.524628, -42.671997, -627.952881
1733469152.937546, -31.059529, -8.097340, -9.644144, 0.025874, -0.341631, 0.040269, -79.683456, -42.756699, -628.213806
1733469152.947547, -29.845968, -8.303540, -9.743952, -0.182047, 0.801567, -0.566063, -79.582764, -43.252213, -628.246155
1733469152.957586, -28.006473, -8.070405, -9.219173, -0.276816, 1.721219, -1.163968, -80.012009, -43.934341, -629.950623
1733469152.967553, -25.432706, -8.096591, -8.736442, -0.211234, 2.253154, -1.741064, -79.797134, -45.005264, -631.454895
1733469152.977550, -22.756288, -7.661894, -7.981071, 0.004343, 2.408553, -2.232671, -79.555145, -46.264679, -632.394165
1733469152.987549, -20.494965, -6.692542, -7.034913, 0.309467, 2.261027, -2.607604, -79.265518, -47.618652, -633.423889
1733469152.997543, -18.855535, -5.733963, -6.081721, 0.591437, 1.943981, -2.881794, -78.783905, -49.233185, -634.088074
1733469153.007538, -17.850719, -5.098901, -5.578789, 0.790960, 1.565458, -3.109988, -78.112061, -51.088196, -634.902222
1733469153.017536, -17.263092, -4.748151, -5.598092, 0.938216, 1.275256, -3.341314, -77.613297, -52.800705, -635.608215
1733469153.027534, -16.856377, -4.595520, -5.725733, 1.054096, 1.167553, -3.609112, -77.200562, -54.711212, -636.142456
1733469153.037535, -16.533908, -4.151995, -5.408352, 1.133728, 1.232813, -3.912927, -76.165497, -56.630783, -636.073608
1733469153.046785, -16.168942, -3.715651, -4.740370, 1.174693, 1.374281, -4.233088, -75.676651, -59.021790, -636.274780
1733469153.057545, -15.410578, -3.634997, -3.989638, 1.192397, 1.505688, -4.578947, -74.387543, -61.287674, -636.991211
1733469153.067550, -14.677354, -3.415329, -3.257910, 1.213051, 1.520635, -4.947680, -73.329910, -63.618271, -637.493896
1733469153.077535, -13.929166, -2.841917, -2.819172, 1.259990, 1.432648, -5.323663, -71.798767, -66.195023, -637.642639
1733469153.087170, -13.058874, -2.095525, -2.559701, 1.350206, 1.287332, -5.702488, -70.218277, -68.888718, -638.117554
1733469153.097536, -11.985224, -1.343596, -2.391209, 1.497738, 1.147324, -6.074975, -68.387817, -71.315964, -637.852173
1733469153.107547, -10.686818, -0.377985, -2.008286, 1.677186, 1.023804, -6.383148, -66.313828, -73.830078, -637.744263
1733469153.117537, -9.512612, 0.566229, -1.368436, 1.836333, 0.935538, -6.628739, -63.699387, -76.334686, -636.888062
1733469153.127534, -8.469339, 1.244087, -0.678906, 1.940818, 0.826339, -6.833604, -61.048676, -78.828400, -636.808105
1733469153.137535, -7.380276, 1.306785, -0.130933, 1.998695, 0.715799, -7.018089, -58.569168, -81.198822, -636.285706
1733469153.147545, -6.347178, 1.271321, 0.565331, 1.995417, 0.593239, -7.225272, -55.416504, -83.369308, -634.989380
1733469153.157533, -5.505018, 1.610998, 1.230171, 1.912372, 0.379999, -7.459980, -52.488220, -85.079880, -634.856140
1733469153.167533, -4.688296, 2.115576, 1.532738, 1.778732, 0.113305, -7.693841, -48.668457, -86.505630, -633.862305
1733469153.177530, -3.847931, 2.812439, 1.514931, 1.621312, -0.116769, -7.911565, -44.727859, -87.827362, -633.476379
1733469153.187533, -3.143288, 3.656544, 1.219696, 1.451539, -0.291461, -8.077866, -41.218948, -88.777496, -632.495361
1733469153.197546, -2.405873, 4.373608, 0.617554, 1.319785, -0.414314, -8.200521, -37.504349, -89.203873, -632.123779
1733469153.207537, -1.679981, 4.865616, -0.136170, 1.275783, -0.438269, -8.300106, -33.348831, -89.208008, -631.098145
1733469153.217539, -0.748038, 5.438130, -0.502483, 1.282387, -0.303000, -8.401351, -29.197296, -89.067734, -630.796936
1733469153.227546, 0.459687, 6.277896, -0.344017, 1.271562, -0.118011, -8.459368, -29.197296, -89.067734, -630.796936
1733469153.237539, 1.697639, 7.219565, -0.125696, 1.201711, 0.049514, -8.421225, -21.530716, -87.552948, -628.975464
1733469153.247535, 2.988712, 7.919720, -0.188693, 1.094482, 0.224593, -8.291945, -17.929565, -86.337906, -627.634277
1733469153.257525, 4.769100, 8.527248, 0.182558, 1.030775, 0.429292, -8.097011, -14.404922, -84.892868, -627.851990
1733469153.267538, 7.291392, 9.319879, 1.700482, 1.004171, 0.410511, -7.768247, -11.252380, -83.184128, -627.365112
1733469153.277529, 9.765500, 9.728838, 2.808099, 0.878376, 0.045663, -7.227450, -11.252380, -83.184128, -627.365112
1733469153.287569, 11.649287, 9.308357, 2.269105, 0.616817, -0.403146, -6.532907, -8.508835, -81.339355, -627.623169
1733469153.297527, 12.600833, 8.541464, 0.888249, 0.342582, -0.606472, -5.788623, -6.679276, -79.548172, -627.757080
1733469153.307534, 12.909386, 7.994539, -0.805499, 0.126638, -0.461515, -5.128129, -5.053146, -78.233932, -628.106323
1733469153.317528, 13.459005, 8.071602, -1.925387, -0.099219, 0.230146, -4.604526, -3.762131, -76.427719, -627.658630
1733469153.327532, 14.581287, 8.888923, -1.183334, -0.369384, 1.220474, -4.206373, -2.544876, -74.842087, -627.645813
1733469153.337523, 16.384869, 10.030657, 0.328155, -0.604317, 1.930679, -3.871774, -1.653229, -73.618088, -627.127197
1733469153.347529, 18.603994, 10.993276, 1.514781, -0.683056, 2.205725, -3.555338, -0.681000, -72.197906, -626.513611
1733469153.357538, 20.868460, 11.843517, 2.763807, -0.608955, 2.019467, -3.196208, 0.116898, -71.029572, -625.294983
1733469153.367533, 22.309620, 12.383260, 3.507356, -0.407529, 1.348860, -2.737459, 0.817932, -69.698502, -625.648804
1733469153.377524, 22.709302, 12.704083, 3.662530, -0.118948, 0.470171, -2.338076, 1.050217, -68.764450, -625.464111
1733469153.387528, 23.180361, 12.942306, 3.704129, 0.167916, -0.365104, -2.025874, 1.290390, -67.926041, -625.667908
1733469153.397530, 23.712921, 13.371916, 3.102586, 0.336628, -0.990324, -1.723269, 1.743744, -67.315201, -626.046814
1733469153.407538, 24.637233, 14.005780, 2.371606, 0.410516, -1.227102, -1.378114, 2.182922, -66.328934, -626.017395
1733469153.417544, 26.206931, 14.308048, 2.366818, 0.414071, -1.260008, -0.907019, 2.311707, -66.034393, -626.449524
1733469153.427531, 27.407474, 14.487314, 2.431312, 0.355023, -1.303560, -0.213433, 2.519974, -65.956192, -626.865540
1733469153.437525, 27.420792, 14.253281, 2.064400, 0.271466, -1.365937, 0.664055, 2.606308, -66.321381, -627.570007
1733469153.447535, 26.265589, 13.477560, 1.313818, 0.164845, -1.319932, 1.632368, 2.325211, -66.825668, -627.683899
1733469153.457537, 24.142381, 12.627319, 0.685789, 0.024791, -1.113557, 2.587042, 1.651047, -67.856842, -627.661133
1733469153.467523, 21.550209, 11.903073, 0.277727, -0.134399, -0.803196, 3.436852, 0.803696, -69.054443, -628.532837
1733469153.477535, 19.043031, 11.225364, 0.180164, -0.283247, -0.457382, 4.146076, -0.396286, -70.692154, -628.890503
1733469153.487532, 16.731729, 10.455628, 0.333393, -0.403874, -0.180179, 4.723268, -1.816620, -72.443542, -628.752075
1733469153.497534, 14.612112, 9.668834, 0.619649, -0.497290, -0.008549, 5.153060, -3.174759, -74.402557, -629.269165
1733469153.507533, 12.784887, 8.921843, 0.937629, -0.566179, 0.022286, 5.451200, -5.382355, -76.126297, -629.325195
1733469153.517542, 11.288062, 8.330774, 1.102380, -0.602282, -0.036785, 5.653079, -7.056503, -77.925964, -629.350708
1733469153.527550, 10.121637, 7.808090, 1.321300, -0.606568, -0.176465, 5.811664, -9.134827, -79.551422, -629.696655
1733469153.537536, 9.183260, 7.310096, 1.530044, -0.585512, -0.401261, 5.938004, -11.463898, -81.317993, -630.400513
1733469153.547537, 8.332869, 6.898443, 1.505354, -0.535954, -0.668596, 6.068983, -13.668640, -82.743729, -630.566406
1733469153.557553, 7.472453, 6.545598, 1.320103, -0.459434, -0.911997, 6.216515, -16.461182, -84.157364, -630.875305
1733469153.567526, 6.694786, 6.164620, 1.223437, -0.373747, -1.082235, 6.364996, -19.195053, -85.396591, -631.445251
1733469153.577540, 6.001665, 5.811625, 1.212065, -0.309430, -1.216817, 6.526376, -22.114288, -86.263718, -631.963562
1733469153.587543, 5.224597, 5.606023, 1.234211, -0.258197, -1.340906, 6.702944, -25.225357, -87.296844, -632.464050
1733469153.597530, 4.294001, 5.546318, 1.395371, -0.203032, -1.472459, 6.919874, -28.472458, -87.917526, -632.073669
1733469153.607543, 3.071910, 5.445163, 1.659182, -0.156235, -1.613599, 7.157499, -31.965164, -88.365402, -632.543701
1733469153.617543, 1.793856, 5.131822, 1.959953, -0.144161, -1.729531, 7.373958, -35.662277, -88.378616, -632.712036
1733469153.627528, 0.787692, 4.930709, 2.078317, -0.193362, -1.798151, 7.572927, -39.326859, -88.319885, -632.857117
1733469153.636937, 0.102202, 5.115511, 1.867328, -0.306000, -1.785174, 7.795144, -43.315186, -87.654633, -632.618774
1733469153.647518, -0.587477, 5.602282, 1.404199, -0.452613, -1.668038, 8.073616, -47.253357, -86.865189, -632.627197
1733469153.657589, -1.420061, 6.062867, 1.063026, -0.595505, -1.436559, 8.416023, -50.921677, -85.690201, -632.795776
1733469153.667516, -2.279579, 6.346131, 1.162535, -0.742657, -1.202163, 8.779913, -54.809479, -83.883789, -632.886475
1733469153.677523, -3.370288, 6.868516, 1.370232, -0.896305, -1.093356, 9.171739, -58.511795, -81.569000, -632.833984
1733469153.687509, -5.488857, 7.742100, 1.502960, -1.040236, -1.077761, 9.616472, -61.874130, -78.854202, -633.086365
1733469153.697512, -8.945935, 8.961646, 2.062904, -1.212510, -1.046329, 10.099809, -65.312195, -75.284393, -633.365112
1733469153.706611, -13.745411, 9.254338, 2.959084, -1.496130, -1.223748, 10.433561, -68.978653, -71.362488, -633.193054
1733469153.717524, -19.382409, 7.277625, 2.312500, -1.786732, -1.746164, 10.353784, -72.632324, -67.122513, -633.121277
1733469153.727524, -24.650251, 3.723732, -0.950049, -1.835454, -2.349714, 9.732455, -75.202927, -62.912231, -632.562561
1733469153.737520, -29.808110, -0.911742, -5.344157, -1.561583, -2.598841, 8.679644, -76.931137, -58.997314, -631.770020
1733469153.747240, -34.105552, -5.966500, -9.546430, -1.072941, -2.295199, 7.220422, -77.963516, -55.766220, -630.553162
1733469153.757525, -35.797205, -9.459491, -11.664401, -0.683738, -1.239388, 5.507762, -78.408127, -53.359116, -630.368286
1733469153.767518, -34.105253, -9.864709, -10.916512, -0.609317, 0.176987, 3.843122, -78.528839, -51.524063, -630.555969
1733469153.777512, -31.172655, -7.619547, -7.948301, -0.707435, 1.128616, 2.612008, -78.267654, -50.420227, -630.947998
1733469153.787514, -28.890682, -5.692065, -5.700445, -0.708317, 1.125585, 1.769904, -78.315582, -49.777618, -631.488403
1733469153.797519, -27.433212, -5.029918, -5.051317, -0.536076, 0.388544, 1.156382, -78.459320, -49.125336, -631.613098
1733469153.807524, -26.909330, -5.971289, -6.369325, -0.240719, -0.587158, 0.684236, -78.427597, -48.908340, -631.135132
1733469153.817511, -27.216836, -8.133103, -8.925434, 0.056667, -1.122685, 0.200627, -79.005295, -48.813248, -630.634766
1733469153.827511, -27.410916, -10.041581, -10.943896, 0.258732, -0.972441, -0.365285, -79.148727, -49.137802, -630.672668
1733469153.837511, -26.568007, -11.155334, -11.995699, 0.355208, -0.251761, -1.013349, -79.203583, -49.729172, -630.449219
1733469153.847505, -24.417415, -10.879402, -11.355100, 0.401734, 0.755472, -1.660531, -78.895721, -50.986115, -630.724487
1733469153.857516, -21.733066, -9.392603, -9.337686, 0.447866, 1.541189, -2.159863, -78.756653, -52.139481, -631.720642
1733469153.867511, -19.348741, -7.574805, -7.208343, 0.510609, 1.871051, -2.493585, -78.375473, -53.348526, -632.647034
1733469153.877519, -17.679384, -6.379350, -5.831976, 0.618080, 1.762373, -2.693538, -77.773071, -54.784042, -633.397034
1733469153.887506, -16.637756, -6.188413, -5.210531, 0.751384, 1.438699, -2.878912, -77.228271, -56.607635, -633.696594
1733469153.897498, -16.180464, -6.381894, -5.191228, 0.879677, 1.056317, -3.088395, -76.509430, -58.217026, -634.373169
1733469153.907500, -16.159066, -6.348675, -5.527912, 0.977609, 0.851006, -3.355130, -76.102493, -59.595505, -634.325073
1733469153.917503, -16.230742, -6.005406, -5.796512, 1.021806, 0.900291, -3.680861, -75.096344, -61.644012, -634.884216
1733469153.927506, -15.958252, -5.509956, -5.888988, 1.038190, 1.190340, -4.061127, -74.013901, -63.569870, -635.178772
1733469153.937511, -15.214852, -4.777031, -5.409848, 1.070616, 1.582989, -4.429019, -73.012848, -65.861954, -635.544861
1733469153.947528, -14.160057, -4.301931, -4.551677, 1.126029, 1.878041, -4.782771, -71.274918, -68.125092, -635.936279
1733469153.957507, -12.917466, -3.882497, -3.755754, 1.223216, 1.986047, -5.149667, -69.711884, -70.300339, -636.599731
1733469153.967504, -11.649287, -3.108572, -2.892196, 1.372442, 1.923040, -5.488174, -67.841721, -72.679840, -636.757812
1733469153.977510, -10.526557, -2.306664, -2.049287, 1.545174, 1.733095, -5.825803, -65.727249, -74.926529, -636.916382
1733469153.987506, -9.453805, -1.122282, -1.351976, 1.844744, 1.184274, -6.396473, -63.097595, -77.244293, -636.329590
1733469153.997516, -8.371625, -0.172682, -0.998831, 1.959238, 0.995711, -6.629251, -60.817657, -79.369339, -635.966370
1733469154.007498, -7.299622, 0.282665, -0.739359, 2.043105, 0.893870, -6.847544, -57.761169, -81.765121, -635.673218
1733469154.017508, -6.124966, 0.717363, -0.349703, 2.075787, 0.796443, -7.026758, -54.922775, -83.569397, -634.506653
1733469154.027510, -5.107431, 1.308132, 0.198419, 2.065259, 0.666952, -7.175888, -51.696259, -85.239761, -633.995178
1733469154.037497, -4.174141, 1.684171, 0.655113, 2.002964, 0.527126, -7.335176, -48.582413, -86.741089, -633.362183
1733469154.047500, -3.267038, 1.752855, 1.065869, 1.893363, 0.331937, -7.504256, -44.902405, -88.035538, -631.915588
1733469154.057504, -2.530821, 1.916259, 1.397914, 1.750186, 0.127689, -7.689591, -41.647491, -88.681076, -631.576904
1733469154.067498, -2.013973, 2.358289, 1.272817, 1.620012, 0.025439, -7.884912, -37.779953, -89.305267, -630.847351
1733469154.077505, -1.420510, 3.123685, 0.762104, 1.546552, 0.011210, -8.042358, -33.655304, -89.503571, -630.001465
1733469154.087509, -0.576703, 4.154838, 0.326360, 1.572759, 0.040206, -8.120125, -30.052002, -89.413528, -629.276306
1733469154.097500, 0.584784, 5.304354, 0.229245, 1.626122, 0.070414, -8.139121, -26.178787, -89.022522, -628.505737
1733469154.107498, 2.202217, 6.097732, 0.768688, 1.648097, -0.044670, -8.060866, -22.441833, -88.258667, -627.755005
1733469154.117502, 4.395006, 6.699724, 1.815403, 1.557480, -0.347768, -7.842272, -19.183670, -87.122360, -627.103271
1733469154.127497, 6.758083, 7.230339, 2.888604, 1.319265, -0.729657, -7.526050, -15.809464, -85.570724, -626.438110
1733469154.137499, 8.490887, 7.579444, 3.361609, 0.943009, -0.969788, -7.140490, -12.859909, -84.000320, -625.529724
1733469154.147496, 9.568726, 7.742399, 2.952200, 0.532856, -0.988858, -6.702956, -9.946075, -82.469223, -625.429749
1733469154.157510, 10.140491, 7.732224, 2.146402, 0.166755, -0.799208, -6.273306, -7.778748, -80.608856, -626.360840
1733469154.167500, 10.660781, 7.609521, 1.197999, -0.123333, -0.450234, -5.879461, -5.887009, -78.734680, -626.455444
1733469154.177496, 11.947216, 7.931990, 0.676961, -0.397221, -0.021113, -5.436628, -3.844254, -76.714249, -626.078674
1733469154.187509, 13.743615, 8.390929, 0.726341, -0.686230, 0.358226, -4.948238, -2.422363, -74.926575, -626.344604
1733469154.197501, 15.395465, 8.901342, 0.806996, -0.910580, 0.711653, -4.486475, -1.375320, -73.227814, -626.725769
1733469154.207504, 17.104476, 9.660753, 0.639850, -1.039274, 0.974203, -4.000391, 0.015091, -71.624573, -626.516663
1733469154.217500, 18.781315, 10.563816, 0.676212, -1.008807, 0.997983, -3.473691, 0.789413, -70.082977, -626.737305
1733469154.227501, 19.969437, 10.976517, 0.718410, -0.851584, 0.806128, -2.953953, 1.296082, -68.627380, -626.854980
1733469154.237518, 20.421792, 11.112687, 0.659303, -0.597467, 0.499441, -2.510639, 1.862823, -67.725388, -626.337097
1733469154.247498, 20.439150, 11.537807, 0.611120, -0.329561, 0.161014, -2.148015, 2.232025, -66.696060, -626.007019
1733469154.257491, 20.942980, 11.995100, 0.930896, -0.136036, -0.205847, -1.779364, 2.632050, -65.926941, -626.950012
1733469154.267494, 21.622933, 12.350190, 1.097143, 0.009724, -0.513893, -1.427807, 2.813782, -65.392242, -626.987122
1733469154.277492, 22.032940, 13.012785, 0.875230, 0.143213, -0.733366, -1.053866, 3.210266, -64.708130, -627.095337
1733469154.287509, 22.703915, 13.637373, 0.719757, 0.234984, -0.922184, -0.596045, 3.157608, -64.280396, -627.565552
1733469154.297508, 23.544878, 13.916447, 0.584933, 0.261497, -1.059569, 0.007395, 3.396912, -64.236328, -628.019104
1733469154.307493, 24.214656, 14.043938, 0.118663, 0.255934, -1.090314, 0.776823, 3.413498, -64.697037, -628.150696
1733469154.317547, 24.410382, 13.971065, -0.429759, 0.210637, -1.000395, 1.679625, 3.292175, -65.332199, -628.581543
1733469154.327490, 23.842358, 13.450775, -0.863559, 0.106162, -0.776224, 2.594302, 2.468369, -66.278366, -628.826904
1733469154.337206, 22.284481, 12.861053, -1.161637, -0.049321, -0.440539, 3.419230, 1.849899, -67.672363, -629.196106
1733469154.347490, 20.129550, 12.271481, -1.229423, -0.214501, -0.087420, 4.115514, 0.909790, -69.293961, -628.910522
1733469154.357495, 17.920749, 11.610382, -0.996736, -0.384692, 0.193987, 4.674544, -0.142365, -71.178284, -629.449219
1733469154.367528, 15.848568, 10.861296, -0.721553, -0.517708, 0.361240, 5.098011, -1.857788, -73.016251, -629.315857
1733469154.377483, 13.997700, 10.106823, -0.401029, -0.611002, 0.408599, 5.409583, -3.551239, -74.760468, -629.152344
1733469154.387494, 12.427403, 9.432107, -0.080056, -0.656471, 0.322216, 5.631679, -5.368912, -76.752426, -629.870667
1733469154.397486, 11.343578, 8.979902, 0.375141, -0.653752, 0.084052, 5.820318, -7.209610, -78.544342, -630.096069
1733469154.407519, 10.576236, 8.526949, 0.645387, -0.600861, -0.216666, 5.976573, -9.625214, -80.329956, -630.285828
1733469154.417485, 9.861866, 8.000225, 0.530765, -0.483254, -0.482039, 6.138028, -12.098846, -81.665451, -630.192139
1733469154.427488, 9.218873, 7.600094, 0.348955, -0.333756, -0.706546, 6.329284, -14.376328, -83.424698, -630.889404
1733469154.437486, 8.544307, 7.254132, 0.394445, -0.182482, -0.912845, 6.532321, -17.148987, -84.989075, -631.262634
1733469154.447487, 7.910293, 6.929717, 0.691625, -0.059273, -1.129288, 6.785249, -20.208893, -86.249741, -630.585327
1733469154.457485, 7.236325, 6.710049, 0.942268, 0.043266, -1.338901, 7.075009, -23.337631, -87.124954, -631.411133
1733469154.467483, 6.324433, 6.622960, 1.130063, 0.152735, -1.533971, 7.386019, -27.197464, -88.067307, -631.061096
1733469154.477489, 5.243601, 6.535572, 1.207276, 0.254567, -1.658754, 7.715184, -30.772324, -88.678802, -631.557312
1733469154.487494, 4.067898, 6.388927, 1.172411, 0.331956, -1.673654, 8.055119, -34.908386, -89.079102, -631.225952
1733469154.497484, 3.009661, 6.393267, 1.145775, 0.354341, -1.588578, 8.446239, -38.585526, -88.783768, -630.862305
1733469154.507522, 1.936610, 6.841282, 1.188422, 0.315397, -1.427414, 8.927048, -42.772156, -88.404984, -630.898254
1733469154.516767, 0.467318, 7.614609, 1.535880, 0.174765, -1.180700, 9.428555, -47.354752, -87.335831, -630.426270
1733469154.527499, -1.089661, 8.111705, 2.048539, -0.125775, -0.910144, 9.882939, -51.896408, -85.919495, -630.420288
1733469154.537484, -2.459893, 8.567651, 2.459144, -0.509824, -0.728721, 10.346189, -56.288330, -83.731689, -630.714600
1733469154.547482, -3.969586, 9.541642, 2.345869, -0.830519, -0.651166, 10.814528, -61.037506, -81.024704, -630.233276
1733469154.557487, -6.185420, 10.307637, 1.434576, -0.989464, -0.593378, 11.164418, -64.854919, -77.474442, -631.316772
1733469154.567478, -9.187150, 9.875034, -0.098761, -0.987220, -0.386411, 11.306299, -68.511902, -73.585526, -631.529846
1733469154.577478, -12.934674, 8.676736, -1.539621, -1.021406, 0.064066, 11.179008, -72.102448, -69.160660, -632.194946
1733469154.587525, -17.630602, 6.668301, -2.721309, -1.217234, 0.633437, 10.550781, -75.102417, -64.752792, -632.875732
1733469154.597476, -22.442947, 2.453159, -3.851672, -1.453737, 1.131443, 9.315103, -76.999207, -60.915482, -633.843506
1733469154.607484, -26.260352, -2.318036, -4.864718, -1.459789, 1.112568, 7.674632, -78.131821, -57.266098, -634.313232
1733469154.617495, -28.416780, -5.478083, -5.702240, -1.083897, 0.541030, 5.946592, -78.575058, -54.705505, -634.369690
1733469154.627489, -28.539632, -7.454646, -5.766584, -0.534422, -0.403738, 4.388316, -78.605927, -52.887466, -634.165771
1733469154.637493, -27.006595, -7.200861, -4.433912, -0.088855, -1.582191, 3.244540, -78.443069, -51.226868, -632.390076
1733469154.647480, -25.274539, -4.624251, -2.763058, 0.199014, -2.716588, 2.553540, -78.544815, -50.045441, -630.542358
1733469154.657493, -24.400656, -2.382231, -1.848922, 0.329294, -3.545684, 2.227534, -78.949249, -49.047287, -629.322876
1733469154.667479, -24.892365, -2.018462, -2.440589, 0.340528, -3.756671, 2.004389, -79.276489, -48.230011, -627.822021
1733469154.677492, -26.499772, -4.347272, -4.442890, 0.274766, -3.280889, 1.649989, -79.931427, -47.523468, -626.361450
1733469154.687503, -28.453890, -7.646781, -6.782324, 0.182629, -2.192346, 1.066297, -80.204407, -46.990372, -625.658142
1733469154.697484, -29.886969, -10.005668, -8.277354, 0.040773, -0.835265, 0.313656, -80.541183, -47.088791, -625.533447
1733469154.707471, -29.969419, -10.699388, -8.128165, -0.185922, 0.467020, -0.447640, -80.268707, -47.464630, -625.922058
1733469154.717523, -28.507909, -10.093056, -6.936750, -0.439590, 1.475210, -1.069817, -80.366577, -48.100372, -626.921631
1733469154.727488, -26.056695, -9.085696, -5.909339, -0.634348, 2.141060, -1.525040, -80.366577, -48.100372, -626.921631
1733469154.737491, -23.546674, -8.271817, -5.193472, -0.687049, 2.329684, -1.901177, -80.481552, -48.777878, -628.060120
1733469154.747483, -21.548563, -7.637653, -4.615572, -0.553186, 2.051755, -2.282428, -80.369720, -49.834534, -629.405090
1733469154.757483, -19.958813, -7.375039, -4.578013, -0.278445, 1.531264, -2.647894, -79.844498, -51.037308, -629.749817
1733469154.767548, -18.661904, -7.035362, -4.921431, 0.031717, 0.988254, -2.965290, -79.549026, -52.456772, -630.997559
1733469154.777498, -18.031930, -6.426486, -5.271434, 0.290870, 0.613152, -3.280470, -78.947830, -53.766571, -631.237427
1733469154.787480, -17.905785, -5.944055, -5.823746, 0.486165, 0.534451, -3.604391, -78.610687, -55.365250, -631.627930
1733469154.797528, -17.977312, -5.809381, -6.204574, 0.604336, 0.691545, -3.967731, -78.003952, -57.138245, -631.703918
1733469154.807485, -18.138023, -5.542128, -6.067057, 0.676707, 0.971191, -4.382291, -76.926605, -59.222183, -632.201965
1733469154.817470, -17.940052, -4.967819, -5.528810, 0.730659, 1.248885, -4.802460, -75.934921, -61.642960, -632.470398
1733469154.827544, -17.181689, -4.307169, -4.760870, 0.790247, 1.452556, -5.192233, -75.181458, -63.834915, -632.730103
1733469154.837472, -16.146047, -3.451691, -3.916764, 0.853246, 1.605421, -5.564768, -73.761124, -65.895691, -633.005615
1733469154.847469, -14.981867, -2.586486, -3.183241, 0.929197, 1.700628, -5.903968, -72.060989, -68.617752, -633.507874
1733469154.857467, -13.666253, -1.796100, -2.554464, 1.009417, 1.758007, -6.189508, -69.945297, -71.242508, -633.497498
1733469154.867524, -12.164340, -1.159841, -1.821539, 1.066355, 1.712711, -6.423777, -67.890488, -73.753693, -634.729553
1733469154.877483, -10.775105, -0.763900, -0.946458, 1.087423, 1.577282, -6.652699, -65.695099, -76.079956, -634.454102
1733469154.887468, -9.457396, -0.337433, -0.299275, 1.087725, 1.374832, -6.873337, -63.340820, -78.438873, -634.914551
1733469154.897482, -8.161983, 0.245256, 0.214281, 1.100329, 1.116439, -7.069794, -60.312866, -80.512451, -634.480225
1733469154.907473, -6.960244, 0.867150, 0.592415, 1.124551, 0.825026, -7.231275, -57.292038, -82.530960, -634.600525
1733469154.917482, -5.864148, 1.442207, 0.864008, 1.160814, 0.494146, -7.393218, -54.188766, -84.333679, -634.082947
1733469154.927479, -5.013608, 1.930774, 0.897826, 1.221547, 0.178684, -7.538591, -51.169540, -85.947861, -633.951660
1733469154.937485, -4.307169, 2.425775, 0.758064, 1.291454, -0.068601, -7.688512, -47.485184, -87.378372, -633.315308
1733469154.947481, -3.399766, 2.867954, 0.809240, 1.304265, -0.282452, -7.834326, -44.177536, -88.432693, -632.401733
1733469154.957525, -2.462736, 3.353379, 0.975188, 1.257818, -0.540879, -7.950391, -40.458328, -89.098511, -631.295349
1733469154.967466, -1.643171, 3.933524, 0.826748, 1.175470, -0.676875, -8.004346, -36.483551, -89.520462, -631.165405
1733469154.977476, -0.838569, 4.565294, 0.500837, 1.049497, -0.701860, -8.058689, -32.913879, -89.455368, -630.829529
1733469154.987537, -0.054767, 5.290886, 0.325611, 0.906434, -0.670522, -8.090705, -29.361115, -89.303452, -630.487488
1733469154.997471, 1.068861, 6.168960, 0.120608, 0.768768, -0.596006, -8.062852, -25.576599, -88.664200, -629.800842
1733469155.007463, 2.337639, 7.055413, -0.022446, 0.631161, -0.477010, -7.945560, -21.780502, -87.870270, -629.589111
1733469155.017542, 4.037372, 7.867945, -0.224905, 0.466991, -0.312082, -7.675336, -18.437134, -86.602234, -629.091064
1733469155.027475, 6.190807, 8.484153, -0.641496, 0.278455, 0.031771, -7.257773, -15.385635, -84.971832, -628.996521
1733469155.037481, 8.774300, 9.093627, -1.155352, 0.073243, 0.490995, -6.644796, -12.433838, -83.403214, -629.152466
1733469155.047470, 11.570428, 9.700707, -0.965611, -0.150894, 0.847563, -5.873242, -10.159531, -81.839127, -628.620667
1733469155.057471, 13.925724, 10.023774, -0.018555, -0.361516, 0.941084, -5.060185, -8.016205, -80.341415, -628.381226
1733469155.067464, 15.568296, 9.937733, 0.826748, -0.541681, 0.877652, -4.379861, -7.388123, -78.994476, -628.316040
1733469155.077463, 16.615011, 9.437943, 0.674417, -0.606233, 0.843007, -3.884243, -6.576691, -77.684738, -628.514526
1733469155.087460, 17.401955, 9.349058, -0.151134, -0.575109, 0.992859, -3.614652, -5.896545, -76.624146, -628.958618
1733469155.097461, 18.282124, 9.648782, -0.616357, -0.503870, 1.194558, -3.468050, -4.579529, -75.140594, -628.251831
1733469155.107459, 20.351462, 10.529998, -0.154426, -0.350285, 1.149481, -3.217693, -3.649155, -73.911545, -628.123108
1733469155.117465, 22.727707, 11.575815, 0.758363, -0.123634, 0.843499, -2.895475, -3.007690, -72.833481, -627.859253
1733469155.127476, 24.940099, 12.409596, 1.729063, 0.121127, 0.238805, -2.462844, -2.646698, -72.069626, -627.373047
1733469155.137505, 27.152940, 13.062465, 2.906112, 0.308074, -0.539384, -1.899878, -1.873260, -71.195892, -627.556946
1733469155.147479, 28.460773, 13.230209, 3.133262, 0.423871, -1.163172, -1.243706, -1.347580, -70.531815, -628.023010
1733469155.157473, 28.655751, 13.290662, 2.407220, 0.451150, -1.418054, -0.531439, -1.007065, -70.344467, -628.467102
1733469155.167087, 28.339866, 13.097630, 1.429338, 0.388972, -1.334594, 0.255917, -1.010284, -70.392685, -628.644531
1733469155.177475, 28.092515, 12.772916, 0.737414, 0.290050, -1.115970, 1.165633, -0.931854, -70.704758, -628.943420
1733469155.186847, 27.643003, 12.484714, 0.369904, 0.205174, -0.869747, 2.162195, -1.516907, -71.461334, -629.005676
1733469155.197548, 26.223392, 11.927763, 0.106542, 0.113688, -0.591632, 3.085351, -2.449356, -72.574738, -629.299744
1733469155.207742, 23.950247, 11.090690, -0.028282, 0.004728, -0.294318, 3.864037, -3.596222, -73.975006, -629.670898
1733469155.217501, 21.531953, 10.384700, 0.037260, -0.108010, -0.047591, 4.524310, -5.116348, -75.724304, -630.019958
1733469155.227472, 19.087025, 9.832088, 0.182857, -0.207555, 0.145083, 5.011604, -6.672516, -77.219437, -629.678955
1733469155.237462, 15.152304, 8.777742, 0.934487, -0.315173, 0.222397, 5.369676, -8.486755, -78.911438, -629.933472
1733469155.247459, 13.819781, 8.337807, 1.239748, -0.407973, 0.163239, 5.649073, -10.281784, -80.477188, -629.694214
1733469155.257457, 12.691064, 8.087314, 1.399561, -0.456082, -0.012173, 5.895181, -12.432373, -82.073044, -630.674377
1733469155.267456, 11.640010, 7.772776, 1.400907, -0.451974, -0.256972, 6.138775, -14.958786, -83.562286, -630.659973
1733469155.277387, 10.685771, 7.511209, 1.409287, -0.392450, -0.523499, 6.375489, -17.487442, -84.745575, -630.884766
1733469155.287457, 9.678560, 7.250690, 1.538723, -0.301949, -0.818798, 6.633754, -20.386673, -86.017303, -631.390015
1733469155.297466, 8.460959, 6.823325, 1.546954, -0.221353, -1.084870, 6.863492, -23.668625, -87.151642, -631.542969
