SamplingTime, AccelerationX, AccelerationY, AccelerationZ, GyroX, GyroY, GyroZ, MagneticFieldX, MagneticFieldY, MagneticFieldZ
1733469026.030403, 3.655347, -9.295937, 0.366762, 0.079791, 0.030757, 0.023722, , , 
1733469026.040398, 3.255067, -9.325565, 0.510264, 0.172354, -0.148683, -0.031080, -46.607208, -86.856964, -624.321045
1733469026.050410, 2.026392, -9.733028, 0.829591, 0.199235, -0.350322, -0.166317, -46.654404, -86.837311, -623.928894
1733469026.060445, 1.247379, -10.533141, 1.089212, 0.238573, -0.626604, -0.342276, -46.397049, -87.062881, -624.122742
1733469026.070434, 1.152658, -10.487800, 0.327706, 0.320078, -0.732397, -0.464089, -45.985382, -86.995087, -624.138306
1733469026.080418, 1.007061, -10.449643, -0.672771, 0.460776, -0.698118, -0.571748, -45.625641, -87.062042, -623.712830
1733469026.090414, 0.957232, -10.556334, -1.146823, 0.649777, -0.642978, -0.658952, -45.369568, -87.286774, -622.672241
1733469026.100417, 0.874183, -10.602124, -0.825102, 0.798407, -0.671451, -0.768371, -45.326401, -87.456802, -622.816650
1733469026.110462, 0.613664, -10.907085, -0.265607, 0.883086, -0.791543, -0.935571, -45.053223, -87.726822, -622.057617
1733469026.120419, 0.664241, -11.121216, 0.416292, 0.927494, -1.045093, -1.123660, -44.668777, -87.621170, -622.036255
1733469026.130400, 0.963965, -10.933870, 1.018882, 0.918193, -1.340403, -1.283511, -44.065475, -87.737869, -620.987305
1733469026.140402, 1.183484, -10.621127, 0.622642, 0.897914, -1.481008, -1.428874, -43.188354, -87.878922, -620.139709
1733469026.150415, 1.462708, -10.519673, -0.282366, 0.910639, -1.456837, -1.569080, -42.545959, -87.870590, -620.346924
1733469026.160400, 1.931373, -10.110265, -0.829292, 0.992778, -1.405980, -1.644294, -41.856720, -88.178131, -619.025391
1733469026.170403, 2.541744, -9.786150, -0.871639, 1.127187, -1.419721, -1.720381, -41.076721, -88.120636, -619.185181
1733469026.180457, 2.971055, -9.641151, -0.444124, 1.265720, -1.598086, -1.803081, -40.137146, -88.329803, -617.698975
1733469026.190405, 3.185485, -9.350255, 0.317830, 1.413844, -1.945679, -1.904999, -39.278778, -88.349411, -617.291016
1733469026.200400, 3.268534, -9.056068, 0.840814, 1.549359, -2.363750, -2.006674, -38.610092, -88.222763, -616.975769
1733469026.210398, 3.079841, -8.760234, 1.020379, 1.653163, -2.700434, -2.191533, -37.308960, -88.077835, -615.289856
1733469026.220419, 2.836680, -8.698883, 0.343867, 1.668809, -2.770741, -2.402941, -36.035019, -88.062836, -615.493896
1733469026.230404, 2.895488, -8.724172, -0.548123, 1.648791, -2.645976, -2.576535, -35.013931, -87.921753, -614.345947
1733469026.240407, 3.486706, -8.701277, -0.869095, 1.625936, -2.587168, -2.715481, -33.496002, -87.827774, -613.795349
1733469026.249985, 4.402338, -8.192808, -0.875081, 1.693236, -2.533892, -2.741555, -32.366104, -87.454071, -611.970825
1733469026.260399, 4.931307, -7.326556, -0.856825, 1.781892, -2.474775, -2.748883, -30.802917, -87.033966, -612.022339
1733469026.270415, 5.231331, -6.597672, -0.283863, 1.780530, -2.453676, -2.739710, -29.443878, -86.524231, -611.371643
1733469026.280413, 5.585672, -6.406135, 0.328305, 1.630097, -2.447360, -2.706459, -28.050278, -86.231384, -610.449585
1733469026.290416, 5.765537, -6.213103, 1.194407, 1.392038, -2.638725, -2.655447, -26.546326, -85.800903, -609.885315
1733469026.300406, 5.733814, -6.013486, 1.737592, 1.103715, -2.735607, -2.613943, -25.314880, -85.309998, -610.141724
1733469026.310400, 5.683236, -5.336227, 0.791583, 0.839912, -2.619758, -2.515723, -24.026215, -84.902237, -609.813110
1733469026.319469, 5.240459, -5.112219, -0.196325, 0.694979, -2.341468, -2.466218, -22.646439, -84.436096, -610.531738
1733469026.330395, 5.073313, -4.868310, -1.282544, 0.598372, -1.861279, -2.424721, -21.461716, -83.946152, -610.546936
1733469026.340401, 5.036652, -4.197185, -2.481590, 0.532572, -1.103240, -2.401269, -20.758438, -83.592026, -609.557861
1733469026.350403, 5.256619, -3.805733, -2.915988, 0.487659, -0.450292, -2.431933, -19.715378, -82.944565, -609.901001
1733469026.360400, 6.197241, -3.318513, -2.043152, 0.431686, 0.010932, -2.435217, -19.117889, -82.591782, -609.053528
1733469026.370405, 7.218967, -2.598906, -1.090708, 0.338643, 0.186258, -2.407882, -18.243301, -82.084595, -609.853027
1733469026.380394, 8.094646, -1.777545, 0.306757, 0.221319, -0.059312, -2.370858, -17.246887, -81.547028, -609.667480
1733469026.390395, 8.490887, -0.997933, 1.546654, 0.107396, -0.629862, -2.368940, -16.265396, -81.190292, -609.076233
1733469026.400396, 9.081656, -0.586579, 1.253065, 0.044669, -1.073576, -2.389151, -15.448853, -80.584946, -610.605225
1733469026.410449, 10.118195, -0.037709, 0.188843, 0.057105, -1.486431, -2.356751, -14.409470, -79.878174, -609.893433
1733469026.420409, 10.702381, 0.682796, -0.530914, 0.126119, -1.733306, -2.304896, -13.355377, -79.068680, -610.755615
1733469026.430405, 10.987889, 1.433229, -1.713051, 0.153758, -1.583828, -2.288861, -12.598877, -78.600601, -611.158203
1733469026.440396, 11.366173, 2.440290, -2.530372, 0.117291, -1.169672, -2.359945, -12.254181, -77.936707, -610.826416
1733469026.450412, 12.507609, 3.186383, -2.421436, 0.024807, -0.825353, -2.461976, -11.448303, -76.992096, -611.445557
1733469026.460400, 14.578144, 3.999215, -1.805378, -0.085146, -0.706478, -2.462251, -10.617096, -76.416428, -610.671387
1733469026.470414, 17.545159, 5.670367, -1.769465, -0.077326, -0.761510, -2.201954, -10.012268, -75.893387, -611.779663
1733469026.480397, 20.997448, 7.459734, -1.921646, 0.107223, -1.041485, -1.650289, -9.360458, -75.501007, -611.763489
1733469026.490416, 23.711425, 8.541314, -1.771260, 0.307187, -1.460466, -0.881482, -9.152298, -75.318573, -611.770996
1733469026.500401, 25.093927, 9.131335, -1.953669, 0.463854, -1.751541, -0.007560, -9.355087, -75.370438, -612.612305
1733469026.510403, 24.818743, 9.165453, -2.738967, 0.559680, -1.647603, 0.822875, -9.290039, -75.811310, -612.546631
1733469026.520407, 23.595007, 9.242965, -3.148226, 0.542719, -1.257514, 1.579098, -9.825821, -76.294815, -612.930664
1733469026.530403, 22.448334, 9.211242, -2.825607, 0.438388, -0.842143, 2.290254, -10.767197, -77.262558, -613.188110
1733469026.540397, 21.326202, 8.772505, -2.524835, 0.350528, -0.486626, 2.953390, -11.965439, -78.264359, -612.547241
1733469026.550025, 20.014179, 8.191462, -1.960402, 0.305479, -0.335994, 3.524159, -13.275650, -79.587234, -613.946411
1733469026.559841, 18.444032, 7.655460, -1.212663, 0.276029, -0.346042, 3.984304, -14.705200, -80.370407, -612.966492
1733469026.570398, 16.911443, 7.196671, -0.912340, 0.306254, -0.398123, 4.366512, -16.726608, -81.645706, -612.965759
1733469026.580390, 15.434670, 6.747309, -0.898723, 0.387322, -0.447162, 4.671397, -18.201736, -82.730225, -612.927612
1733469026.590391, 14.308797, 6.194847, -0.642394, 0.469782, -0.559142, 4.962414, -20.010010, -83.803223, -612.901917
1733469026.600385, 13.350368, 5.785888, -0.239570, 0.570288, -0.747919, 5.300543, -22.016418, -84.976608, -613.098511
1733469026.610397, 12.398972, 5.651962, -0.108637, 0.699777, -0.911200, 5.703478, -24.368057, -85.799744, -612.842285
1733469026.620395, 11.221922, 5.557840, -0.068534, 0.827967, -0.971517, 6.172335, -27.233719, -86.988205, -611.792847
1733469026.630397, 9.275137, 5.280561, 0.625934, 0.857549, -1.000183, 6.573711, -29.964584, -87.464447, -612.160522
1733469026.640398, 7.306804, 4.585046, 1.660528, 0.783885, -1.036394, 6.897883, -33.193069, -88.189407, -612.391968
1733469026.650390, 5.543475, 4.002058, 2.066346, 0.666830, -0.975182, 7.144218, -36.477036, -88.400345, -611.735107
1733469026.660398, 4.062062, 3.514987, 1.603217, 0.595175, -0.554657, 7.579167, -39.713577, -88.278107, -611.763672
1733469026.670398, 3.256713, 3.316269, 0.771083, 0.716955, -0.325517, 7.923367, -42.835922, -88.159561, -611.337769
1733469026.680386, 0.594061, 4.323779, 0.465971, 0.801066, 0.079735, 8.310644, -46.391525, -87.887360, -610.660217
1733469026.690390, -3.035100, 4.155736, 1.435623, 0.613023, 0.565164, 8.486929, -50.641617, -86.692261, -610.686523
1733469026.700385, -6.545149, 2.626140, 3.273323, 0.032618, 0.897759, 8.373219, -54.459702, -85.307922, -610.838074
1733469026.710403, -8.275857, 1.465850, 4.226963, -0.723500, 1.104496, 8.117467, -57.853668, -84.020508, -611.560303
1733469026.720394, -9.458743, 1.228076, 3.380014, -1.358425, 1.284637, 7.856698, -61.082504, -82.221039, -611.214722
1733469026.730392, -10.765378, 0.903213, 1.385943, -1.632374, 1.386223, 7.653296, -63.590561, -80.377380, -613.196777
1733469026.740401, -13.137733, -0.092177, -0.384868, -1.629545, 1.494901, 7.388466, -66.589142, -78.157913, -614.668945
1733469026.750394, -17.111808, -2.065298, -0.844555, -1.734701, 1.565741, 6.769914, -69.144287, -75.974731, -615.711426
1733469026.760389, -20.514118, -4.548834, -0.533757, -2.081266, 1.417032, 5.844913, -70.963348, -73.862656, -616.418335
1733469026.770388, -22.819884, -6.478859, -0.633117, -2.347735, 0.947474, 4.753969, -72.650864, -72.162292, -618.321411
1733469026.780439, -23.866749, -8.443601, -2.279579, -2.236255, 0.211734, 3.641766, -73.712769, -70.692688, -618.990906
1733469026.790390, -23.612664, -9.733477, -4.844069, -1.670769, -0.667638, 2.724488, -74.126373, -69.492371, -619.031372
1733469026.800389, -22.690298, -10.456825, -7.499537, -0.789731, -1.408532, 2.026250, -74.834747, -68.603287, -618.571960
1733469026.810385, -21.694310, -11.427674, -9.490466, 0.108079, -1.741981, 1.501125, -74.897079, -67.922211, -617.084229
1733469026.820386, -20.992809, -12.176161, -9.709086, 0.688343, -1.637449, 1.068595, -75.138641, -67.235901, -617.140625
1733469026.830391, -20.767305, -12.750321, -8.200889, 0.814891, -1.237060, 0.661627, -75.499283, -67.002487, -616.328735
1733469026.840385, -20.298640, -13.371916, -6.392369, 0.592640, -0.714053, 0.277744, -75.562531, -66.985977, -616.031677
1733469026.850393, -19.564518, -13.857938, -5.276671, 0.242659, -0.188387, -0.090849, -75.854630, -67.049011, -615.808838
1733469026.860398, -18.485182, -13.999795, -5.043535, -0.031495, 0.282593, -0.416503, -75.853363, -67.031281, -615.732605
1733469026.870393, -17.092804, -13.952659, -5.246444, -0.144170, 0.585909, -0.699147, -76.062393, -67.557159, -615.946716
1733469026.880387, -15.853356, -13.755287, -5.481375, -0.094088, 0.722652, -0.958102, -75.905533, -67.959930, -617.349854
1733469026.890394, -14.860959, -13.534123, -5.606023, 0.061937, 0.773827, -1.234783, -75.755402, -68.630707, -617.200195
1733469026.900391, -14.155867, -13.493571, -5.443666, 0.224493, 0.787911, -1.552596, -75.158157, -69.299088, -617.399963
1733469026.910381, -13.539210, -13.237990, -4.819977, 0.343519, 0.741529, -1.882084, -74.802917, -70.142120, -617.768555
1733469026.920381, -12.733412, -12.628516, -4.026449, 0.414238, 0.627698, -2.185855, -74.238266, -70.782440, -618.236694
1733469026.930380, -11.848904, -11.963377, -3.599084, 0.468672, 0.510132, -2.447865, -73.435516, -72.023087, -617.345032
1733469026.940381, -11.026645, -11.200524, -3.311929, 0.506540, 0.416270, -2.664197, -72.440186, -72.924500, -618.094604
1733469026.950378, -10.160693, -10.390686, -3.141791, 0.531612, 0.377786, -2.822192, -71.701767, -73.878342, -617.791016
1733469026.960379, -9.276634, -9.768193, -3.050213, 0.548773, 0.393727, -2.942665, -70.677032, -74.921524, -617.644653
1733469026.970390, -8.432229, -9.281572, -2.896984, 0.573231, 0.442655, -3.016327, -69.693542, -76.043823, -617.565247
1733469026.980382, -7.721899, -8.751855, -2.739266, 0.606633, 0.516473, -3.061375, -68.713638, -77.043701, -618.046326
1733469026.990381, -7.296479, -8.367735, -2.595614, 0.640356, 0.638245, -3.125885, -67.360428, -78.026474, -617.804138
1733469027.000386, -6.871359, -8.188619, -2.418742, 0.659698, 0.800020, -3.222928, -66.587021, -79.038193, -617.397522
1733469027.010397, -6.359149, -8.237849, -2.179172, 0.648727, 0.945455, -3.364665, -65.311371, -80.159866, -616.808594
1733469027.020383, -5.730073, -8.197896, -1.798345, 0.619739, 0.998291, -3.535696, -63.811295, -81.092545, -617.880615
1733469027.030397, -5.019294, -7.883059, -1.377863, 0.606243, 0.930298, -3.702374, -62.390701, -82.189529, -617.462341
1733469027.040383, -4.325275, -7.148338, -0.936133, 0.626711, 0.774143, -3.822608, -62.390701, -82.189529, -617.462341
1733469027.050383, -3.653552, -6.301688, -0.548422, 0.651837, 0.593077, -3.911536, -59.146957, -83.976562, -617.285400
1733469027.060392, -3.157054, -5.666926, -0.258723, 0.662321, 0.398529, -3.987057, -57.385773, -84.782333, -617.012390
1733469027.070386, -2.782960, -5.245247, -0.037709, 0.664547, 0.201755, -4.067569, -57.385773, -84.782333, -617.012390
1733469027.080382, -2.304419, -5.070769, -0.183755, 0.651073, 0.111087, -4.156869, -55.513779, -85.735916, -616.839478
1733469027.090394, -1.615787, -4.897938, -0.438737, 0.610368, 0.092215, -4.222917, -53.515472, -86.205139, -616.264587
1733469027.100392, -0.984915, -4.441843, -0.472705, 0.537772, 0.116350, -4.264333, -51.569626, -86.740448, -615.942749
1733469027.110387, -0.588375, -3.892822, -0.529867, 0.467579, 0.191033, -4.308006, -49.603546, -87.403214, -615.886353
1733469027.119699, -0.413748, -3.459023, -0.466570, 0.388966, 0.285260, -4.371152, -47.799850, -87.711578, -615.246338
1733469027.130386, -0.203358, -3.075202, -0.309151, 0.299797, 0.336709, -4.451846, -45.810394, -88.110825, -614.847839
1733469027.140380, 0.120907, -2.759617, -0.192434, 0.240257, 0.348545, -4.532835, -43.576218, -88.426956, -615.221069
1733469027.150399, 0.543334, -2.396446, -0.268450, 0.221287, 0.362806, -4.617057, -41.562088, -88.713684, -614.108582
1733469027.160438, 1.080832, -1.823783, -0.408660, 0.246338, 0.357920, -4.686630, -39.296021, -88.978394, -614.221191
1733469027.170382, 1.590199, -1.336114, -0.429909, 0.291048, 0.363530, -4.727478, -37.213638, -88.743195, -614.824951
1733469027.180378, 2.212991, -1.252467, -0.413898, 0.293658, 0.348044, -4.778575, -35.163681, -88.575211, -614.032288
1733469027.190379, 2.815282, -0.982820, -0.272340, 0.267001, 0.298671, -4.797675, -32.734283, -88.466904, -614.226013
1733469027.200378, 3.407697, -0.364667, -0.171934, 0.229772, 0.232554, -4.786527, -30.421524, -88.096802, -613.586182
1733469027.210375, 3.743783, -0.027234, -0.157269, 0.190459, 0.165975, -4.778575, -28.385437, -87.700485, -613.566589
1733469027.220388, 4.271854, 0.407314, -0.268899, 0.135785, 0.198747, -4.728168, -26.329712, -87.012054, -613.882324
1733469027.230375, 5.139902, 1.006313, -0.349105, 0.054560, 0.249160, -4.623648, -24.337891, -86.321884, -613.242859
1733469027.240379, 6.288520, 1.370232, -0.106243, -0.030398, 0.217737, -4.438318, -22.351593, -85.531403, -613.905151
1733469027.250380, 7.284658, 1.485153, -0.217423, -0.114003, 0.187177, -4.205165, -20.403687, -84.965912, -613.041626
1733469027.260385, 7.785345, 1.651401, -0.580444, -0.158993, 0.202394, -3.986017, -19.131897, -84.336975, -613.301453
1733469027.270386, 8.134151, 1.512238, -0.832883, -0.174194, 0.225908, -3.815130, -17.452927, -83.598022, -613.939819
1733469027.280381, 8.906879, 1.611597, -1.099088, -0.176235, 0.274755, -3.584105, -15.886566, -82.446579, -613.566162
1733469027.290376, 9.739463, 1.911321, -1.637634, -0.160617, 0.506820, -3.308931, -14.750839, -81.674957, -614.227722
1733469027.300392, 10.711509, 1.971924, -1.985841, -0.180423, 0.824915, -2.948350, -13.602310, -80.853607, -613.694397
1733469027.310388, 11.264719, 2.107945, -1.551892, -0.223071, 1.137591, -2.611201, -13.065414, -80.420120, -613.402649
1733469027.320378, 11.721413, 1.542016, -1.429039, -0.267332, 1.515581, -2.378113, -12.453888, -79.852631, -614.128601
1733469027.330372, 12.932280, 1.614590, -0.779013, -0.265402, 1.630345, -2.109922, -11.716614, -79.059708, -612.934021
1733469027.340377, 14.079701, 2.054973, 0.687286, -0.226466, 1.357921, -1.905299, -11.825378, -78.441528, -613.327454
1733469027.350178, 14.724340, 1.772607, 1.498770, -0.141388, 0.935004, -1.807492, -11.645828, -78.036285, -612.620972
1733469027.359502, 15.305533, 1.910573, 1.412878, -0.013648, 0.544967, -1.755240, -11.137711, -77.612411, -611.779541
1733469027.370385, 15.866374, 2.070835, 1.475726, 0.120765, 0.140079, -1.719987, -10.821747, -77.182327, -612.311523
1733469027.380373, 16.411953, 1.899799, 1.441010, 0.210954, -0.087684, -1.698911, -10.174774, -76.532608, -612.062378
1733469027.390440, 17.320852, 2.214487, 0.940622, 0.243064, -0.052088, -1.582090, -9.565308, -76.104080, -612.711060
1733469027.400381, 18.583943, 2.703353, 1.060033, 0.206370, 0.025553, -1.387723, -9.514175, -75.632126, -611.740845
1733469027.409443, 19.761292, 2.931700, 1.657835, 0.145096, 0.032185, -1.137713, -8.826004, -75.182251, -611.664917
1733469027.420391, 20.666599, 3.305345, 2.062156, 0.067219, 0.005793, -0.854694, -8.694763, -74.876999, -612.671387
1733469027.430379, 20.957195, 3.596390, 2.136975, -0.001723, 0.005173, -0.605168, -8.844131, -74.543167, -612.075684
1733469027.440387, 20.787057, 3.922151, 1.990779, -0.033274, 0.003041, -0.451358, -8.779663, -74.701279, -611.775635
1733469027.450383, 21.134217, 3.961955, 1.965640, -0.012117, -0.113453, -0.274453, -8.942780, -74.383133, -612.196594
1733469027.460384, 21.884200, 4.044555, 2.066196, 0.052774, -0.354841, -0.003780, -8.597992, -74.341293, -611.570190
1733469027.470390, 22.568792, 4.383783, 2.198925, 0.124602, -0.650071, 0.424012, -8.385010, -74.319611, -612.455200
1733469027.480378, 22.427684, 4.348319, 1.912518, 0.140767, -0.828490, 0.925401, -8.239166, -74.463333, -611.941833
1733469027.490384, 21.395633, 3.903147, 1.502362, 0.078528, -0.809149, 1.427648, -8.339554, -74.862335, -612.825073
1733469027.500394, 19.605369, 3.538630, 0.932093, -0.049739, -0.528067, 1.844415, -8.846771, -75.434769, -613.174438
1733469027.510328, 18.066945, 3.198055, 0.647781, -0.243508, -0.174793, 2.196649, -9.324783, -76.359436, -612.485779
1733469027.520384, 17.068713, 3.019687, 0.919523, -0.433805, 0.040504, 2.490138, -10.041245, -76.869522, -613.365417
1733469027.530368, 16.124200, 2.847753, 0.991199, -0.555937, 0.133234, 2.733002, -10.678986, -77.756165, -612.863586
1733469027.540392, 15.243283, 2.607735, 0.616956, -0.598699, 0.183650, 2.951270, -11.615479, -78.613907, -613.222656
1733469027.550377, 14.285902, 2.434604, 0.029329, -0.571898, 0.254657, 3.137976, -12.651642, -79.497894, -614.362793
1733469027.560385, 13.411570, 2.221370, -0.157568, -0.522782, 0.270969, 3.328436, -13.540680, -80.479187, -613.065857
1733469027.570385, 12.847286, 2.144157, -0.021249, -0.466071, 0.196276, 3.527164, -14.714661, -81.416153, -614.254883
1733469027.580370, 12.436381, 2.178873, 0.421679, -0.398323, -0.028893, 3.753784, -16.144470, -82.165237, -613.779602
1733469027.590380, 11.869704, 2.208801, 0.854880, -0.352906, -0.290313, 3.982286, -17.477829, -83.036743, -614.006653
1733469027.600367, 11.208754, 2.230199, 0.603788, -0.329339, -0.421641, 4.206650, -19.137741, -83.921555, -614.755310
1733469027.610375, 10.491841, 2.171242, 0.060304, -0.310410, -0.413798, 4.423544, -20.902145, -84.845093, -613.947571
1733469027.620376, 9.868600, 2.172139, -0.396989, -0.280054, -0.280576, 4.652558, -22.666229, -85.547455, -615.112915
1733469027.630378, 9.432257, 2.352602, -0.578798, -0.267544, -0.120181, 4.936185, -24.425873, -86.567261, -614.694275
1733469027.640376, 8.566454, 2.594716, -0.215927, -0.277104, 0.010677, 5.201685, -26.612305, -87.266769, -614.647095
1733469027.650372, 7.619248, 2.497751, 0.419285, -0.333732, 0.012484, 5.426877, -29.264023, -87.772614, -615.334473
1733469027.659453, 6.926575, 2.484433, 1.300650, -0.450241, -0.144088, 5.665686, -31.570297, -88.467789, -614.844299
1733469027.670148, 6.250063, 2.655170, 1.864933, -0.589023, -0.392872, 5.906780, -34.392075, -88.809937, -616.008972
1733469027.680378, 5.455338, 2.578256, 1.937957, -0.711005, -0.664066, 6.131852, -36.886307, -88.930099, -615.190613
1733469027.690385, 4.667646, 2.659060, 1.506851, -0.776146, -0.884898, 6.383504, -39.950073, -89.100998, -615.914795
1733469027.700366, 4.032733, 3.210924, 0.921319, -0.782164, -1.023147, 6.709300, -42.783295, -88.865036, -616.881592
1733469027.710363, 3.318962, 3.853168, 0.540491, -0.768716, -1.080061, 7.083173, -46.066025, -88.272614, -616.622314
1733469027.720374, 2.260426, 4.355651, 0.042946, -0.775383, -0.931024, 7.443585, -49.302002, -87.687851, -617.795959
1733469027.730363, 1.088314, 4.658967, -0.179266, -0.848348, -0.697014, 7.759292, -52.697449, -86.668198, -617.520691
1733469027.740362, -0.209193, 4.867262, -0.136469, -0.968539, -0.462271, 8.016689, -56.195923, -85.151062, -617.499634
1733469027.750363, -2.177377, 4.919187, -0.350601, -1.082737, -0.194946, 8.150181, -59.849518, -83.407974, -618.659729
1733469027.760442, -4.586093, 4.159776, -0.799813, -1.185734, 0.109413, 8.075184, -63.068497, -81.361160, -619.542847
1733469027.770374, -6.840982, 2.849100, -1.129764, -1.299812, 0.393019, 7.837461, -66.279175, -79.276611, -619.221680
1733469027.780349, -9.253440, 1.527052, -1.212962, -1.497532, 0.669979, 7.441006, -68.827789, -76.545853, -620.637756
1733469027.790368, -10.998962, -0.030077, -1.320701, -1.786648, 0.827113, 6.969965, -71.247955, -74.255630, -621.532227
1733469027.800368, -12.227038, -1.141436, -1.191115, -2.063412, 0.611731, 6.431949, -73.261368, -71.948914, -621.925720
1733469027.810362, -13.854646, -1.734898, -1.037737, -2.126441, -0.132018, 5.793095, -74.665848, -69.437393, -623.281799
1733469027.820357, -15.384392, -2.510620, -2.072331, -1.812943, -1.111775, 5.143568, -76.021194, -67.366272, -623.461426
1733469027.830365, -16.804901, -3.529053, -4.307169, -1.215811, -1.942387, 4.583874, -76.615326, -65.241943, -622.196960
1733469027.840377, -17.910274, -3.765032, -6.330568, -0.544545, -2.390683, 4.190359, -77.319901, -63.446960, -620.907532
1733469027.850377, -19.138051, -4.632930, -7.614459, -0.019455, -2.350094, 3.889960, -77.703415, -61.708313, -620.421753
1733469027.860372, -20.898238, -5.981464, -7.808240, 0.214275, -1.906251, 3.590693, -78.344360, -59.870270, -619.361816
1733469027.870491, -22.951266, -7.240964, -7.033865, 0.125086, -1.328539, 3.208318, -78.804520, -58.474823, -618.894653
1733469027.880389, -25.238477, -8.990078, -6.450428, -0.158068, -0.729052, 2.627483, -79.652512, -57.261490, -618.154297
1733469027.890444, -27.194390, -10.890176, -6.607997, -0.439139, -0.249370, 1.844974, -80.137115, -56.551392, -618.665649
1733469027.900374, -28.035802, -11.894244, -7.055563, -0.552587, 0.039361, 1.001810, -80.462616, -56.068726, -618.716675
1733469027.910399, -27.597065, -11.990760, -7.681646, -0.475683, 0.167390, 0.201813, -80.226471, -56.158112, -619.151672
1733469027.920405, -26.468049, -11.795483, -8.261043, -0.277891, 0.233732, -0.521189, -80.231216, -56.380798, -618.910706
1733469027.930377, -24.862737, -11.416900, -8.727164, -0.017594, 0.350178, -1.118777, -80.076859, -57.169876, -618.874023
1733469027.940400, -22.870611, -10.985944, -9.106945, 0.241800, 0.569382, -1.610223, -79.961090, -57.782654, -619.819946
1733469027.950367, -20.676475, -10.699538, -8.985888, 0.461409, 0.784983, -2.009739, -79.856445, -58.798920, -619.773682
1733469027.960369, -18.540698, -9.903765, -8.438663, 0.663941, 0.963081, -2.299827, -79.436661, -59.924744, -620.154297
1733469027.970363, -16.982671, -8.778789, -7.596652, 0.833094, 1.071787, -2.524575, -79.056686, -61.158524, -620.651306
1733469027.980355, -16.049531, -7.965060, -6.289418, 0.916110, 1.051823, -2.773551, -78.723679, -62.417038, -621.085938
1733469027.990356, -15.595231, -7.573309, -4.928464, 0.930457, 0.906169, -3.086991, -78.134689, -63.960144, -620.511658
1733469028.000378, -15.291167, -7.137115, -4.032434, 0.941864, 0.716742, -3.438791, -77.238861, -65.596848, -621.019409
1733469028.010358, -14.903756, -6.432472, -3.604471, 0.977271, 0.562791, -3.804359, -75.959320, -67.422058, -621.372437
1733469028.020357, -14.214525, -6.149507, -3.492691, 1.013848, 0.510607, -4.161557, -75.028534, -69.088699, -620.949707
1733469028.030349, -13.335853, -5.691317, -3.236661, 1.026957, 0.541351, -4.466135, -73.509567, -70.927170, -621.149353
1733469028.040426, -12.455535, -4.808754, -2.759168, 0.996035, 0.636583, -4.737507, -72.142365, -72.729248, -621.078918
1733469028.050358, -11.382633, -4.036774, -2.233790, 0.931862, 0.716284, -4.972668, -70.678604, -74.713165, -620.445312
1733469028.060363, -10.177751, -3.291129, -1.733402, 0.873478, 0.779339, -5.157596, -68.563156, -76.520966, -620.712524
1733469028.070357, -8.872462, -2.548179, -1.486201, 0.831670, 0.868029, -5.291517, -67.053131, -78.227936, -621.095093
1733469028.080411, -7.602488, -2.162712, -1.382801, 0.805521, 0.958617, -5.417789, -65.036743, -79.765244, -620.834717
1733469028.090351, -6.573879, -1.955315, -1.241394, 0.802984, 0.973856, -5.560317, -63.030960, -81.457611, -620.875427
1733469028.100352, -5.694908, -1.886182, -1.091307, 0.845284, 0.895532, -5.726424, -60.628540, -82.992599, -621.053345
1733469028.110355, -4.887463, -1.610849, -0.839916, 0.909160, 0.726112, -5.910699, -57.893265, -84.331390, -620.429749
1733469028.120349, -3.897162, -0.843806, -0.650774, 0.980154, 0.501740, -6.049404, -55.500092, -85.563034, -620.050293
1733469028.130345, -2.724751, -0.207098, -0.585532, 1.057644, 0.304261, -6.135356, -52.259735, -86.707825, -618.900818
1733469028.140345, -1.654543, 0.076764, -0.648080, 1.154086, 0.136877, -6.168574, -49.820267, -87.339035, -618.558228
1733469028.150347, -0.967108, 0.402675, -0.584036, 1.223084, 0.032132, -6.183202, -46.824432, -88.155228, -618.034790
1733469028.160352, -0.189142, 0.503082, -0.507870, 1.231662, -0.040968, -6.199572, -44.248886, -88.390732, -617.106567
1733469028.170347, 0.642544, 0.674417, -0.294487, 1.188105, -0.092005, -6.180129, -41.673920, -88.875763, -616.928284
1733469028.180348, 1.031003, 0.610073, 0.074220, 1.078003, -0.111096, -6.219685, -38.545990, -89.001190, -616.872803
1733469028.190347, 1.436521, 0.354641, -0.046537, 0.915630, -0.001352, -6.289491, -36.073257, -88.618713, -616.175293
1733469028.200407, 2.079215, 0.987309, -0.362273, 0.748623, 0.248084, -6.316032, -33.088669, -88.379150, -615.996216
1733469028.210358, 3.210624, 1.504157, -0.422726, 0.609105, 0.494684, -6.277292, -29.899384, -87.937775, -615.031128
1733469028.220368, 4.982034, 2.319981, -0.186448, 0.530319, 0.598751, -6.064270, -27.498932, -87.386978, -615.182495
1733469028.230364, 6.638972, 3.110667, 0.144849, 0.518740, 0.553637, -5.771033, -25.350571, -86.690872, -614.831421
1733469028.240364, 7.987955, 2.743755, 0.270545, 0.519762, 0.433342, -5.484425, -23.046295, -85.736923, -614.493652
1733469028.250365, 9.691130, 2.553266, 0.307954, 0.470703, 0.325002, -5.143824, -21.306610, -84.909805, -614.359863
1733469028.260350, 11.715128, 3.040935, 0.382923, 0.426544, 0.179583, -4.734836, -19.822479, -83.997437, -614.235046
1733469028.270360, 13.610737, 3.443161, 0.057012, 0.429338, 0.190523, -4.273178, -18.192719, -83.231918, -613.732483
1733469028.280403, 15.508741, 3.864241, -0.906505, 0.447847, 0.528404, -3.737596, -17.074982, -82.495743, -613.295776
1733469028.290349, 17.266533, 4.395904, -1.239897, 0.476091, 1.019311, -3.156748, -16.450699, -81.640564, -613.146423
1733469028.300043, 18.570625, 4.557961, -0.389956, 0.428906, 1.479190, -2.623452, -16.260513, -81.107422, -612.300293
1733469028.310349, 19.392734, 4.478055, 1.110760, 0.276913, 1.870158, -2.232577, -16.112885, -80.756012, -611.680969
1733469028.320357, 20.041563, 4.575020, 2.371457, 0.086960, 2.178798, -2.014821, -15.935944, -80.625641, -611.665222
1733469028.330355, 21.533749, 4.900183, 3.868282, -0.035899, 2.078261, -1.799917, -15.799789, -80.103577, -611.202271
1733469028.340349, 23.534254, 5.289989, 5.570110, -0.047617, 1.552968, -1.605953, -15.835144, -79.622726, -611.273132
1733469028.350399, 25.139866, 6.077531, 6.526743, -0.010496, 0.789010, -1.295464, -15.191086, -79.439560, -611.535522
1733469028.360156, 26.680684, 6.890812, 6.972963, 0.054235, -0.032936, -0.910492, -15.065460, -79.297943, -611.341553
1733469028.370350, 27.102064, 6.811653, 6.429030, 0.168507, -0.652400, -0.532318, -14.402100, -79.269135, -611.305847
1733469028.380348, 27.257687, 6.888717, 5.311387, 0.271030, -1.007055, -0.065590, -14.056015, -79.230133, -610.874695
1733469028.390351, 27.756728, 7.036409, 4.573374, 0.346997, -1.247662, 0.605151, -14.162933, -79.325623, -611.213684
1733469028.400399, 27.444135, 7.255778, 4.025850, 0.410166, -1.362178, 1.401214, -14.288849, -80.010727, -611.899963
1733469028.410357, 26.039637, 6.843377, 3.365649, 0.405331, -1.271219, 2.222985, -14.982208, -80.684616, -611.008179
1733469028.420362, 23.704242, 6.198588, 2.970456, 0.303191, -1.020912, 2.959263, -15.941788, -81.161591, -611.432007
1733469028.430347, 20.851701, 5.596746, 2.887108, 0.136237, -0.689707, 3.557081, -17.329880, -82.197021, -611.945862
1733469028.440343, 17.976265, 4.899584, 2.927360, -0.078406, -0.379315, 3.966777, -18.796539, -83.171341, -611.906921
1733469028.450345, 15.513679, 4.230405, 3.204040, -0.313306, -0.187461, 4.230960, -20.457764, -84.080139, -612.176880
1733469028.460352, 13.755437, 3.825934, 3.292626, -0.512747, -0.106849, 4.393488, -22.333420, -84.996994, -612.429321
1733469028.470352, 12.700492, 3.595941, 2.908057, -0.605109, -0.125663, 4.528499, -24.258713, -85.802338, -612.547119
1733469028.480353, 12.225093, 3.689016, 2.670133, -0.591821, -0.313013, 4.732929, -25.836136, -86.592850, -613.236877
1733469028.490352, 11.471219, 3.900155, 2.659210, -0.504352, -0.589766, 4.943161, -28.163834, -87.393677, -613.326416
1733469028.500344, 10.346542, 3.758747, 2.576909, -0.411517, -0.862100, 5.137600, -30.318451, -87.800644, -613.667480
1733469028.510344, 9.553762, 3.740790, 2.318485, -0.304328, -1.097227, 5.376743, -32.636810, -88.388245, -613.038574
1733469028.520342, 8.929774, 4.003105, 2.042254, -0.193875, -1.269776, 5.666994, -32.636810, -88.388245, -613.038574
1733469028.530343, 7.950844, 4.345177, 1.836053, -0.112275, -1.326757, 5.962525, -35.343796, -88.514481, -613.925842
1733469028.540348, 6.882133, 4.525640, 1.792210, -0.072046, -1.337592, 6.259493, -37.802902, -88.868912, -613.850891
1733469028.550053, 5.733664, 4.799327, 2.113182, -0.094412, -1.282293, 6.567213, -40.562180, -88.777176, -613.784180
1733469028.560357, 4.017021, 4.910807, 2.713828, -0.231807, -1.213767, 6.804449, -43.686539, -88.709671, -614.026855
1733469028.570350, 2.624793, 4.484789, 3.320159, -0.506790, -1.132135, 7.001652, -46.651794, -88.245270, -614.142822
1733469028.580346, 1.775600, 4.635324, 3.471892, -0.843600, -1.031611, 7.275317, -49.824203, -87.523773, -614.275513
1733469028.590403, 0.839018, 5.109526, 3.091214, -1.165730, -0.897256, 7.581209, -53.251602, -86.387787, -614.576355
1733469028.600345, 0.043545, 5.111022, 2.035969, -1.414357, -0.711674, 7.897608, -56.541473, -85.111099, -615.353333
1733469028.610343, -0.847847, 5.563975, 0.741005, -1.543459, -0.474519, 8.297036, -59.776596, -83.402435, -616.021973
1733469028.620395, -3.755156, 5.815815, 0.158017, -1.616364, -0.199261, 8.512530, -63.123871, -81.319046, -616.216919
1733469028.630346, -7.696461, 3.893570, -0.005986, -1.801567, 0.081610, 8.383284, -66.675034, -78.829285, -617.333557
1733469028.640342, -10.658687, 1.771560, -0.155473, -2.093779, 0.357251, 8.088823, -69.092270, -76.107330, -618.215515
1733469028.650399, -12.895320, 1.362151, -0.552312, -2.438933, 0.586201, 7.815106, -71.337219, -73.302856, -618.667786
1733469028.660342, -15.752201, 1.887828, -1.190517, -2.711108, 0.647626, 7.481305, -73.527924, -70.316956, -620.292664
1733469028.670336, -19.021932, 1.017087, -1.861791, -2.834465, 0.312165, 6.958205, -75.136978, -67.558731, -621.138000
1733469028.680402, -22.903232, -0.543035, -2.415899, -2.699154, -0.506787, 6.169337, -76.566589, -64.830551, -621.861206
1733469028.690340, -27.393707, -2.499995, -3.650260, -2.324540, -1.531393, 5.109223, -77.660629, -62.328827, -621.369446
1733469028.700341, -31.402948, -5.112518, -5.830031, -1.808123, -2.324546, 3.860203, -78.190384, -60.506195, -620.691223
1733469028.710349, -33.645267, -7.944859, -8.594885, -1.282717, -2.588253, 2.623338, -78.328400, -59.028152, -619.313171
1733469028.720355, -34.054526, -9.489568, -11.190349, -0.816277, -2.221566, 1.603817, -78.361816, -58.436249, -617.859009
1733469028.730354, -33.550098, -10.133010, -12.905645, -0.486297, -1.388427, 0.763797, -78.124588, -57.927078, -617.966003
1733469028.740350, -32.705543, -10.679037, -13.494918, -0.273265, -0.354131, 0.030925, -78.615341, -57.891174, -618.409607
1733469028.750353, -31.331271, -10.874464, -13.243676, -0.095301, 0.607524, -0.633310, -78.977142, -58.334579, -618.205200
1733469028.760347, -29.431322, -10.996568, -12.039991, 0.034083, 1.271824, -1.277784, -79.195450, -59.062103, -619.147278
1733469028.770352, -27.208905, -11.064803, -10.601824, 0.132011, 1.580799, -1.897348, -78.890244, -59.912949, -619.919128
1733469028.780357, -24.609999, -10.752060, -9.750087, 0.299359, 1.641733, -2.446536, -78.567902, -61.276230, -620.719604
1733469028.790347, -21.992538, -10.169222, -9.024494, 0.523259, 1.485487, -2.927670, -78.121658, -62.744614, -621.337280
1733469028.800412, -19.818304, -9.440337, -8.246229, 0.755723, 1.173172, -3.342448, -77.166901, -64.189087, -621.481567
1733469028.810346, -18.414254, -8.583363, -7.711275, 1.003342, 0.892463, -3.725301, -76.529388, -65.797333, -621.602905
1733469028.820386, -17.656339, -7.829788, -7.316082, 1.220780, 0.703634, -4.104553, -75.422577, -67.730972, -620.778687
1733469028.830332, -16.897976, -7.112575, -6.697181, 1.384670, 0.614881, -4.451846, -73.793381, -69.589996, -621.244263
1733469028.840337, -15.894806, -6.036830, -6.068254, 1.519720, 0.639160, -4.721019, -72.668549, -71.445557, -620.889709
1733469028.850414, -14.417882, -5.156661, -5.513398, 1.622629, 0.748900, -4.927554, -71.171356, -73.419754, -621.008118
1733469028.860349, -12.640038, -4.822521, -4.724209, 1.687146, 0.821990, -5.076760, -69.803497, -75.298340, -620.751099
1733469028.870334, -11.009437, -4.403086, -3.728819, 1.694968, 0.840006, -5.198951, -68.126938, -77.233704, -620.223206
1733469028.880383, -9.563938, -4.376152, -2.824260, 1.634319, 0.772316, -5.360520, -66.118668, -79.025574, -620.191467
1733469028.890330, -8.363246, -4.348918, -2.126051, 1.539659, 0.616257, -5.557425, -64.057449, -80.904175, -619.669067
1733469028.900333, -7.695712, -3.652205, -1.541417, 1.472263, 0.410022, -5.776363, -61.967896, -82.319748, -618.861816
1733469028.909779, -7.074567, -2.978985, -1.541118, 1.477223, 0.267937, -6.029465, -59.134186, -83.974609, -618.954224
1733469028.919650, -6.116587, -2.198625, -1.682974, 1.534859, 0.161731, -6.227263, -56.302551, -85.265335, -617.279785
1733469028.930344, -5.078850, -0.808791, -1.430835, 1.605261, 0.069426, -6.338935, -53.782272, -86.206970, -616.923828
1733469028.940348, -4.029142, 0.027084, -0.978929, 1.628820, -0.023905, -6.435084, -51.043060, -87.284683, -616.380371
1733469028.950332, -2.890999, 0.467917, -0.696862, 1.607590, -0.095770, -6.487277, -47.831009, -88.036118, -615.472534
1733469028.960333, -1.559373, 1.193659, -0.402675, 1.552251, -0.177558, -6.476312, -45.173508, -88.635239, -614.824341
1733469028.970352, -0.286556, 1.895908, -0.036212, 1.474352, -0.277351, -6.417444, -42.083023, -88.866699, -613.673462
1733469028.980342, 0.704494, 2.440589, 0.051625, 1.376766, -0.362151, -6.317992, -39.045425, -88.747223, -613.286804
1733469028.990334, 1.489044, 2.964919, 0.153079, 1.278523, -0.416597, -6.221295, -36.566071, -88.899292, -613.120422
1733469029.000339, 2.005443, 2.967912, 0.091877, 1.178144, -0.391875, -6.192301, -33.703384, -88.356247, -612.002319
1733469029.010340, 2.768595, 3.014749, 0.081253, 1.062207, -0.305632, -6.131130, -30.783249, -87.802948, -611.406982
1733469029.020346, 3.941155, 3.578284, 0.250643, 0.866850, -0.154286, -6.001624, -28.448120, -87.308685, -610.558105
1733469029.030327, 5.082890, 3.875614, 0.212336, 0.628231, 0.082310, -5.863407, -25.746094, -86.480240, -610.761292
1733469029.040425, 6.404938, 4.222773, 0.123301, 0.424793, 0.340736, -5.674450, -23.546860, -85.543121, -610.637817
1733469029.050334, 8.250718, 4.931607, 0.346860, 0.304604, 0.477715, -5.409816, -21.456924, -84.811447, -610.432129
1733469029.060355, 10.399215, 5.646126, 0.842460, 0.219964, 0.454159, -5.034018, -19.607056, -83.910339, -610.283936
1733469029.070390, 12.228834, 6.041319, 1.502212, 0.133372, 0.241295, -4.600183, -18.073013, -82.959351, -610.009644
1733469029.080331, 13.880384, 5.867141, 1.762881, 0.056241, -0.018912, -4.129411, -16.771759, -81.923630, -610.085999
1733469029.090341, 15.346234, 5.908740, 1.311274, -0.152932, 0.210746, -3.160117, -15.687515, -81.366898, -610.202698
1733469029.100340, 16.424523, 5.929689, 0.436643, -0.152932, 0.210746, -3.160117, -15.044022, -80.464813, -610.407104
1733469029.110329, 16.957681, 5.615151, 0.179116, -0.411526, 0.882086, -2.430060, -14.506104, -79.842087, -610.695435
1733469029.120337, 17.295563, 5.128979, 0.144101, -0.411526, 0.882086, -2.430060, -14.175385, -79.300278, -610.005493
1733469029.130350, 18.691383, 5.261707, 0.693421, -0.376762, 1.263135, -2.141540, -13.883530, -78.635651, -610.245850
1733469029.140337, 20.256143, 5.611709, 1.930475, -0.279133, 1.004354, -2.013222, -13.402634, -78.202774, -609.729736
1733469029.150369, 20.256143, 5.611709, 1.930475, -0.279133, 1.004354, -2.013222, -12.801117, -78.109879, -610.508179
1733469029.160325, 22.076784, 6.035782, 2.910451, -0.128858, 0.486712, -1.800979, -12.497955, -77.558029, -610.117065
1733469029.170379, 24.695292, 7.072172, 4.051139, 0.225360, -0.925800, -1.163200, -11.967621, -77.011124, -609.935547
1733469029.180329, 25.602096, 7.211784, 3.813215, 0.225360, -0.925800, -1.163200, -11.308533, -76.675705, -609.995911
1733469029.190328, 25.845856, 7.453000, 2.887856, 0.296965, -1.488776, -0.663853, -10.902206, -76.295776, -610.460449
1733469029.200324, 25.298332, 7.239018, 1.584363, 0.377731, -1.727485, 0.642065, -10.667450, -76.414658, -610.729126
1733469029.210331, 24.465299, 6.739229, 0.586729, 0.329795, -1.399892, 1.333246, -10.536865, -76.562927, -611.313904
1733469029.220339, 23.483228, 6.654684, 0.190638, 0.200373, -0.925645, 2.030919, -10.858261, -77.226547, -610.967529
1733469029.230124, 21.765538, 6.327127, 0.153827, -0.001837, -0.390586, 2.617373, -11.595200, -77.856461, -611.692871
1733469029.240334, 19.897013, 5.748927, 0.376488, -0.258794, 0.094715, 3.080437, -12.742798, -78.690079, -611.466736
1733469029.250333, 18.142362, 5.302708, 0.545878, -0.498579, 0.464652, 3.444207, -14.086090, -79.805344, -612.153870
1733469029.260329, 16.634165, 4.904672, 0.477793, -0.682413, 0.724796, 3.734199, -14.989029, -80.565155, -611.749573
1733469029.270329, 15.431677, 4.558261, 0.366462, -0.805087, 0.814211, 3.989431, -16.141785, -81.812103, -611.986938
1733469029.280324, 14.505420, 4.370316, 0.258873, -0.818698, 0.729680, 4.232689, -17.865631, -82.814178, -612.183472
1733469029.290332, 13.633781, 4.292355, 0.139163, -0.727475, 0.513673, 4.495377, -19.579254, -83.874832, -612.179321
1733469029.300324, 12.607866, 4.146159, -0.114173, -0.558532, 0.285075, 4.751820, -21.272400, -84.859833, -612.663452
1733469029.310334, 11.393108, 3.913772, -0.358532, -0.367705, 0.089068, 4.975486, -23.242493, -85.767975, -612.644287
1733469029.320325, 10.349835, 3.656245, -0.317980, -0.191945, -0.078734, 5.168631, -25.001923, -86.628128, -612.243164
1733469029.330332, 9.333646, 3.530400, -0.370802, -0.038730, -0.188022, 5.348006, -27.691025, -87.385147, -612.960754
1733469029.340327, 8.561665, 3.349039, -0.253785, 0.094418, -0.300570, 5.531844, -30.017700, -88.027527, -613.230530
1733469029.350335, 7.847894, 3.242348, 0.050129, 0.179733, -0.386539, 5.752912, -32.230377, -88.567841, -613.086853
1733469029.360321, 6.837990, 3.402460, 0.401478, 0.199374, -0.405360, 6.018804, -34.667755, -88.814316, -613.162476
1733469029.370322, 5.511452, 3.431490, 1.160140, 0.084049, -0.423289, 6.314736, -37.626282, -88.940460, -612.918945
1733469029.380325, 4.073884, 3.357269, 2.090737, -0.219177, -0.450098, 6.599092, -40.417297, -88.842529, -612.625427
1733469029.390325, 2.961478, 3.554043, 2.474258, -0.606299, -0.476451, 6.881670, -43.630295, -88.839478, -613.402344
1733469029.400322, 2.366219, 3.927837, 1.751658, -0.888062, -0.434622, 7.197635, -46.866547, -88.244049, -613.522461
1733469029.410334, 1.981501, 4.573673, 0.242862, -0.935820, -0.399995, 7.553094, -50.333496, -87.540573, -614.134094
1733469029.420323, 1.068562, 4.958691, -0.923414, -0.709851, -0.422272, 7.891852, -53.471649, -86.670761, -613.771912
1733469029.430336, -0.066738, 5.308244, -1.599027, -0.347506, -0.367127, 8.374048, -56.601135, -85.035187, -614.344482
1733469029.440325, -3.173514, 5.946598, -1.085621, -0.209272, -0.164147, 8.738777, -60.344025, -83.246323, -614.503906
1733469029.450332, -7.414543, 5.140950, 0.474052, -0.487630, 0.015334, 8.789036, -63.929474, -80.871338, -614.705811
1733469029.460323, -11.148301, 3.429095, 1.978508, -1.119886, 0.088547, 8.497079, -67.428741, -78.350113, -615.016602
1733469029.470324, -13.933505, 1.490690, 2.684648, -1.854101, -0.026686, 7.936223, -70.114502, -75.720673, -615.703003
1733469029.480325, -15.196297, 0.641047, 1.159093, -2.221842, -0.147921, 7.416071, -72.405350, -73.071640, -616.569458
1733469029.490335, -17.800291, -0.872986, -1.199495, -2.220690, -0.255703, 6.649843, -74.747574, -70.570694, -617.374084
1733469029.500347, -21.910536, -3.772813, -2.661006, -2.039203, -0.532709, 5.548149, -76.178009, -68.300797, -617.593140
1733469029.510385, -24.513632, -5.326051, -2.967164, -1.784536, -1.079558, 4.422275, -76.954071, -66.421097, -617.786133
1733469029.520335, -25.070284, -5.950938, -3.286640, -1.520833, -1.692075, 3.522585, -77.153458, -64.793823, -617.047485
1733469029.530343, -24.334067, -6.133346, -4.547337, -1.238007, -1.955043, 2.982717, -77.424011, -63.179794, -616.582275
1733469029.540339, -23.388357, -6.229563, -6.334459, -0.994491, -1.783001, 2.706937, -78.106537, -61.875122, -616.002747
1733469029.549986, -22.948423, -7.177368, -7.497742, -0.851870, -1.358120, 2.489701, -78.697556, -60.760590, -615.536133
1733469029.560350, -23.061399, -8.405593, -8.130559, -0.817646, -0.831575, 2.219236, -79.335449, -59.836563, -615.438782
1733469029.570339, -23.988853, -9.716419, -8.464550, -0.877221, -0.316514, 1.756572, -79.845978, -58.958054, -615.329590
1733469029.580323, -24.848671, -11.462989, -8.951920, -0.876746, 0.148761, 1.130212, -80.271255, -58.480118, -615.532715
1733469029.590321, -24.585309, -12.483966, -9.465327, -0.692277, 0.441525, 0.487258, -80.484818, -58.510010, -616.097656
1733469029.600383, -23.408708, -12.554146, -9.534609, -0.358784, 0.536186, -0.089837, -80.504654, -58.613602, -616.679688
1733469029.610322, -21.917569, -12.308441, -9.074772, 0.021171, 0.453483, -0.589469, -80.433182, -58.827316, -616.681641
1733469029.620319, -20.333655, -11.992257, -8.259846, 0.361407, 0.257921, -0.994066, -80.415405, -59.120514, -616.682983
1733469029.630316, -18.898780, -11.818827, -7.638102, 0.614633, 0.127834, -1.335060, -80.512375, -59.783432, -616.461670
1733469029.640361, -17.753454, -11.542147, -7.300070, 0.795054, 0.122759, -1.616436, -80.035034, -60.575195, -616.827820
1733469029.650329, -16.778416, -11.001806, -6.665009, 0.891084, 0.173641, -1.856658, -79.861313, -61.495850, -616.355591
1733469029.660348, -15.801881, -10.413430, -5.752967, 0.904477, 0.216278, -2.058703, -79.451843, -62.583038, -616.561523
1733469029.670332, -14.981268, -9.814581, -4.918588, 0.877917, 0.223821, -2.240695, -79.051208, -63.309601, -616.097778
1733469029.680320, -14.557943, -9.234436, -4.468179, 0.852449, 0.232023, -2.427436, -78.559158, -64.559464, -616.078430
1733469029.690324, -14.508264, -8.477270, -4.254496, 0.836883, 0.250014, -2.647787, -78.139481, -65.770294, -616.010681
1733469029.700315, -14.453347, -7.786393, -4.048445, 0.840182, 0.271787, -2.900565, -77.182571, -66.996613, -615.933838
1733469029.710361, -14.086585, -7.354988, -3.902848, 0.864390, 0.297844, -3.169235, -76.222809, -68.398941, -615.407715
1733469029.720327, -13.537864, -6.843825, -3.780594, 0.914099, 0.314664, -3.431035, -75.440399, -69.891205, -615.355469
1733469029.730344, -12.940959, -6.214150, -3.595343, 0.982586, 0.344752, -3.685901, -74.387070, -71.329010, -615.697998
1733469029.740315, -12.171972, -5.582979, -3.226037, 1.036246, 0.381285, -3.925901, -73.208771, -72.771988, -615.037170
1733469029.750322, -11.227459, -5.006725, -2.732083, 1.069691, 0.416188, -4.141542, -71.951172, -74.270004, -615.187988
1733469029.760317, -10.096797, -4.424036, -2.255188, 1.105661, 0.438480, -4.323453, -70.505035, -75.917877, -614.772034
1733469029.770324, -8.864532, -3.793014, -1.680580, 1.134278, 0.396217, -4.451102, -69.010513, -77.303513, -614.550415
1733469029.780360, -7.931092, -3.210475, -1.035492, 1.143826, 0.334991, -4.570279, -67.451202, -78.803696, -614.117676
1733469029.790314, -7.175572, -2.719514, -0.590021, 1.113185, 0.304330, -4.686789, -65.702713, -80.223907, -613.953613
1733469029.800312, -6.481702, -2.535160, 0.026935, 1.019164, 0.210035, -4.834116, -63.836975, -81.561752, -613.762573
1733469029.810318, -5.856517, -2.650531, 0.397138, 0.889412, 0.111339, -5.019217, -62.065826, -82.663040, -613.180786
1733469029.820323, -5.126884, -2.330157, 0.520290, 0.754669, 0.005569, -5.190964, -59.573868, -83.809158, -613.125305
1733469029.830315, -4.269909, -1.685069, 0.626982, 0.630359, -0.141108, -5.323794, -57.298325, -85.129395, -612.911804
1733469029.840327, -3.403807, -1.169268, 0.400580, 0.537719, -0.229159, -5.425984, -54.588089, -85.845367, -612.438538
1733469029.850326, -2.632125, -0.727388, -0.126893, 0.467410, -0.216443, -5.481723, -52.129944, -86.866241, -612.023804
1733469029.860323, -1.986738, -0.144999, -0.451157, 0.388243, -0.120080, -5.509793, -49.793900, -87.429321, -612.099121
1733469029.870314, -1.189020, 0.244209, -0.755520, 0.320602, 0.022797, -5.530081, -47.577652, -88.025970, -611.800537
1733469029.880327, -0.262015, 0.458639, -1.060182, 0.305168, 0.183670, -5.538404, -44.900864, -88.375290, -611.516602
1733469029.890318, 0.697162, 0.763152, -1.236007, 0.330141, 0.344789, -5.513299, -42.318619, -88.450027, -611.640747
1733469029.900311, 1.693449, 1.549048, -1.189320, 0.339827, 0.480305, -5.439533, -40.087692, -88.506332, -610.910156
1733469029.910310, 2.760814, 2.016516, -1.089062, 0.381363, 0.564309, -5.355653, -37.815277, -88.512009, -610.222778
1733469029.920310, 4.113987, 2.232892, -0.875829, 0.443927, 0.573212, -5.215635, -35.853271, -88.286591, -610.817871
1733469029.930310, 5.651064, 2.262521, -0.599897, 0.455957, 0.528105, -5.027187, -33.705338, -87.936203, -610.382935
1733469029.940316, 7.123648, 2.340482, -0.470910, 0.411196, 0.472039, -4.790726, -31.608871, -87.724243, -610.426147
1733469029.950317, 8.325836, 2.246210, -0.624438, 0.406324, 0.394063, -4.586328, -30.072784, -87.259995, -610.400024
1733469029.960317, 9.998336, 2.124555, -0.579397, 0.445753, 0.198049, -4.319680, -28.161682, -86.691956, -610.086670
1733469029.970310, 11.851597, 2.306514, -0.439336, 0.493522, -0.042899, -4.005366, -26.789383, -86.080750, -609.752380
1733469029.980330, 13.617321, 2.636315, -0.909797, 0.618382, -0.125717, -3.601426, -26.789383, -86.080750, -609.752380
1733469029.990324, 14.968698, 2.856881, -1.323994, 0.718837, 0.000595, -3.187390, -25.672165, -85.653305, -609.540710
1733469030.000331, 15.824326, 1.996465, -1.012298, 0.689303, 0.273271, -2.916245, -24.791473, -84.994003, -609.112854
1733469030.010322, 16.676213, 1.117793, -0.319925, 0.587214, 0.589832, -2.755423, -24.143585, -84.478348, -609.184631
1733469030.019519, 17.964144, 0.992247, 1.023970, 0.421447, 0.720613, -2.615838, -23.443207, -84.242935, -608.164551
1733469030.030311, 19.882947, 1.026664, 2.352303, 0.274217, 0.687686, -2.433856, -22.658844, -83.661270, -608.772156
1733469030.040302, 21.803246, 1.278204, 2.861819, 0.185543, 0.593132, -2.186371, -21.882492, -83.305298, -608.242554
1733469030.050317, 23.426814, 1.516278, 3.481319, 0.117920, 0.380156, -1.893193, -21.549896, -82.820740, -608.509460
1733469030.060315, 24.671949, 1.891120, 4.242076, 0.039422, 0.084225, -1.552305, -21.002090, -82.569870, -607.849365
1733469030.070326, 25.754577, 2.265813, 4.432266, -0.041533, -0.211753, -1.129914, -20.415527, -82.191116, -607.797974
1733469030.080316, 26.259903, 2.355146, 4.249708, -0.083956, -0.470306, -0.693713, -20.190948, -82.040527, -608.148560
1733469030.090319, 26.106674, 2.409465, 3.755605, -0.067763, -0.650595, -0.265410, -19.724838, -81.838638, -608.761658
1733469030.100309, 26.008512, 2.428319, 3.032556, 0.015273, -0.769601, 0.262437, -19.430771, -81.786819, -608.594788
1733469030.110311, 25.585187, 2.465728, 2.512266, 0.121473, -0.828204, 0.873299, -19.181396, -81.902206, -608.666748
1733469030.120312, 24.705617, 2.605490, 2.398092, 0.151464, -0.810242, 1.507140, -19.399185, -82.244919, -608.161377
1733469030.130321, 23.306206, 2.440589, 2.261473, 0.103854, -0.667561, 2.142295, -19.868805, -82.350494, -608.704834
1733469030.140322, 21.083041, 2.193388, 1.867926, -0.008382, -0.343750, 2.679943, -20.527359, -82.860840, -608.840271
1733469030.150315, 18.593669, 1.804031, 1.639878, -0.206155, 0.051745, 3.093905, -21.531677, -83.392517, -608.924072
1733469030.160317, 16.447716, 1.475726, 1.685518, -0.443429, 0.413326, 3.397871, -22.865982, -84.165222, -608.872803
1733469030.170303, 14.762498, 1.138443, 1.524658, -0.664857, 0.730818, 3.612488, -24.099442, -84.852798, -609.246460
1733469030.180366, 13.639468, 0.899172, 1.236007, -0.831016, 0.953110, 3.803289, -25.818115, -85.522675, -609.564331
1733469030.190304, 12.691064, 0.879420, 1.079037, -0.930808, 1.063068, 3.968810, -27.434143, -86.189621, -609.768311
1733469030.200284, 12.116007, 0.930746, 1.020379, -0.938574, 1.020926, 4.158442, -29.144028, -86.713226, -610.007080
1733469030.210304, 11.665149, 1.231517, 1.171812, -0.856589, 0.862954, 4.372253, -31.196442, -87.405319, -610.624268
1733469030.220378, 11.066599, 1.244835, 1.481113, -0.750838, 0.602583, 4.569076, -33.127625, -87.803772, -610.267700
1733469030.230307, 10.616189, 1.312172, 2.125453, -0.671494, 0.271979, 4.784698, -35.357224, -88.203720, -611.024109
1733469030.240312, 9.636362, 1.344943, 2.716671, -0.672027, -0.064051, 4.927232, -37.486588, -88.496490, -611.091248
1733469030.250320, 8.391677, 0.982371, 3.031508, -0.737405, -0.416194, 5.015759, -39.552872, -88.496628, -611.667847
1733469030.260310, 7.098658, 0.726191, 2.924368, -0.798504, -0.716096, 5.056185, -41.727020, -88.734818, -612.132935
1733469030.270308, 6.006453, 0.688932, 2.572420, -0.821129, -0.996082, 5.109258, -43.962463, -88.530426, -612.391174
1733469030.280304, 5.345953, 0.896329, 1.948731, -0.804981, -1.213959, 5.235631, -45.789566, -88.223923, -612.739197
1733469030.290306, 4.772093, 1.262343, 1.205780, -0.779925, -1.308311, 5.456285, -48.171112, -87.815445, -612.718506
1733469030.300311, 3.884592, 1.678335, 0.273089, -0.760226, -1.182267, 5.750858, -50.307007, -87.264084, -612.871338
1733469030.310360, 2.943372, 1.958457, -0.515801, -0.764734, -0.884078, 6.093339, -53.268127, -86.685364, -612.986084
1733469030.320297, 1.879897, 2.189049, -0.708534, -0.828973, -0.516677, 6.422780, -55.662323, -85.718750, -612.780884
1733469030.330304, 0.418985, 2.158074, -0.411503, -0.966178, -0.184303, 6.663188, -58.219452, -84.376633, -613.935486
1733469030.340302, -1.657386, 1.685817, 0.087388, -1.192460, 0.098320, 6.778008, -61.423523, -82.985977, -614.199097
1733469030.350370, -4.710143, 1.238102, 0.473902, -1.527671, 0.330780, 6.710874, -63.954147, -81.169891, -614.422058
1733469030.360302, -7.262661, 0.815076, 0.320374, -1.933168, 0.521922, 6.552908, -66.236389, -79.459976, -615.764099
1733469030.370307, -8.568997, 0.222062, -0.560542, -2.264249, 0.655645, 6.383060, -68.502899, -77.323547, -616.758484
1733469030.380306, -9.095572, 0.202310, -2.012925, -2.366364, 0.755634, 6.345885, -70.089417, -75.285461, -617.507629
1733469030.390303, -10.758345, 0.938527, -3.268983, -2.369536, 0.783345, 6.331626, -72.219116, -72.859070, -618.560547
1733469030.400307, -14.232930, 0.757466, -3.468600, -2.417260, 0.455056, 6.034516, -74.150772, -70.538712, -619.692505
1733469030.410317, -18.066047, -0.641197, -3.686771, -2.306477, -0.319655, 5.442416, -75.380859, -68.379517, -620.621216
1733469030.420302, -21.925351, -2.369811, -4.642956, -1.899669, -1.433641, 4.565286, -76.669510, -66.462585, -620.049927
1733469030.430304, -25.037364, -4.977396, -6.666355, -1.222585, -2.457927, 3.546231, -77.128326, -64.721207, -619.879822
1733469030.440303, -26.312576, -7.076662, -9.054571, -0.467510, -3.076265, 2.630796, -77.571503, -63.458893, -618.503113
1733469030.450307, -26.669012, -8.244284, -10.672603, 0.155061, -3.110715, 1.877219, -77.658966, -62.353455, -616.991699
1733469030.460304, -26.500670, -9.354146, -11.643452, 0.565280, -2.552989, 1.306684, -77.702606, -61.810089, -615.918518
1733469030.470312, -25.898528, -9.703250, -11.756428, 0.802206, -1.626437, 0.918631, -77.595932, -61.317047, -614.983887
1733469030.480308, -25.303420, -10.048464, -10.846781, 0.871716, -0.620282, 0.594712, -77.957840, -61.140869, -614.457275
1733469030.490302, -25.107843, -10.800842, -9.079262, 0.756971, 0.213498, 0.198738, -78.496887, -61.009018, -614.640869
1733469030.500299, -24.967633, -11.663802, -7.295581, 0.539075, 0.801945, -0.301801, -78.857727, -61.260239, -614.661743
1733469030.510301, -24.466796, -12.454787, -6.503550, 0.352420, 1.242817, -0.904729, -78.945618, -61.518753, -615.312744
1733469030.520305, -22.955306, -12.920309, -6.266524, 0.291195, 1.466287, -1.489538, -78.955917, -62.520950, -615.657349
1733469030.530296, -20.556615, -12.436681, -5.883751, 0.342089, 1.445833, -1.967040, -78.475800, -63.445053, -616.914185
1733469030.540301, -18.334048, -11.347618, -5.375282, 0.451842, 1.264893, -2.348374, -77.963593, -64.569199, -617.127808
1733469030.549953, -16.533309, -10.213515, -4.939388, 0.572502, 1.021343, -2.631163, -77.439362, -65.538757, -617.778076
1733469030.560319, -15.009400, -9.293842, -4.648642, 0.668538, 0.804872, -2.839006, -76.830734, -66.846497, -617.888367
1733469030.570311, -13.981390, -8.680627, -4.577414, 0.734941, 0.663843, -3.023312, -75.872803, -68.312775, -617.740845
1733469030.580312, -13.314155, -8.150012, -4.661810, 0.798206, 0.607142, -3.217793, -75.122482, -69.473480, -617.649780
1733469030.590313, -12.653954, -7.598298, -4.685004, 0.876083, 0.597961, -3.417664, -74.370087, -71.056870, -617.362976
1733469030.599479, -11.979538, -6.974908, -4.457555, 0.948630, 0.614274, -3.618264, -73.330017, -72.145111, -617.447449
1733469030.610301, -11.261128, -6.434417, -4.151396, 1.010070, 0.649258, -3.821757, -72.141800, -73.902740, -616.840698
1733469030.620308, -10.415076, -5.956325, -3.754407, 1.047625, 0.674819, -4.023395, -71.029449, -75.171692, -617.135376
1733469030.630302, -9.535357, -5.339219, -3.301305, 1.084863, 0.659791, -4.211127, -69.421249, -76.735550, -616.492493
1733469030.640293, -8.716091, -4.679467, -2.885911, 1.151473, 0.608785, -4.382868, -68.064697, -78.174774, -616.146484
1733469030.649335, -7.915979, -4.214842, -2.589030, 1.246926, 0.567565, -4.566903, -66.458359, -79.469193, -616.445190
1733469030.660309, -6.970718, -3.925892, -2.215684, 1.347713, 0.536826, -4.743843, -64.479980, -80.789642, -615.813110
1733469030.670307, -5.978770, -3.297564, -1.565808, 1.425693, 0.489214, -4.891858, -62.808304, -81.905228, -615.478027
1733469030.680312, -4.847061, -2.555511, -0.871938, 1.483997, 0.406271, -4.988233, -60.765182, -83.103348, -614.624390
1733469030.690295, -3.703531, -1.832911, -0.211887, 1.490364, 0.326636, -5.009197, -58.441437, -84.442047, -614.053955
1733469030.699397, -2.752135, -1.345242, 0.349553, 1.389557, 0.290585, -5.003236, -56.398376, -85.260910, -613.998596
1733469030.710300, -2.116175, -1.364396, 0.873884, 1.193550, 0.214481, -5.022953, -53.942749, -86.142471, -613.306763
1733469030.720308, -1.722628, -1.206528, 1.266982, 0.943668, 0.103172, -5.060486, -51.693420, -86.813034, -613.594910
1733469030.730305, -1.641824, -0.987459, 1.053149, 0.715568, 0.053239, -5.158684, -49.880203, -87.283203, -612.383545
1733469030.740296, -1.537826, -1.158494, 0.347010, 0.566340, 0.104621, -5.325986, -47.285187, -87.906601, -612.071411
1733469030.749358, -1.022474, -0.997185, -0.360776, 0.510089, 0.240690, -5.462308, -44.554901, -88.131287, -612.433594
1733469030.760300, -0.246603, -0.368408, -0.770334, 0.527040, 0.406746, -5.541831, -42.151276, -88.440323, -611.619141
1733469030.770308, 0.833930, 0.250643, -0.796222, 0.583180, 0.540452, -5.595162, -39.758743, -88.331223, -611.946167
1733469030.780297, 2.087445, 0.689530, -0.537349, 0.657030, 0.626974, -5.607119, -37.215912, -88.299271, -611.093079
1733469030.790303, 3.196708, 1.128417, -0.053570, 0.681781, 0.643568, -5.594191, -35.077957, -88.162582, -610.474304
1733469030.799362, 4.232500, 1.727416, 0.794276, 0.655814, 0.533159, -5.540889, -32.621597, -87.774551, -610.887085
1733469030.810292, 5.821651, 2.107197, 1.595885, 0.608463, 0.272561, -5.402735, -29.957886, -87.233170, -609.891968
1733469030.820297, 7.773823, 2.547730, 2.090737, 0.551930, -0.072801, -5.106966, -27.989487, -86.522049, -610.365967
1733469030.830357, 9.323021, 3.160346, 2.470367, 0.415842, -0.435112, -4.708655, -26.261154, -86.018570, -609.849609
1733469030.840290, 10.456975, 2.993949, 2.101959, 0.250139, -0.613752, -4.350568, -24.655350, -85.434860, -609.582947
1733469030.849377, 11.541548, 2.456152, 0.997335, 0.165055, -0.519750, -3.980674, -23.217224, -84.742355, -610.021851
1733469030.860292, 12.770672, 2.527678, 0.035464, 0.098506, -0.148841, -3.600075, -22.243240, -83.934341, -609.305725
1733469030.870350, 13.846716, 2.623895, -0.423026, 0.046773, 0.380091, -3.291383, -21.263229, -83.497650, -610.232544
1733469030.880287, 15.066412, 2.358438, 0.007482, 0.016747, 0.870340, -3.084821, -20.825760, -82.852661, -609.994690
1733469030.890297, 17.130812, 2.541595, 1.034594, -0.023811, 1.194759, -2.824375, -19.958160, -82.577530, -609.374146
1733469030.899393, 19.585617, 3.302801, 2.602348, -0.070695, 1.174554, -2.477690, -19.598465, -82.024200, -609.710876
1733469030.910298, 21.435287, 3.354426, 4.287866, -0.110191, 0.814452, -2.128739, -19.042496, -81.598404, -610.059326
1733469030.920302, 22.592585, 3.119645, 5.105186, -0.138852, 0.283645, -1.790377, -18.821289, -81.358337, -609.284790
1733469030.930297, 22.944383, 2.909404, 5.188534, -0.148465, -0.214988, -1.538271, -18.147720, -80.938309, -609.898071
1733469030.940303, 23.071275, 2.625841, 4.800374, -0.151297, -0.597381, -1.334890, -17.491745, -80.493469, -610.482178
1733469030.950302, 23.818715, 2.607585, 4.268413, -0.158585, -0.844311, -1.059986, -17.129730, -80.476074, -609.856079
1733469030.960296, 24.282442, 3.081188, 3.352780, -0.156655, -0.853888, -0.761697, -17.107437, -80.219742, -611.145142
1733469030.970298, 24.984093, 3.265392, 2.686145, -0.134764, -0.769008, -0.392595, -16.639069, -80.199829, -610.994019
1733469030.980301, 26.032753, 3.316568, 2.707543, -0.110181, -0.764037, 0.115331, -16.620468, -80.275513, -610.944824
1733469030.990299, 26.254067, 3.801094, 2.726846, -0.048872, -0.798676, 0.696287, -16.273956, -80.484421, -610.686462
1733469031.000294, 25.682900, 4.091242, 2.510171, -0.034361, -0.796063, 1.413734, -16.452194, -80.909607, -611.388672
1733469031.010287, 24.926782, 4.759224, 2.494459, -0.080789, -0.737621, 2.179623, -17.370667, -81.408173, -612.141296
1733469031.020285, 23.093871, 4.455310, 2.492663, -0.214078, -0.607689, 2.868395, -18.355499, -82.190262, -612.119446
1733469031.030284, 20.666749, 4.062511, 2.281973, -0.410119, -0.382280, 3.436673, -19.595306, -83.061600, -611.778625
1733469031.040280, 18.277036, 3.797054, 1.758840, -0.609684, -0.092808, 3.884305, -21.481583, -83.769836, -612.354065
1733469031.050301, 16.137069, 3.433285, 1.278055, -0.789057, 0.169957, 4.214882, -23.174393, -84.650101, -613.091431
1733469031.060290, 14.401722, 3.047669, 0.988955, -0.915506, 0.350245, 4.446609, -25.058258, -85.394928, -613.275940
1733469031.070288, 13.088801, 2.840271, 0.809091, -0.961195, 0.404253, 4.625627, -27.287796, -86.421951, -613.687988
1733469031.080284, 12.171223, 2.739266, 0.706439, -0.936629, 0.345299, 4.785605, -29.075546, -87.050125, -613.716064
1733469031.090279, 11.304373, 2.691980, 0.487819, -0.857958, 0.266803, 4.922351, -31.216614, -87.580002, -614.301941
1733469031.100296, 10.478523, 2.649633, 0.551115, -0.769085, 0.141366, 5.075168, -33.547180, -88.017715, -615.111938
1733469031.110337, 9.659556, 2.600851, 0.989105, -0.709469, -0.034401, 5.220975, -35.637238, -88.508102, -615.259583
1733469031.120282, 8.984092, 2.591274, 1.637484, -0.691912, -0.294760, 5.401649, -38.136414, -88.683426, -615.482910
1733469031.130277, 8.206575, 2.770241, 2.315343, -0.716099, -0.606285, 5.581898, -40.735748, -88.733536, -615.736145
1733469031.140280, 7.150882, 2.714426, 2.474108, -0.768985, -0.854085, 5.713656, -43.403595, -88.635223, -615.545044
1733469031.150283, 6.173599, 2.491316, 2.369063, -0.824116, -1.071968, 5.809657, -45.796509, -88.300903, -616.653198
1733469031.160296, 5.375282, 2.573318, 2.184859, -0.849847, -1.276676, 5.926009, -48.648102, -87.953796, -616.819031
1733469031.170295, 4.641010, 2.844012, 1.507449, -0.803694, -1.386252, 6.079408, -50.970871, -87.115082, -616.710815
1733469031.180279, 4.059219, 3.263447, 0.978630, -0.730346, -1.412278, 6.363994, -53.482635, -86.305496, -616.948303
1733469031.190281, 3.074155, 4.079420, 0.722151, -0.730791, -1.259878, 6.761807, -56.170471, -85.112381, -616.870361
1733469031.200278, 1.797896, 4.828057, 0.564134, -0.887191, -0.947822, 7.206228, -59.565903, -83.551758, -616.712036
1733469031.210278, -0.235230, 5.297770, 0.605583, -1.194817, -0.587396, 7.604808, -62.740341, -81.554199, -617.557617
1733469031.220288, -3.107823, 5.384111, 0.611270, -1.613385, -0.276966, 7.817209, -65.660507, -79.508194, -618.702393
1733469031.230289, -5.413290, 4.607641, 0.050877, -2.028806, -0.064080, 7.885310, -67.734802, -76.871719, -619.188782
1733469031.240282, -7.326407, 3.882048, -1.220145, -2.287792, 0.079059, 7.959680, -70.532822, -74.103394, -620.236023
1733469031.250279, -11.110442, 3.979762, -2.638859, -2.385048, 0.226338, 7.869092, -73.252029, -71.444214, -621.658081
1733469031.260281, -16.220417, 1.993771, -4.145710, -2.413394, 0.464094, 7.305231, -74.931366, -68.657410, -622.111145
1733469031.270281, -20.107104, -1.405247, -5.736208, -2.412408, 0.705777, 6.420829, -76.367340, -66.324036, -623.276184
1733469031.280281, -23.244406, -2.697667, -6.298995, -2.349181, 0.512524, 5.357802, -77.328506, -64.499191, -622.923096
1733469031.290285, -25.790789, -3.557335, -5.875521, -2.070002, -0.455663, 4.162085, -77.335464, -62.826492, -622.848877
1733469031.300281, -26.298360, -5.087679, -6.582259, -1.456699, -1.792118, 3.115791, -77.619171, -61.571442, -621.692810
1733469031.310278, -26.306291, -5.326799, -8.274361, -0.637039, -3.020289, 2.345402, -77.859955, -60.821442, -619.736206
1733469031.320280, -26.696845, -5.989395, -10.298359, 0.165951, -3.636486, 1.756041, -77.766418, -60.079498, -617.826721
1733469031.330278, -27.151145, -7.488165, -11.923274, 0.754394, -3.508197, 1.301370, -78.300262, -59.526779, -616.599548
1733469031.340289, -27.596167, -8.619425, -12.389545, 1.023920, -2.714849, 0.903693, -78.507080, -59.414124, -615.757996
1733469031.350280, -27.587338, -10.038738, -12.268937, 0.984623, -1.458020, 0.469667, -78.816116, -59.419785, -615.796570
1733469031.360297, -27.203667, -11.149947, -11.515063, 0.771774, -0.092838, -0.001956, -78.999146, -59.721100, -615.685669
1733469031.370280, -26.218603, -11.392060, -10.112659, 0.534340, 1.020950, -0.463859, -79.102875, -60.340515, -617.028870
1733469031.379451, -24.646510, -11.131691, -8.586355, 0.378552, 1.753022, -0.884938, -79.102875, -60.340515, -617.028870
1733469031.390284, -22.791453, -11.029488, -7.695413, 0.369296, 2.099881, -1.316638, -79.023941, -61.940399, -619.009460
1733469031.400279, -20.954352, -10.991331, -6.759729, 0.480693, 2.090602, -1.771978, -78.986954, -63.067734, -620.041260
1733469031.410275, -18.936339, -10.782736, -5.794866, 0.641705, 1.798652, -2.200403, -78.487549, -64.066162, -620.414856
1733469031.420271, -17.000927, -10.119243, -4.868609, 0.781829, 1.326638, -2.562541, -77.437744, -65.388031, -620.694519
1733469031.430276, -15.527595, -9.165154, -4.358195, 0.883753, 0.854688, -2.861626, -76.749390, -66.762802, -620.269104
1733469031.440287, -14.561235, -8.347085, -4.394707, 0.953479, 0.481228, -3.124665, -75.828720, -68.134430, -620.066589
1733469031.450293, -14.119056, -7.662194, -4.868459, 1.035313, 0.305212, -3.379366, -75.828720, -68.134430, -620.066589
1733469031.460275, -13.725509, -7.004536, -5.494992, 1.141855, 0.345412, -3.608603, -74.681458, -69.680054, -619.847168
1733469031.470295, -13.266421, -6.192453, -5.731270, 1.241810, 0.525019, -3.806713, -73.626968, -71.289093, -618.873352
1733469031.480278, -12.633454, -5.666178, -5.614852, 1.343779, 0.765415, -3.990207, -72.577103, -72.726608, -619.428040
1733469031.490281, -11.753286, -5.378125, -5.257068, 1.444404, 0.976998, -4.169665, -70.992676, -74.321747, -619.314331
1733469031.500299, -10.836306, -5.099500, -4.638915, 1.553373, 1.128026, -4.359367, -69.480576, -75.847046, -619.048340
1733469031.510281, -9.954043, -4.558710, -3.850774, 1.669413, 1.187332, -4.555087, -68.143478, -77.454987, -619.073120
1733469031.520269, -9.091981, -3.872472, -2.974347, 1.776626, 1.184707, -4.748477, -66.626297, -79.070740, -618.809204
1733469031.530279, -8.073697, -3.449745, -2.076671, 1.858576, 1.120859, -4.948501, -64.494217, -80.606888, -618.401855
1733469031.540424, -5.349993, -2.536657, -0.016460, 1.868565, 0.680192, -5.252821, -62.600677, -82.204437, -618.188721
1733469031.549947, -5.349993, -2.536657, -0.016460, 1.868565, 0.680192, -5.252821, -60.613922, -83.491943, -617.318298
1733469031.560263, -2.814683, -1.734150, 0.574010, 1.711280, 0.246576, -5.338541, -58.119568, -84.547867, -616.359131
1733469031.570271, -2.814683, -1.734150, 0.574010, 1.711280, 0.246576, -5.338541, -56.225021, -85.651459, -615.106445
1733469031.580276, -1.614141, -1.033547, 0.506673, 1.527534, -0.030600, -5.394833, -53.960815, -86.431839, -614.971069
1733469031.590289, -1.118391, -0.702399, 0.187795, 1.498544, -0.067946, -5.422349, -51.315262, -87.312424, -614.689575
1733469031.600273, -0.528969, -0.153079, 0.292542, 1.451435, -0.101727, -5.430285, -48.732117, -87.866852, -613.563843
1733469031.610284, 0.047285, 0.035464, 0.634613, 1.344984, -0.133416, -5.447173, -46.330841, -88.307816, -613.181274
1733469031.620273, 0.536451, 0.117765, 0.897077, 1.178439, -0.122494, -5.473496, -43.887360, -88.434341, -612.271851
1733469031.630269, 1.143830, 0.444573, 0.804452, 0.996310, -0.041149, -5.476754, -41.310089, -88.645798, -611.499512
1733469031.640276, 1.904438, 0.979528, 0.433051, 0.863393, 0.104163, -5.464945, -38.826782, -88.600967, -611.465027
1733469031.650271, 2.724901, 1.334618, 0.193033, 0.831032, 0.249977, -5.451900, -36.454819, -88.339813, -611.312439
1733469031.660270, 3.953425, 1.731307, 0.277428, 0.833584, 0.361977, -5.380267, -34.104813, -88.395691, -610.703430
1733469031.670275, 5.607071, 2.386271, 0.753725, 0.809139, 0.450807, -5.215248, -32.129486, -87.939133, -609.404053
1733469031.680279, 7.288399, 3.055001, 1.402254, 0.729936, 0.506298, -4.980517, -29.867889, -87.200150, -609.405762
1733469031.690273, 9.046790, 3.580080, 2.097620, 0.604661, 0.506554, -4.667307, -27.911957, -86.637756, -609.358948
1733469031.700268, 10.705224, 3.626318, 2.714426, 0.455487, 0.374862, -4.333464, -26.351746, -86.019852, -609.125244
1733469031.710276, 12.401366, 3.365948, 3.301305, 0.331096, 0.103555, -3.982559, -24.785858, -85.308014, -608.849426
1733469031.720276, 14.093468, 3.414132, 3.040636, 0.256162, -0.028537, -3.581295, -23.299652, -84.852783, -609.023926
1733469031.730268, 15.582662, 3.769072, 2.051980, 0.249518, 0.105481, -3.176826, -22.182190, -83.963654, -608.896240
1733469031.740283, 16.953492, 3.552696, 1.592593, 0.262511, 0.396920, -2.848075, -21.488281, -83.674332, -608.859253
1733469031.750275, 18.598607, 3.373430, 1.839944, 0.246813, 0.766428, -2.531934, -20.945480, -82.847748, -608.495361
1733469031.760270, 20.348021, 3.372383, 2.658162, 0.219664, 1.040251, -2.258185, -20.369293, -82.579300, -608.239502
1733469031.770270, 21.984906, 3.250877, 3.946243, 0.175779, 1.088926, -1.963664, -19.854645, -82.243912, -607.725586
1733469031.780268, 23.951743, 3.891027, 5.502324, 0.115781, 0.858353, -1.609761, -19.535599, -81.670792, -607.740601
1733469031.790284, 25.482087, 3.811569, 6.570138, 0.074150, 0.465892, -1.226356, -19.106293, -81.549957, -607.869629
1733469031.800276, 26.289232, 3.793313, 7.385364, 0.002290, -0.028173, -0.809159, -18.971817, -81.099564, -607.792236
1733469031.810269, 26.461615, 3.996222, 7.907599, -0.117502, -0.552600, -0.386747, -18.711014, -80.971268, -607.859741
1733469031.820267, 26.286987, 3.891027, 7.894880, -0.236647, -1.104744, 0.095444, -18.269318, -80.886734, -607.903442
1733469031.830274, 25.698463, 3.767127, 6.766313, -0.274209, -1.421009, 0.663999, -17.638870, -80.937347, -608.301270
1733469031.840269, 24.284088, 3.732261, 5.058948, -0.298386, -1.472821, 1.214902, -17.963470, -81.078110, -608.309326
1733469031.850288, 22.499211, 3.253271, 3.991134, -0.336702, -1.341904, 1.743925, -18.170349, -81.280579, -608.630371
1733469031.860264, 20.755933, 2.784905, 3.049614, -0.402606, -1.044550, 2.229306, -18.510590, -81.859772, -609.014587
1733469031.870265, 19.034651, 2.398242, 2.517204, -0.490038, -0.721391, 2.660346, -19.069290, -82.338272, -609.052795
1733469031.880264, 17.339557, 2.038064, 2.173037, -0.569107, -0.391981, 3.015982, -20.086090, -82.997955, -609.937256
1733469031.890263, 15.709554, 1.739687, 1.786374, -0.632675, -0.079395, 3.291806, -21.105270, -83.795074, -610.406982
1733469031.900266, 14.382568, 1.379808, 1.594538, -0.683563, 0.163732, 3.515772, -22.358200, -84.419418, -610.581421
1733469031.910265, 13.294703, 1.209221, 1.641525, -0.733369, 0.313346, 3.702386, -24.033020, -84.987793, -610.708374
1733469031.919977, 12.259510, 1.003320, 1.991976, -0.790569, 0.320396, 3.830678, -25.718597, -86.043045, -611.174561
1733469031.930261, 11.557859, 0.847996, 2.568529, -0.836352, 0.154264, 3.943761, -27.107468, -86.594513, -611.470947
1733469031.940278, 11.054628, 0.938527, 2.901772, -0.870135, -0.099618, 4.068669, -29.087341, -87.153183, -611.894714
1733469031.949954, 10.332177, 0.991050, 2.902521, -0.891784, -0.359122, 4.175541, -30.621490, -87.654007, -612.109985
1733469031.960262, 9.625289, 0.843208, 2.663549, -0.909492, -0.584307, 4.292583, -32.473328, -87.831787, -612.957458
1733469031.970270, 8.926033, 0.872088, 2.182464, -0.913149, -0.740638, 4.431922, -33.937012, -88.464157, -612.887878
1733469031.980263, 8.132504, 0.937180, 1.436521, -0.890161, -0.755270, 4.578273, -36.239365, -88.483307, -614.018311
1733469031.990271, 7.459285, 0.874333, 0.688034, -0.858397, -0.669902, 4.745045, -38.257217, -88.807281, -613.981628
1733469032.000263, 6.967875, 0.895132, 0.264859, -0.819758, -0.573661, 4.929367, -40.236404, -88.848953, -614.604309
1733469032.010269, 6.662914, 0.991499, 0.168791, -0.774943, -0.543986, 5.160512, -42.555389, -88.800903, -614.726196
1733469032.020267, 6.388628, 1.360056, 0.430657, -0.737221, -0.615180, 5.462359, -44.945450, -88.576294, -615.156433
1733469032.030313, 5.750573, 1.888277, 0.693720, -0.724239, -0.722671, 5.813314, -47.252213, -88.063187, -615.460632
1733469032.040266, 4.760271, 2.178574, 0.822109, -0.771933, -0.765525, 6.180448, -50.082077, -87.485382, -615.660828
1733469032.050275, 3.532345, 2.339285, 0.885106, -0.924974, -0.735406, 6.547341, -52.916351, -86.790955, -615.828979
1733469032.060268, 2.325668, 2.583643, 0.853383, -1.181488, -0.629597, 6.913638, -55.782486, -85.714172, -616.000427
1733469032.070319, 0.841861, 2.878429, 0.813280, -1.479903, -0.539844, 7.248918, -58.853058, -84.392044, -616.117310
1733469032.080258, -1.094599, 2.572121, 0.760309, -1.785488, -0.484172, 7.447513, -62.066040, -82.617996, -617.566528
1733469032.090254, -3.003077, 1.709011, 0.018555, -2.009968, -0.438707, 7.452524, -65.091293, -80.732025, -618.606506
1733469032.100255, -4.855142, 1.078588, -1.386093, -2.039260, -0.286034, 7.381077, -67.707428, -78.469864, -619.240479
1733469032.110296, -7.045088, 0.588076, -3.008464, -1.925471, 0.091894, 7.283751, -69.892212, -76.062790, -619.474487
1733469032.120266, -10.378715, 0.098761, -3.614945, -1.860729, 0.456734, 7.018225, -72.145721, -73.605789, -620.787292
1733469032.130255, -14.308647, -0.779762, -2.757222, -1.993700, 0.434380, 6.399115, -74.122055, -71.111328, -621.150024
1733469032.140260, -16.393997, -1.709610, -1.942296, -2.201006, -0.099825, 5.731048, -75.749252, -68.536560, -621.686157
1733469032.150312, -17.464803, -1.356764, -2.126051, -2.221411, -1.101065, 5.172804, -76.980621, -66.162949, -621.903076
1733469032.160265, -19.566314, -1.300201, -3.672406, -1.862727, -2.286434, 4.580487, -78.009384, -64.163071, -621.370178
1733469032.170255, -21.686828, -2.270451, -6.423793, -1.167246, -3.254750, 4.020019, -78.187225, -62.365952, -619.723450
1733469032.180256, -23.707385, -3.060538, -8.999056, -0.378933, -3.705249, 3.534590, -78.799927, -60.433548, -618.585938
1733469032.190323, -26.127025, -4.498855, -10.619781, 0.221249, -3.540096, 3.007656, -79.203476, -58.947830, -616.588989
1733469032.200263, -28.176910, -6.574478, -10.913370, 0.483973, -2.841311, 2.408043, -79.247162, -57.696152, -615.325256
1733469032.210260, -29.410972, -8.554632, -10.780043, 0.468154, -1.748031, 1.739124, -79.718338, -56.876465, -614.727539
1733469032.220271, -29.616275, -10.086323, -10.287735, 0.326598, -0.554098, 1.052701, -80.259705, -56.239868, -614.103821
1733469032.230148, -29.322386, -10.837952, -9.480590, 0.191964, 0.478825, 0.348761, -80.024475, -56.328278, -614.609314
1733469032.240269, -28.469602, -11.278037, -8.665963, 0.142679, 1.213333, -0.346564, -80.647858, -56.387085, -615.262390
1733469032.250264, -26.947189, -11.194838, -7.782652, 0.189214, 1.603346, -1.009789, -80.956589, -56.749847, -615.559387
1733469032.260260, -24.872014, -10.861894, -6.866421, 0.304676, 1.706003, -1.622315, -80.678894, -57.817215, -616.400696
1733469032.270263, -22.289269, -10.545710, -6.138733, 0.468865, 1.647820, -2.132418, -80.151611, -58.999146, -617.296021
1733469032.280266, -19.470546, -10.066870, -5.409100, 0.606297, 1.450355, -2.504977, -80.066849, -60.000931, -618.041626
1733469032.290267, -16.964116, -9.294889, -4.489727, 0.664304, 1.140161, -2.752517, -79.713882, -61.274033, -618.052246
1733469032.300265, -15.216648, -8.448838, -3.969586, 0.650369, 0.834887, -2.938433, -79.032303, -62.555664, -618.504272
1733469032.310255, -14.066084, -8.049156, -4.260033, 0.649195, 0.636558, -3.099620, -78.270752, -64.211609, -618.831787
1733469032.320251, -13.362638, -7.721749, -4.789301, 0.708940, 0.536520, -3.270854, -77.711365, -65.582535, -618.697327
1733469032.330263, -13.090597, -7.281216, -4.996998, 0.801654, 0.495387, -3.475621, -76.631790, -67.081024, -619.145325
1733469032.340262, -12.615198, -6.727856, -5.008071, 0.902730, 0.497895, -3.674485, -75.638809, -68.648514, -619.039062
1733469032.350253, -12.019042, -6.069451, -4.956596, 1.014940, 0.555041, -3.847023, -74.505325, -70.384552, -618.864014
1733469032.360251, -11.540351, -5.639692, -4.795586, 1.141283, 0.693394, -4.055895, -73.609985, -71.982056, -618.593384
1733469032.370250, -10.893318, -5.340865, -4.386028, 1.247280, 0.857742, -4.275556, -72.394760, -73.467621, -617.916687
1733469032.380312, -9.913641, -4.858733, -3.700388, 1.320576, 0.976698, -4.462052, -70.907974, -75.135742, -618.591187
1733469032.390249, -8.782830, -4.261529, -2.898331, 1.371014, 1.043132, -4.613525, -69.356079, -76.648376, -618.639648
1733469032.400251, -7.687931, -3.721338, -2.065597, 1.392559, 1.030057, -4.754330, -67.704330, -78.057785, -617.920410
1733469032.410303, -6.717382, -3.352032, -1.338359, 1.406653, 0.955999, -4.889489, -65.744354, -80.006622, -618.002014
1733469032.420253, -5.833173, -2.981829, -0.827047, 1.417584, 0.869048, -5.030841, -63.902267, -81.372681, -617.457397
1733469032.430253, -4.979640, -2.610278, -0.375890, 1.417749, 0.748227, -5.167541, -61.859177, -82.697021, -616.912537
1733469032.440261, -4.189554, -2.012326, 0.115520, 1.402418, 0.592292, -5.272887, -59.731430, -83.844986, -616.360901
1733469032.450308, -3.613000, -1.583914, 0.450858, 1.373102, 0.442413, -5.403267, -57.285767, -84.799408, -616.261230
1733469032.460252, -2.861071, -1.368586, 0.606182, 1.331584, 0.308767, -5.512030, -54.855820, -85.951309, -615.368713
1733469032.470262, -2.024447, -0.869843, 0.695366, 1.253210, 0.207056, -5.561675, -52.430481, -86.910919, -614.409546
1733469032.480264, -1.225981, -0.615011, 0.737713, 1.141723, 0.158093, -5.597729, -50.149094, -87.492828, -614.498413
1733469032.490260, -0.567725, -0.414347, 0.768539, 1.000944, 0.129402, -5.632983, -47.401047, -87.888474, -614.118347
1733469032.500259, 0.069432, -0.041749, 0.793977, 0.862937, 0.109339, -5.666173, -44.692581, -88.388062, -613.367554
1733469032.510249, 0.773477, 0.444274, 0.731429, 0.782273, 0.065944, -5.676265, -42.272430, -88.518188, -613.370239
1733469032.520297, 1.436072, 0.956334, 0.541688, 0.774515, 0.026909, -5.666666, -39.864487, -88.715317, -612.618652
1733469032.530247, 2.378639, 1.138892, 0.288801, 0.828580, -0.014826, -5.634370, -37.252060, -88.767288, -612.654907
1733469032.540257, 3.666271, 1.422605, 0.279972, 0.879184, -0.053409, -5.520333, -35.084091, -88.486420, -611.846375
1733469032.549954, 5.190031, 1.772308, 0.700154, 0.860619, -0.106478, -5.341981, -32.584473, -88.031204, -611.468994
1733469032.560268, 6.922535, 2.085050, 1.172560, 0.761736, -0.212226, -5.081162, -30.366501, -87.525818, -610.976807
1733469032.570264, 8.848670, 2.554763, 1.674445, 0.649050, -0.387342, -4.713529, -28.494766, -87.235184, -610.704834
1733469032.580259, 10.474932, 2.729390, 2.246360, 0.511620, -0.611370, -4.356003, -27.020752, -86.730194, -610.745972
1733469032.590244, 11.703756, 2.488024, 2.207005, 0.370378, -0.696290, -4.020262, -25.336670, -85.977478, -610.847473
1733469032.600298, 12.688820, 2.311602, 1.528398, 0.223214, -0.467379, -3.698342, -24.141556, -85.392731, -611.020691
1733469032.610244, 13.651139, 2.243217, 0.740856, 0.058168, 0.058269, -3.454051, -23.203720, -84.911118, -610.989319
1733469032.620242, 15.089905, 2.035520, 0.171485, -0.062210, 0.759162, -3.219153, -22.301941, -84.217896, -610.847412
1733469032.630308, 17.625664, 2.302324, 0.584933, -0.125293, 1.296553, -2.846083, -21.233902, -83.842545, -610.998901
1733469032.640249, 20.136732, 2.845509, 2.053477, -0.208382, 1.481809, -2.388165, -20.951538, -83.457504, -610.602295
1733469032.650247, 21.890485, 2.977489, 3.647117, -0.283550, 1.326373, -1.924530, -20.649734, -83.041382, -610.663269
1733469032.660246, 22.989873, 2.969858, 4.637569, -0.316460, 0.932719, -1.476772, -20.379211, -82.954559, -611.160828
1733469032.670244, 23.536648, 2.697816, 5.139752, -0.313800, 0.403465, -1.082114, -20.320480, -82.841949, -611.128418
1733469032.680245, 23.422475, 2.371008, 5.121048, -0.290980, -0.088143, -0.805947, -20.282974, -82.811401, -611.478455
1733469032.690254, 23.157317, 2.003498, 4.784662, -0.244144, -0.541047, -0.597532, -19.643173, -82.402374, -611.430176
1733469032.700266, 23.181708, 1.892167, 4.405032, -0.175990, -0.926215, -0.359313, -19.334488, -82.342010, -611.775146
1733469032.710334, 23.176620, 2.118868, 3.688717, -0.104199, -1.130898, -0.061632, -19.209915, -82.259399, -611.764771
1733469032.720256, 23.181259, 2.293795, 3.107524, -0.047890, -1.258150, 0.332035, -18.911270, -82.431686, -612.344971
1733469032.730281, 22.952463, 2.398840, 2.842965, -0.021004, -1.321122, 0.817943, -18.929169, -82.734360, -612.248413
1733469032.740362, 22.002863, 2.431013, 2.371008, -0.038470, -1.238072, 1.322549, -19.354294, -82.779358, -612.355042
1733469032.750290, 20.512023, 2.198925, 1.784578, -0.110618, -0.997093, 1.807908, -19.932327, -83.307739, -612.801208
1733469032.760253, 18.920179, 1.842937, 1.368586, -0.221995, -0.653194, 2.241635, -20.531830, -83.761429, -612.982239
1733469032.770262, 17.481114, 1.692102, 1.111807, -0.338950, -0.290748, 2.629188, -21.949814, -84.376602, -612.933838
1733469032.780258, 16.340576, 1.578078, 1.231368, -0.455609, -0.071291, 2.970983, -23.175034, -85.056992, -613.104004
1733469032.790253, 15.275605, 1.491588, 1.536928, -0.533312, 0.016843, 3.283024, -24.230377, -85.490555, -613.496948
1733469032.800244, 14.287548, 1.434127, 1.642572, -0.578279, 0.026800, 3.550034, -25.699570, -86.333740, -614.124268
1733469032.810252, 13.382839, 1.280748, 1.784578, -0.612102, -0.043078, 3.789331, -27.161026, -86.810059, -614.189270
1733469032.820248, 12.412290, 1.091307, 1.937059, -0.637778, -0.169889, 3.997622, -29.004822, -87.339737, -614.730225
1733469032.830236, 11.322030, 1.010652, 1.989881, -0.655907, -0.316947, 4.185577, -31.079391, -87.718918, -614.701416
1733469032.840243, 10.291775, 0.889745, 1.832462, -0.668037, -0.432462, 4.345668, -32.749557, -88.029053, -614.929321
1733469032.850263, 9.442282, 0.811485, 1.593940, -0.673548, -0.517621, 4.515797, -34.867874, -88.544037, -615.733582
1733469032.860250, 8.608651, 1.017835, 1.202189, -0.686770, -0.525979, 4.730263, -37.079742, -88.797012, -615.533020
1733469032.870239, 7.779360, 1.221043, 0.688333, -0.689569, -0.460498, 4.964376, -38.997635, -88.827927, -616.354553
1733469032.880239, 6.974609, 1.296161, 0.427066, -0.697711, -0.381570, 5.210792, -41.709747, -88.781006, -616.683594
1733469032.890237, 5.966051, 1.473332, 0.534655, -0.734531, -0.343137, 5.454807, -43.965256, -88.609528, -616.641235
1733469032.900248, 4.753687, 1.494131, 0.819116, -0.804683, -0.346080, 5.638470, -46.542892, -88.334213, -617.242737
1733469032.910237, 3.763386, 1.360954, 1.038186, -0.913126, -0.377005, 5.797592, -49.365631, -87.687881, -617.690735
1733469032.920237, 2.861969, 1.444901, 1.173458, -1.041302, -0.449306, 5.949475, -49.365631, -87.687881, -617.690735
1733469032.930252, 1.885733, 1.537826, 1.132158, -1.156013, -0.502419, 6.059465, -52.228714, -87.079819, -618.185364
1733469032.939789, 1.265485, 1.495927, 0.748487, -1.246802, -0.533305, 6.181293, -54.868271, -85.987564, -618.557068
1733469032.950252, 0.818967, 1.778443, 0.419434, -1.318349, -0.536258, 6.350605, -57.405685, -85.003189, -619.093994
1733469032.960252, 0.273388, 2.397793, 0.035314, -1.387589, -0.446810, 6.595960, -60.093811, -83.507782, -619.682800
1733469032.970259, -0.686837, 2.912696, -0.206350, -1.493773, -0.300645, 6.836059, -63.008469, -82.063156, -620.009949
1733469032.980252, -1.863437, 2.844910, -0.334739, -1.670437, -0.099458, 7.011040, -65.461365, -79.978836, -620.996338
1733469032.990240, -2.879027, 3.029563, -0.424971, -1.897353, 0.118555, 7.179529, -68.198776, -77.847244, -621.367371
1733469033.000239, -4.346224, 3.338714, -0.428712, -2.159038, 0.269021, 7.316286, -70.441956, -75.239197, -622.652893
1733469033.010237, -7.076961, 3.495086, -0.219668, -2.479083, 0.228250, 7.304181, -72.696274, -72.555923, -623.334106
1733469033.020236, -10.181193, 2.893991, -0.110283, -2.848933, -0.152130, 7.031371, -74.928635, -69.620407, -623.955200
1733469033.029593, -13.389573, 1.589750, -0.989703, -3.076669, -0.699218, 6.519815, -76.513657, -66.727158, -624.600342
1733469033.040242, -16.886454, 0.299574, -3.441815, -2.993561, -1.103618, 5.860159, -77.708252, -63.967957, -625.141357
1733469033.050247, -19.775507, -0.857872, -6.337601, -2.659712, -1.279168, 5.150176, -78.897537, -61.161438, -625.008911
1733469033.060253, -21.280562, -1.922544, -8.497171, -2.279951, -1.374920, 4.521242, -79.356537, -58.846878, -624.534058
1733469033.070240, -22.344037, -2.549825, -9.737368, -1.908764, -1.516039, 3.948931, -80.097321, -56.753326, -623.284729
1733469033.080236, -23.839066, -3.628562, -10.843040, -1.455587, -1.696922, 3.324380, -80.660751, -55.004196, -623.644165
1733469033.090241, -25.096321, -5.152921, -11.841572, -0.929528, -1.910961, 2.681242, -80.905457, -53.656647, -623.060242
1733469033.100236, -25.887605, -6.301988, -12.472893, -0.414171, -2.098430, 2.077930, -81.234833, -52.518311, -622.064941
1733469033.110253, -26.348189, -6.967276, -12.866440, 0.032378, -2.064741, 1.549461, -81.318878, -51.546616, -620.823669
1733469033.120235, -26.496630, -7.975834, -13.557616, 0.391668, -1.626561, 1.075757, -81.386841, -51.224243, -620.002441
1733469033.130258, -26.502915, -9.010728, -13.605051, 0.591068, -0.943142, 0.619078, -81.344208, -51.038544, -620.101074
1733469033.140252, -26.467151, -9.558401, -12.666674, 0.603755, -0.188627, 0.143711, -81.630768, -50.874588, -619.765869
1733469033.150236, -25.941025, -9.871293, -11.741614, 0.506983, 0.567701, -0.332967, -81.578430, -51.038101, -619.976929
1733469033.160237, -24.993370, -9.940127, -10.850073, 0.382727, 1.183128, -0.797402, -81.779053, -51.401352, -620.203369
1733469033.170234, -23.586328, -9.887005, -10.040534, 0.315661, 1.573888, -1.243753, -81.766418, -52.068146, -620.697998
1733469033.180247, -21.680095, -9.665392, -9.413253, 0.359692, 1.678642, -1.642476, -81.867981, -53.095779, -622.147156
1733469033.190235, -19.741390, -8.990676, -8.913912, 0.521607, 1.550795, -2.000811, -81.454590, -54.108322, -623.213013
1733469033.200237, -17.875409, -8.251766, -8.511088, 0.756922, 1.252342, -2.299043, -81.620728, -55.218750, -623.294067
1733469033.210281, -16.312294, -7.479636, -8.003816, 0.999651, 0.853436, -2.532199, -81.145187, -56.454041, -623.579285
1733469033.220250, -15.285930, -6.630442, -7.725191, 1.220261, 0.533009, -2.732261, -80.459915, -57.847549, -623.818909
1733469033.230234, -14.775217, -5.878513, -7.563433, 1.384900, 0.360990, -2.928419, -80.047699, -59.309906, -623.202393
1733469033.240242, -14.361020, -5.479130, -7.460781, 1.507000, 0.360007, -3.134555, -79.019180, -61.056732, -623.708252
1733469033.250236, -13.924976, -5.021090, -7.232734, 1.618696, 0.483443, -3.328132, -78.726440, -62.358032, -623.084290
1733469033.260233, -13.342736, -4.543596, -6.792649, 1.729437, 0.675849, -3.514590, -78.169495, -64.036285, -622.900818
1733469033.270250, -12.698846, -4.080917, -6.163573, 1.822166, 0.902302, -3.688318, -76.871765, -65.901566, -622.371277
1733469033.280235, -12.014702, -3.571101, -5.357026, 1.889797, 1.106575, -3.867251, -76.022705, -67.640121, -622.886780
1733469033.290229, -11.159075, -3.268085, -4.442591, 1.938313, 1.231080, -4.054766, -74.883453, -69.337753, -623.268250
1733469033.300224, -10.289680, -3.000084, -3.420267, 1.975258, 1.236376, -4.247134, -73.806961, -71.185898, -622.925781
1733469033.310231, -9.336489, -2.517952, -2.486079, 1.985693, 1.145092, -4.455898, -72.470734, -73.013519, -622.770020
1733469033.320241, -8.449287, -2.002750, -1.658583, 1.969558, 0.945477, -4.659591, -70.950638, -74.810730, -622.643738
1733469033.330245, -7.536049, -1.707365, -1.176301, 1.964568, 0.714682, -4.864796, -69.329483, -76.598785, -621.731567
1733469033.340247, -6.606799, -1.571195, -1.001674, 1.981086, 0.494950, -5.066718, -67.567780, -78.424072, -621.377991
1733469033.350234, -5.731270, -1.374721, -0.813280, 1.994298, 0.318035, -5.255629, -65.488708, -79.904449, -620.349609
1733469033.360228, -4.774936, -1.158045, -0.722600, 1.990870, 0.200973, -5.415025, -63.221283, -81.566681, -620.148621
1733469033.370225, -3.733309, -0.923264, -0.693720, 1.967371, 0.155689, -5.537103, -61.147247, -82.988434, -618.556091
1733469033.380286, -2.847005, -0.436942, -0.447267, 1.926072, 0.093763, -5.617506, -58.512970, -84.218842, -618.291382
1733469033.390226, -2.027590, -0.025887, -0.127342, 1.886856, 0.011595, -5.686284, -56.292603, -85.352264, -617.702759
1733469033.400221, -1.224933, 0.125546, 0.087239, 1.863042, -0.080328, -5.722628, -53.827881, -86.419220, -616.512512
1733469033.410227, -0.447716, 0.426018, 0.324863, 1.826042, -0.169338, -5.723464, -51.248795, -87.045151, -615.711060
1733469033.420286, 0.108787, 0.464625, 0.566827, 1.756846, -0.252520, -5.746252, -48.731354, -87.786530, -614.614136
1733469033.430225, 0.621894, 0.335488, 0.635212, 1.664471, -0.268731, -5.773275, -45.971191, -88.150238, -613.783020
1733469033.439994, 1.302446, 0.583736, 0.579546, 1.568125, -0.212158, -5.769413, -43.516022, -88.496323, -613.016846
1733469033.450224, 2.181417, 0.924611, 0.584036, 1.485436, -0.112596, -5.724144, -41.017090, -88.691925, -612.436523
1733469033.460227, 3.243245, 1.081880, 0.715118, 1.394194, 0.009965, -5.652149, -38.566025, -88.466171, -611.856628
1733469033.470237, 4.274697, 1.210419, 0.943615, 1.314608, 0.124134, -5.552783, -36.081497, -88.468246, -610.607971
1733469033.480239, 5.390395, 1.347936, 1.364845, 1.242350, 0.192715, -5.395089, -33.569138, -87.942886, -610.400024
1733469033.490225, 6.590938, 1.480514, 1.993023, 1.116822, 0.225885, -5.175551, -31.491180, -87.626297, -610.257996
1733469033.500295, 7.665486, 1.495777, 2.518850, 0.904692, 0.319306, -4.927937, -29.543411, -87.158218, -609.435913
1733469033.510228, 8.947281, 1.500566, 2.934393, 0.636917, 0.449418, -4.630199, -27.747452, -86.673935, -609.320251
1733469033.520227, 10.756101, 1.696442, 3.397223, 0.353104, 0.531525, -4.248795, -25.985214, -85.902405, -609.224731
1733469033.530217, 12.422166, 1.988085, 3.951929, 0.069295, 0.536029, -3.811631, -24.761780, -85.224106, -609.076538
1733469033.540230, 13.478906, 1.974019, 4.109498, -0.167646, 0.504136, -3.435255, -24.032547, -84.873642, -608.743530
1733469033.549872, 14.243854, 1.588852, 3.635745, -0.307177, 0.571271, -3.166765, -22.933853, -84.627335, -609.483643
1733469033.560233, 15.108610, 1.461211, 2.652775, -0.315906, 0.836428, -2.964723, -22.022171, -83.797653, -609.015869
1733469033.570277, 16.186898, 1.503259, 2.031929, -0.250714, 1.173697, -2.805474, -21.245300, -83.533539, -608.911560
1733469033.580243, 17.581521, 1.633145, 2.653823, -0.205432, 1.308878, -2.628683, -20.482666, -83.007706, -609.458252
1733469033.590224, 19.129821, 2.075025, 3.934571, -0.164073, 1.143427, -2.387338, -19.720917, -82.627289, -609.271790
1733469033.600239, 20.681413, 2.475455, 4.972757, -0.076203, 0.683335, -2.053417, -19.169113, -82.256195, -609.062988
1733469033.610231, 21.769129, 2.724302, 5.696853, 0.027956, 0.038505, -1.672674, -18.531830, -81.760620, -608.959595
1733469033.620233, 22.041619, 2.702904, 5.885097, 0.100729, -0.545094, -1.310317, -18.090851, -81.479370, -609.334839
1733469033.630227, 21.502175, 2.605789, 5.064036, 0.157467, -0.759683, -1.037411, -17.548996, -81.193588, -609.292480
1733469033.640226, 21.098603, 2.520645, 4.413561, 0.148573, -0.756837, -0.799892, -17.395401, -81.068497, -609.112427
1733469033.650237, 21.513548, 2.403928, 4.568735, 0.077580, -0.745669, -0.490022, -16.869919, -80.887115, -609.275818
1733469033.660225, 21.872229, 2.654272, 4.683956, -0.006334, -0.722411, -0.091097, -16.771179, -80.829178, -609.384033
1733469033.670231, 21.697752, 2.851644, 4.563797, -0.118226, -0.688856, 0.369423, -16.827271, -80.856583, -609.221436
1733469033.680235, 20.929363, 2.681356, 4.307917, -0.266371, -0.604167, 0.841938, -16.951981, -81.290985, -609.917358
1733469033.690229, 19.973178, 2.477699, 3.880552, -0.427452, -0.480642, 1.311071, -17.419159, -81.792130, -610.403503
1733469033.700222, 19.428946, 2.468572, 3.869628, -0.578731, -0.483692, 1.790524, -17.912781, -82.349854, -610.715637
1733469033.710280, 18.854637, 2.474407, 4.076428, -0.700867, -0.621128, 2.229087, -18.814880, -82.846970, -611.376221
1733469033.720226, 17.810317, 2.403030, 3.689914, -0.773177, -0.703402, 2.600605, -19.632248, -83.440063, -611.713989
1733469033.730237, 16.663195, 2.281525, 2.972850, -0.803615, -0.694564, 2.928083, -20.694794, -84.142441, -612.156433
1733469033.740221, 15.704317, 2.203713, 2.552369, -0.819995, -0.663875, 3.238933, -22.030914, -84.832245, -612.750000
1733469033.750279, 14.878766, 2.192640, 2.440440, -0.840465, -0.664595, 3.537569, -23.560333, -85.497589, -613.046936
1733469033.760220, 14.111873, 2.185008, 2.302324, -0.856418, -0.667495, 3.830358, -25.164627, -86.073257, -613.648193
1733469033.770234, 13.341838, 2.170493, 2.125752, -0.885579, -0.662041, 4.136583, -26.834244, -87.095917, -613.649841
1733469033.780283, 12.557438, 2.187851, 1.986589, -0.936178, -0.672526, 4.448863, -28.589752, -87.444351, -614.580322
1733469033.790228, 11.573720, 2.228852, 1.828422, -0.982304, -0.675640, 4.751171, -30.784637, -88.039688, -615.299377
1733469033.800218, 10.477176, 2.236035, 1.568801, -1.022223, -0.648699, 5.020035, -33.100357, -88.647354, -615.721375
1733469033.810220, 9.475652, 2.200421, 1.349881, -1.045931, -0.644171, 5.275248, -35.627625, -88.801376, -616.265747
1733469033.820219, 8.552837, 2.158223, 1.275511, -1.063339, -0.676355, 5.517529, -37.830414, -89.088715, -617.001587
1733469033.830211, 7.560290, 2.203264, 1.147122, -1.078148, -0.716040, 5.745807, -40.878052, -89.098495, -617.187988
1733469033.840224, 6.506692, 2.228403, 0.985663, -1.076953, -0.750779, 5.961225, -43.515076, -88.901215, -617.958008
1733469033.850224, 5.584176, 2.316240, 0.935684, -1.066983, -0.842727, 6.203743, -46.246948, -88.473633, -618.300171
1733469033.860217, 4.705205, 2.586935, 0.925209, -1.058738, -0.918126, 6.477918, -49.295380, -87.765884, -618.458008
1733469033.870213, 3.715202, 2.949656, 0.716465, -1.098425, -0.882324, 6.784202, -52.299301, -86.996597, -618.683716
1733469033.880214, 2.533514, 3.395726, 0.631321, -1.204997, -0.763739, 7.099201, -55.673553, -85.691498, -619.817017
1733469033.890280, 1.271321, 3.614945, 0.722301, -1.383455, -0.614114, 7.380042, -58.795242, -84.252197, -620.362061
1733469033.900211, -0.126593, 3.631854, 0.985813, -1.640917, -0.449008, 7.604774, -61.884003, -82.314957, -621.527100
1733469033.910213, -1.585410, 3.773262, 1.218349, -1.974819, -0.324869, 7.769059, -65.100861, -80.133621, -621.916016
1733469033.920277, -3.017891, 3.985747, 1.297358, -2.354022, -0.271019, 7.877120, -68.129684, -77.617783, -622.804993
1733469033.929774, -4.692186, 3.994127, 0.895581, -2.756135, -0.272978, 7.925256, -70.697235, -74.551544, -623.701538
1733469033.940218, -6.650643, 4.186711, -0.233435, -3.088220, -0.290381, 7.895557, -73.022003, -71.670135, -624.737061
1733469033.950224, -9.165902, 4.394108, -2.243217, -3.218793, -0.162161, 7.760981, -75.316742, -68.650345, -625.726624
1733469033.960219, -12.673557, 3.515137, -4.556166, -3.129122, 0.071036, 7.387761, -77.035950, -65.534088, -626.581116
1733469033.970230, -16.221913, 1.939752, -6.051195, -2.920485, 0.050059, 6.717050, -78.173660, -62.695786, -626.558411
1733469033.980223, -18.420688, 1.052102, -6.544999, -2.069984, -1.441154, 5.248631, -79.514877, -60.040054, -626.584595
1733469033.990235, -20.314203, -0.226102, -8.437466, -2.069984, -1.441154, 5.248631, -80.134796, -57.507797, -625.950684
1733469034.000360, -21.767034, -1.223287, -9.351003, -1.312175, -2.355864, 4.620350, -80.487350, -55.689682, -624.206055
1733469034.009879, -21.767034, -1.223287, -9.351003, -0.543369, -3.096943, 4.010975, -80.987656, -53.990143, -623.075500
1733469034.020219, -24.706665, -3.885340, -9.804705, 0.052730, -3.549817, 3.450814, -81.111862, -52.386810, -621.091553
1733469034.030264, -24.706665, -3.885340, -9.804705, 0.436262, -3.604377, 2.888665, -81.413116, -51.134125, -619.733582
1733469034.040222, -26.127623, -6.383241, -10.424204, 0.651545, -3.167929, 2.385717, -81.433609, -50.252289, -618.200928
1733469034.050229, -26.596288, -7.265355, -10.046669, 0.705576, -2.378843, 1.933551, -81.894608, -49.382919, -617.697449
1733469034.060211, -26.901250, -8.244583, -9.577704, 0.603607, -1.451079, 1.459025, -82.108536, -49.087784, -616.703003
1733469034.070209, -27.036073, -8.854207, -8.999205, 0.429044, -0.498821, 0.948692, -82.469254, -48.887436, -616.739197
1733469034.080215, -26.761937, -9.334094, -8.453477, 0.089289, 0.950845, -0.249688, -82.395859, -49.028809, -617.625732
1733469034.090227, -25.677663, -9.724499, -8.239346, 0.018814, 1.434519, -0.862253, -82.599152, -49.322784, -618.347473
1733469034.100213, -23.887848, -9.676316, -8.022970, 0.029083, 1.689764, -1.411443, -82.674622, -50.277405, -619.696472
1733469034.110217, -21.625178, -8.929474, -7.659201, 0.121235, 1.718009, -1.847822, -82.368484, -51.248016, -620.316833
1733469034.120215, -19.391238, -7.920019, -7.369652, 0.279621, 1.585406, -2.170213, -82.443771, -52.329254, -620.905396
1733469034.130224, -17.573889, -6.911162, -7.148488, 0.470780, 1.373958, -2.405388, -82.147949, -53.423279, -621.503113
1733469034.140210, -16.200665, -6.231957, -7.024139, 0.671929, 1.165565, -2.604145, -81.732391, -54.907410, -621.946594
1733469034.150208, -15.355212, -5.935376, -6.819734, 0.846715, 0.963407, -2.806170, -81.432953, -56.211304, -622.322510
1733469034.160205, -14.966753, -5.522076, -6.501604, 0.987059, 0.808287, -3.048173, -80.812622, -57.711960, -623.144409
1733469034.170211, -14.605378, -5.109226, -6.327276, 1.096914, 0.736258, -3.295614, -80.181381, -59.326843, -622.645020
1733469034.180207, -14.236372, -4.632631, -6.171354, 1.191816, 0.754891, -3.549247, -79.472961, -60.915482, -622.825439
1733469034.190211, -13.854198, -4.181024, -5.986103, 1.302011, 0.833977, -3.801679, -78.696594, -62.866638, -622.696716
1733469034.200209, -13.374459, -3.798850, -5.724087, 1.426231, 0.964353, -4.070498, -77.959534, -64.866608, -623.246643
1733469034.210206, -12.554296, -3.817255, -5.440674, 1.554388, 1.091821, -4.337340, -76.741516, -66.742661, -623.284119
1733469034.220211, -11.385476, -3.823390, -4.792743, 1.656903, 1.114975, -4.579573, -75.640701, -68.696671, -623.331116
1733469034.230003, -10.285640, -3.284845, -3.951181, 1.733388, 1.046005, -4.796880, -74.166870, -70.689087, -623.101929
1733469034.240227, -9.126248, -2.547431, -3.145233, 1.790519, 0.896876, -4.970146, -72.436722, -72.758423, -622.695923
1733469034.250208, -8.076989, -1.819593, -2.428469, 1.855379, 0.677912, -5.110674, -70.836380, -74.682755, -622.638306
1733469034.260217, -7.155072, -1.461211, -1.923142, 1.944770, 0.440865, -5.255610, -69.198410, -76.771484, -621.984436
1733469034.270210, -6.307674, -1.342997, -1.506252, 2.044581, 0.196391, -5.415881, -67.202316, -78.443329, -621.517151
1733469034.280220, -5.698649, -1.076194, -0.995988, 2.109429, 0.003323, -5.569694, -64.799942, -80.354599, -620.586853
1733469034.290212, -5.068525, -0.944513, -0.733224, 2.120118, -0.082769, -5.736462, -62.580719, -81.760193, -619.662231
1733469034.300205, -4.320337, -0.894384, -0.243760, 2.077751, -0.147196, -5.887017, -60.200500, -83.373032, -618.725769
1733469034.310220, -3.418022, -0.614113, 0.311097, 1.968140, -0.226818, -6.004538, -57.735992, -84.789673, -617.970337
1733469034.320207, -2.362778, -0.549918, 0.607529, 1.834110, -0.343284, -6.092889, -55.121323, -85.887238, -617.039124
1733469034.330213, -1.475277, -0.390554, 0.695665, 1.697139, -0.449799, -6.168119, -52.419067, -86.786346, -615.908264
1733469034.340205, -0.814627, 0.145747, 0.728436, 1.550355, -0.515356, -6.215887, -49.453171, -87.531113, -614.955750
1733469034.349846, -0.299275, 0.574608, 0.610970, 1.402049, -0.482044, -6.242192, -49.453171, -87.531113, -614.955750
1733469034.360200, 0.205452, 0.909198, 0.502932, 1.261227, -0.385097, -6.267948, -43.823761, -88.489471, -613.414917
1733469034.370216, 0.676362, 1.156699, 0.604985, 1.140517, -0.302546, -6.312431, -41.066147, -88.644623, -613.072021
1733469034.380206, 1.451934, 1.290475, 0.746991, 1.033361, -0.226304, -6.320668, -41.066147, -88.644623, -613.072021
1733469034.390240, 2.645892, 1.707515, 0.988207, 0.886886, -0.200038, -6.282895, -38.279221, -88.669754, -612.486328
1733469034.400205, 3.900603, 1.865831, 1.096095, 0.753322, -0.241805, -6.230537, -35.124115, -88.587784, -612.264832
1733469034.410283, 5.285350, 2.154931, 0.727987, 0.695023, -0.261552, -6.081676, -32.294022, -88.288284, -611.903870
1733469034.420205, 6.833949, 2.718466, 0.691026, 0.657134, -0.325823, -5.827886, -29.749115, -87.704483, -611.530457
1733469034.430206, 8.277054, 3.271078, 1.168819, 0.553214, -0.495811, -5.510323, -27.445374, -87.049591, -611.155518
1733469034.440205, 9.586234, 3.507206, 1.594239, 0.438697, -0.738513, -5.199248, -25.224915, -86.218246, -610.822998
1733469034.450207, 10.792313, 3.528006, 1.623119, 0.374974, -1.027233, -4.855445, -23.061722, -85.530685, -610.924805
1733469034.460250, 11.991958, 3.556736, 1.543961, 0.294979, -1.169427, -4.472881, -21.036926, -84.650208, -610.872498
1733469034.470211, 13.571382, 3.543418, 1.107318, 0.099651, -1.058239, -4.000767, -19.490082, -83.613876, -610.235291
1733469034.480202, 15.021820, 3.827880, 0.928052, -0.187741, -0.731557, -3.490950, -18.175827, -82.760941, -611.022156
1733469034.490259, 16.165949, 3.795558, 0.191087, -0.484306, -0.083698, -3.062113, -17.162674, -82.159439, -611.854004
1733469034.500202, 17.264139, 3.908385, -0.587328, -0.722933, 0.807455, -2.712150, -16.588593, -81.246277, -611.260925
1733469034.510196, 19.257611, 4.324527, -0.403573, -0.935228, 1.614758, -2.367813, -16.002045, -80.902328, -611.767456
1733469034.520242, 22.043564, 4.824466, 0.913986, -1.069187, 1.975706, -1.979823, -15.709564, -80.541672, -611.832153
1733469034.530207, 24.302194, 5.366453, 2.186355, -1.051142, 1.937128, -1.643621, -15.491638, -80.301941, -612.062561
1733469034.540206, 25.964219, 5.662885, 2.723853, -0.837180, 1.583772, -1.325789, -15.749939, -79.890091, -612.214600
1733469034.549859, 27.946469, 6.087108, 3.728520, -0.513345, 0.789820, -0.898134, -15.466110, -79.685776, -612.389832
1733469034.560210, 29.516466, 6.685210, 5.065831, -0.199186, -0.305667, -0.344004, -15.363190, -79.620773, -612.313660
1733469034.570215, 29.769204, 6.889764, 5.295824, 0.047067, -1.275303, 0.289025, -14.927505, -79.646957, -611.956665
1733469034.580200, 28.955924, 6.594080, 3.918261, 0.200080, -1.702560, 1.017327, -14.588806, -79.512238, -613.043396
1733469034.590197, 27.477504, 6.414066, 2.543390, 0.225426, -1.719575, 1.813415, -14.496490, -79.801773, -613.251282
1733469034.600258, 25.376293, 6.083367, 1.656488, 0.139452, -1.414745, 2.596900, -14.684372, -80.365524, -613.003540
1733469034.610197, 23.184850, 5.465663, 0.894384, -0.023982, -0.950308, 3.313169, -15.729584, -80.983505, -613.447266
1733469034.620201, 20.771046, 4.926818, 0.540341, -0.209722, -0.469518, 3.914402, -16.997437, -81.746216, -613.514954
1733469034.630203, 18.261624, 4.254347, 0.284910, -0.381836, -0.015770, 4.361170, -18.326157, -82.715851, -613.829529
1733469034.640197, 16.050279, 3.545214, 0.143203, -0.504308, 0.327173, 4.667810, -20.308640, -83.847610, -613.990051
1733469034.650195, 14.177864, 3.036297, 0.307056, -0.560877, 0.500182, 4.877366, -22.072388, -84.837112, -614.348755
1733469034.660206, 12.488156, 2.580800, 0.923114, -0.598869, 0.477077, 4.986196, -24.324905, -85.723145, -614.332031
1733469034.670197, 11.038616, 1.886930, 1.764078, -0.657021, 0.267735, 5.011142, -26.157059, -86.711761, -614.090149
1733469034.680246, 9.931148, 1.471536, 2.316390, -0.700380, -0.050722, 5.008769, -28.495453, -87.196182, -614.958008
1733469034.690196, 9.104700, 1.296610, 2.381931, -0.694580, -0.379145, 5.021038, -30.392365, -87.821976, -615.656616
1733469034.700192, 8.586804, 1.278803, 2.148347, -0.634402, -0.692532, 5.088050, -32.682129, -88.214310, -615.930847
1733469034.710192, 8.165275, 1.356764, 1.811812, -0.540230, -0.934076, 5.212871, -35.035187, -88.626999, -616.063965
1733469034.720209, 7.746888, 1.505654, 1.494131, -0.466114, -1.024185, 5.382132, -37.312805, -88.974365, -616.594238
1733469034.729446, 7.246201, 1.746869, 1.364994, -0.427151, -1.026531, 5.602709, -39.533417, -88.934235, -616.335815
1733469034.740208, 6.686407, 2.076521, 1.549797, -0.441096, -0.997243, 5.875134, -41.971466, -88.828094, -616.670349
1733469034.750202, 5.779603, 2.512864, 1.840692, -0.506199, -0.944345, 6.159265, -44.622086, -88.702698, -616.958496
1733469034.760261, 4.777031, 2.799570, 2.289306, -0.633588, -0.919885, 6.446472, -47.397369, -88.248581, -617.566284
1733469034.770203, 3.845836, 3.210325, 2.698116, -0.835807, -0.891827, 6.781040, -50.347183, -87.537445, -616.821411
1733469034.780192, 2.671630, 3.887585, 2.715474, -1.092003, -0.771708, 7.149466, -53.435669, -86.417328, -617.716064
1733469034.790209, 1.265186, 4.302680, 2.462586, -1.417122, -0.534108, 7.482243, -56.615189, -85.096085, -618.257446
1733469034.800203, 0.247351, 4.438251, 1.799691, -1.795431, -0.213890, 7.808757, -59.650375, -83.516312, -618.837524
1733469034.810194, -0.508917, 5.176264, 0.743250, -2.162720, 0.202457, 8.201296, -62.888641, -81.544418, -619.555847
1733469034.820206, -1.611597, 6.272210, -0.487819, -2.474444, 0.707160, 8.627097, -65.835480, -79.017776, -620.752136
1733469034.830207, -3.923049, 7.005733, -1.425747, -2.767290, 1.285473, 9.003926, -68.911682, -75.813385, -622.056152
1733469034.840200, -7.963713, 6.764966, -1.731606, -3.200352, 1.847115, 9.044187, -71.819366, -72.556763, -623.669006
1733469034.849863, -12.315474, 5.483769, -1.713799, -3.819370, 2.056727, 8.673038, -74.409882, -68.820663, -625.601868
1733469034.860085, -15.642068, 4.526388, -2.011279, -4.324744, 1.665502, 8.007626, -76.629395, -65.085541, -627.483521
1733469034.870202, -18.142512, 3.679589, -3.697695, -4.330089, 0.866058, 7.183451, -77.979553, -61.553543, -628.165161
1733469034.880203, -21.025879, 2.404377, -6.816891, -3.787036, 0.082341, 6.248765, -78.831818, -58.155640, -629.670410
1733469034.890208, -24.725818, 0.903213, -8.920346, -3.141655, -0.719462, 5.082656, -79.556488, -55.398514, -629.560181
1733469034.900204, -26.951528, -0.495600, -9.153931, -2.724898, -1.661117, 3.890266, -80.315674, -52.799454, -628.783875
1733469034.910200, -27.163714, -1.939303, -10.188824, -2.311830, -2.370630, 2.859607, -80.437424, -51.140060, -628.482361
1733469034.920204, -26.400114, -3.073856, -12.553697, -1.768606, -2.721750, 2.100800, -80.688675, -49.738541, -627.540588
1733469034.930203, -25.452907, -3.043928, -14.266150, -1.206981, -2.736197, 1.609253, -80.693985, -48.836700, -626.265015
1733469034.940206, -24.782381, -3.123236, -15.515474, -0.722313, -2.350728, 1.280721, -81.024811, -47.963364, -625.144287
1733469034.950198, -24.567053, -3.969137, -16.320076, -0.366014, -1.605804, 1.005787, -81.295746, -47.404312, -624.004395
1733469034.960191, -24.238149, -4.889409, -16.546178, -0.133623, -0.622782, 0.773124, -81.344421, -46.979752, -623.779602
1733469034.970201, -24.181886, -5.432144, -16.040403, -0.037250, 0.408392, 0.475029, -81.655563, -46.893738, -623.620422
1733469034.980201, -24.227824, -5.897517, -14.932037, 0.004686, 1.268817, 0.073481, -81.598373, -46.907928, -624.968445
1733469034.990194, -23.511958, -6.748357, -14.015058, 0.103680, 1.836763, -0.409412, -82.164047, -47.226486, -626.303894
1733469035.000204, -22.148610, -7.543531, -13.174394, 0.323019, 2.026023, -0.957242, -82.077759, -47.707230, -627.035278
1733469035.010195, -20.403536, -7.543381, -12.125584, 0.631489, 1.872590, -1.497351, -82.222702, -48.622452, -627.757568
1733469035.020200, -18.528577, -6.863129, -10.920702, 0.965881, 1.451272, -1.967902, -81.821915, -49.723053, -628.542786
1733469035.029447, -16.760758, -5.866692, -9.897480, 1.279645, 0.949772, -2.336116, -81.479767, -51.020294, -628.780090
1733469035.040245, -15.373169, -4.867861, -9.056816, 1.516062, 0.525470, -2.605203, -81.368378, -52.118301, -628.606689
1733469035.050195, -14.338874, -4.444386, -8.317756, 1.620777, 0.260376, -2.828484, -80.897110, -53.742722, -628.470215
1733469035.060196, -13.692439, -4.065504, -7.872285, 1.634458, 0.201248, -3.003851, -80.432541, -55.353439, -628.361633
1733469035.070202, -13.252056, -3.687370, -7.723395, 1.602756, 0.330688, -3.164352, -79.653183, -57.139160, -627.805481
1733469035.080198, -12.933028, -3.397821, -7.545626, 1.569190, 0.562641, -3.322241, -78.903214, -58.841370, -628.338867
1733469035.090184, -12.713959, -3.137152, -7.197868, 1.549526, 0.812738, -3.525113, -78.386429, -60.740738, -628.790039
1733469035.100192, -12.234670, -3.148674, -6.853253, 1.567715, 1.012886, -3.756335, -77.636948, -62.564636, -628.551636
1733469035.110192, -11.556213, -3.260304, -6.487239, 1.641126, 1.121803, -4.017004, -76.837845, -64.378143, -628.556213
1733469035.120194, -10.757148, -3.071761, -6.057929, 1.775889, 1.118056, -4.292248, -75.777710, -66.499176, -628.690796
1733469035.130194, -9.851990, -2.557007, -5.482722, 1.960895, 0.992792, -4.551166, -74.525757, -68.388077, -628.524109
1733469035.140203, -8.823082, -1.967286, -4.841076, 2.185260, 0.788079, -4.772472, -72.987259, -70.561630, -627.912598
1733469035.150187, -7.942165, -1.246182, -4.103512, 2.397758, 0.596636, -4.945994, -71.372467, -72.615677, -627.555176
1733469035.160197, -7.076063, -0.706140, -3.330484, 2.525873, 0.451106, -5.099201, -69.651245, -74.861374, -627.061279
1733469035.170193, -6.344634, -0.522983, -2.353201, 2.563437, 0.288625, -5.229964, -67.883698, -76.964111, -625.519104
1733469035.180193, -5.611410, -0.594660, -1.478719, 2.497303, 0.148871, -5.379278, -65.910324, -78.511810, -624.982544
1733469035.190185, -4.914099, -1.036989, -0.966060, 2.365929, 0.047497, -5.552984, -63.763763, -80.579056, -624.026489
1733469035.200244, -4.391115, -1.220893, -0.485724, 2.192550, -0.048907, -5.739990, -61.413773, -82.170792, -623.648193
1733469035.210184, -4.002058, -1.070208, -0.180463, 2.007366, -0.101707, -5.956995, -59.119553, -83.561646, -622.700806
1733469035.220213, -3.580379, -1.103577, -0.130933, 1.847318, -0.120386, -6.209599, -56.471954, -84.885086, -622.043091
1733469035.230197, -2.896834, -0.860566, -0.040402, 1.730025, -0.156582, -6.440374, -53.647156, -86.080154, -621.044434
1733469035.240192, -2.001553, -0.007332, 0.138714, 1.649595, -0.246472, -6.599364, -50.691345, -87.074203, -620.187317
1733469035.250200, -1.022623, 0.581342, 0.300173, 1.581328, -0.388465, -6.735066, -47.851685, -87.810760, -619.591614
1733469035.260189, 0.110582, 0.562937, 0.437989, 1.539875, -0.642130, -6.864466, -44.483902, -88.371384, -618.480957
1733469035.270189, 1.303044, 0.702698, 0.544232, 1.493754, -0.909504, -6.941369, -41.444824, -88.970551, -617.232544
1733469035.280190, 2.355446, 1.397166, 0.714968, 1.398938, -1.162163, -6.966366, -38.227417, -88.673401, -617.228210
1733469035.290182, 3.394230, 2.149694, 0.666935, 1.245313, -1.288183, -6.903408, -34.937424, -88.570526, -616.500610
1733469035.300199, 4.922778, 2.801515, 0.237026, 1.060277, -1.200399, -6.681626, -31.767715, -88.111008, -615.561462
1733469035.310185, 6.947075, 3.267487, -0.065242, 0.822260, -0.901477, -6.320820, -29.238861, -87.341095, -615.643066
1733469035.320189, 8.917054, 3.364602, -0.205901, 0.531839, -0.400559, -5.856174, -26.877380, -86.956192, -615.342163
1733469035.330186, 11.488277, 3.600430, 0.013916, 0.189432, 0.096955, -5.230276, -24.816055, -86.307312, -615.328735
1733469035.340191, 14.615554, 4.136283, 0.773776, -0.167530, 0.453988, -4.411111, -23.297745, -85.460785, -615.255981
1733469035.350178, 16.634165, 4.165013, 0.854580, -0.469780, 0.844984, -3.601949, -22.491943, -84.892441, -615.668274
1733469035.360178, 17.115699, 3.281702, 0.278924, -0.688252, 1.312656, -3.025790, -21.683777, -84.365997, -615.412842
1733469035.370181, 17.230172, 2.473061, 0.142455, -0.811547, 1.661708, -2.606410, -20.928192, -84.031830, -614.936829
1733469035.380229, 17.592145, 2.429516, 0.303465, -0.853445, 1.851372, -2.297052, -20.439163, -83.734283, -615.615417
1733469035.390176, 17.840843, 2.352902, 0.330400, -0.780432, 1.907420, -2.137029, -20.094330, -83.248398, -615.963379
1733469035.400198, 18.378640, 2.247557, 0.515651, -0.590420, 1.765525, -2.050195, -19.248566, -82.947845, -615.728882
1733469035.410181, 19.650859, 2.663549, 1.130961, -0.333358, 1.340037, -1.900675, -18.916122, -82.379730, -615.481079
1733469035.420183, 21.053712, 3.088221, 2.137424, -0.061457, 0.636369, -1.713382, -18.234970, -82.156754, -615.679199
1733469035.429724, 22.029648, 3.462016, 2.865560, 0.194625, -0.132707, -1.513601, -17.749512, -81.898193, -615.271179
1733469035.440189, 22.822278, 3.672705, 2.925116, 0.356573, -0.748924, -1.262802, -17.079468, -81.431198, -615.137695
1733469035.450182, 23.481582, 3.701286, 2.623147, 0.397581, -1.111852, -0.896533, -16.594421, -81.021194, -615.273682
1733469035.460179, 23.699454, 4.033182, 2.041655, 0.366766, -1.202443, -0.395345, -16.106644, -80.915375, -615.265686
1733469035.470187, 23.540838, 4.312855, 1.401805, 0.298216, -1.094047, 0.223131, -16.078629, -81.184692, -615.028320
1733469035.480177, 23.088933, 4.353556, 0.923713, 0.207108, -0.857091, 0.906587, -16.267776, -81.379120, -615.873169
1733469035.490196, 22.124518, 4.157082, 0.510863, 0.101029, -0.518076, 1.597349, -16.683258, -81.990997, -615.902710
1733469035.500201, 20.733487, 3.842095, 0.251092, -0.028336, -0.122259, 2.233036, -17.692017, -82.648163, -615.899170
1733469035.510189, 18.960132, 3.460370, 0.309451, -0.144698, 0.218235, 2.716918, -18.831680, -83.098785, -616.205078
1733469035.520036, 17.361853, 3.051709, 0.856825, -0.246699, 0.349413, 3.082702, -20.388321, -83.849670, -616.167114
1733469035.530184, 16.163854, 2.758719, 1.442955, -0.321098, 0.297728, 3.383329, -21.758972, -84.608688, -616.505371
1733469035.540177, 14.947300, 2.587683, 1.673397, -0.345191, 0.130612, 3.633262, -23.083160, -85.228714, -616.492981
1733469035.549827, 13.841179, 2.423980, 1.949030, -0.336880, -0.123483, 3.837963, -24.755402, -85.966476, -616.633179
1733469035.560190, 12.772318, 2.178724, 2.168847, -0.322299, -0.405280, 4.019691, -26.525009, -86.422409, -616.316406
1733469035.570174, 11.800721, 1.939004, 2.090437, -0.308749, -0.631403, 4.189346, -28.119904, -87.110428, -616.449280
1733469035.580178, 10.956316, 1.811513, 1.831864, -0.293113, -0.780213, 4.390842, -30.010803, -87.637909, -616.691284
1733469035.590191, 10.282198, 1.793257, 1.473930, -0.288676, -0.830131, 4.625878, -32.223007, -88.005280, -617.507202
1733469035.600181, 9.552116, 1.664419, 1.053000, -0.303975, -0.769431, 4.853775, -34.623260, -88.410187, -618.013184
1733469035.610194, 8.895058, 1.526752, 0.687136, -0.333076, -0.664777, 5.101376, -36.608047, -88.602142, -618.000854
1733469035.620176, 8.320749, 1.572093, 0.401178, -0.361863, -0.546987, 5.394402, -39.268677, -88.540726, -617.922791
1733469035.630185, 7.561637, 1.760486, 0.264110, -0.379771, -0.444878, 5.695959, -41.849487, -88.733826, -618.453247
1733469035.640173, 6.580314, 1.795053, 0.244807, -0.400183, -0.341790, 5.961187, -44.735519, -88.504623, -618.689331
1733469035.650184, 5.802497, 1.804330, 0.512808, -0.443117, -0.330076, 6.256830, -47.449448, -88.038605, -618.825195
1733469035.660186, 5.086033, 2.102558, 1.063923, -0.520456, -0.407894, 6.597758, -50.457947, -87.339081, -618.914551
1733469035.670181, 4.225916, 2.582895, 1.360355, -0.626126, -0.495553, 6.983686, -53.495544, -86.121429, -618.830688
1733469035.680189, 3.224241, 3.292775, 1.509993, -0.759529, -0.558440, 7.434955, -56.988098, -84.703735, -619.672607
1733469035.690181, 2.065597, 4.078074, 1.691503, -0.968884, -0.578707, 7.894310, -60.368774, -82.968933, -619.347961
1733469035.700178, 0.474800, 4.344578, 1.959205, -1.275704, -0.583597, 8.275305, -63.627075, -80.867111, -619.869446
1733469035.710173, -1.219696, 4.378845, 1.659481, -1.652875, -0.447468, 8.590213, -67.198334, -78.034241, -620.822205
1733469035.720185, -3.119495, 4.761319, 0.590919, -2.031213, -0.145149, 8.859699, -70.123123, -74.927277, -621.250305
1733469035.730171, -5.123143, 5.310788, -1.057040, -2.352210, 0.446123, 9.120831, -72.794357, -71.591629, -623.199158
1733469035.740183, -7.346757, 5.654206, -2.832341, -2.657435, 1.234960, 9.304309, -75.537918, -67.792816, -624.413391
1733469035.750172, -10.417620, 5.443966, -3.477428, -3.049793, 1.829068, 9.233090, -77.980713, -64.102188, -626.120178
1733469035.760172, -15.227871, 4.801871, -2.605490, -3.507342, 1.566362, 8.622164, -79.938782, -60.434357, -627.355835
1733469035.770188, -20.122367, 3.292327, -1.583764, -3.733465, 0.265073, 7.444368, -80.853607, -57.131149, -627.271851
1733469035.780183, -23.475895, 1.283292, -3.132214, -3.346499, -1.418409, 6.086561, -81.464706, -54.309586, -626.321716
1733469035.789573, -25.317186, -0.689530, -6.915951, -2.422718, -2.719441, 4.805243, -81.464706, -54.309586, -626.321716
1733469035.800168, -26.583420, -2.027290, -9.948806, -1.542471, -3.495805, 3.670870, -81.682846, -50.186890, -622.275452
1733469035.810181, -27.050738, -2.144756, -10.914567, -0.976373, -3.868475, 2.808975, -81.387741, -49.152390, -620.865601
1733469035.820176, -26.360011, -2.265364, -12.334927, -0.522340, -3.631090, 2.333337, -81.387741, -49.152390, -620.865601
1733469035.830177, -25.887156, -2.277185, -13.705907, -0.114420, -2.944326, 2.106148, -81.407028, -48.053223, -619.878052
1733469035.840199, -26.122386, -3.373879, -14.296227, 0.197344, -1.963259, 1.905234, -81.403275, -47.219849, -618.550659
1733469035.850053, -27.101764, -4.912154, -14.091373, 0.380946, -0.853854, 1.611212, -81.669327, -46.443375, -618.122192
1733469035.860199, -28.363359, -6.282086, -13.326725, 0.384083, 0.272340, 1.149197, -82.058563, -45.619797, -618.233521
1733469035.870178, -29.100623, -7.576302, -12.062587, 0.244321, 1.154836, 0.551636, -82.377808, -45.676285, -618.746887
1733469035.879422, -29.055134, -8.187272, -10.757298, 0.147565, 1.650263, -0.134196, -82.827087, -45.681778, -620.148682
1733469035.890186, -28.242901, -8.301445, -10.163685, 0.244619, 1.833427, -0.851711, -82.899384, -46.254837, -621.063965
1733469035.900179, -26.397570, -8.597129, -9.998635, 0.507854, 1.738134, -1.547561, -82.911133, -47.044037, -621.698547
1733469035.910183, -24.133104, -8.723573, -9.507674, 0.851046, 1.433561, -2.179762, -82.809448, -48.341293, -623.157288
1733469035.920162, -21.791126, -7.990049, -8.781034, 1.194572, 1.029317, -2.676264, -82.683609, -49.729248, -623.637817
1733469035.930169, -19.708021, -6.878392, -7.767688, 1.444850, 0.587019, -3.072590, -82.225830, -51.235352, -623.451050
1733469035.940176, -18.027740, -5.999720, -6.914454, 1.577551, 0.260872, -3.369578, -81.997406, -52.918442, -623.116272
1733469035.950175, -16.721254, -5.309142, -6.436213, 1.580692, 0.123877, -3.614568, -81.575012, -54.797806, -622.930969
1733469035.960169, -15.881937, -4.742913, -6.102970, 1.510025, 0.140638, -3.822613, -81.047409, -56.661652, -622.673889
1733469035.970172, -15.133150, -4.050690, -6.055535, 1.441717, 0.302462, -4.006244, -80.055115, -58.587799, -622.038330
1733469035.980172, -14.382418, -3.349338, -6.187665, 1.427221, 0.538133, -4.156361, -79.214386, -60.743713, -622.712341
1733469035.990199, -13.618668, -2.866608, -6.177639, 1.475900, 0.786759, -4.304420, -78.584167, -62.740799, -622.480347
1733469036.000169, -12.884097, -2.714276, -6.131999, 1.574401, 1.048367, -4.466496, -77.473312, -64.744049, -622.840393
1733469036.010164, -12.128726, -2.483236, -5.932682, 1.737469, 1.284548, -4.649724, -76.284500, -66.798782, -622.794067
1733469036.020199, -11.341782, -2.119317, -5.345354, 1.948662, 1.441576, -4.850969, -75.067368, -69.003052, -622.572021
1733469036.030177, -10.403554, -1.687613, -4.353257, 2.162915, 1.487034, -5.044279, -73.642853, -71.239685, -622.954651
1733469036.040171, -9.170391, -1.326238, -3.175310, 2.339774, 1.404696, -5.227586, -72.189850, -73.251297, -622.943237
1733469036.050197, -7.963115, -1.014543, -1.935712, 2.460235, 1.213628, -5.421181, -70.416748, -75.283569, -622.558838
1733469036.060179, -6.818986, -0.916680, -0.762404, 2.505770, 0.936425, -5.631991, -68.426102, -77.201889, -621.740051
1733469036.069904, -5.746383, -0.563236, 0.321422, 2.459380, 0.614114, -5.803261, -66.341888, -79.195496, -620.744324
1733469036.080178, -4.797830, -0.033818, 1.171812, 2.322410, 0.266096, -5.935402, -64.001312, -81.040054, -620.727234
1733469036.090180, -3.790769, 0.255731, 1.376367, 2.175738, -0.004163, -6.043325, -61.464096, -82.468567, -619.262146
1733469036.100172, -2.894141, 0.622941, 1.290624, 2.058987, -0.199104, -6.093414, -58.719452, -83.784561, -618.156921
1733469036.110166, -2.169296, 0.862362, 1.299752, 1.961199, -0.319640, -6.115798, -56.226471, -85.089340, -617.128174
1733469036.120211, -1.430087, 0.941669, 1.356166, 1.817453, -0.348054, -6.081710, -53.369949, -86.243973, -616.581360
1733469036.130167, -0.755371, 1.198148, 1.391779, 1.590684, -0.260737, -6.036427, -50.774048, -86.983505, -615.762207
