SamplingTime, AccelerationX, AccelerationY, AccelerationZ, GyroX, GyroY, GyroZ, MagneticFieldX, MagneticFieldY, MagneticFieldZ
1733469105.129194, 7.102549, -6.573281, 0.794276, -0.606323, 0.519000, -0.086409, , , 
1733469105.139069, 6.718728, -6.968773, 0.752079, -0.412833, 0.239785, -0.277223, -17.988510, -82.486099, -610.516907
1733469105.149187, 6.696283, -7.101651, 0.434997, -0.197743, -0.020699, -0.463616, -17.856842, -82.492935, -610.057739
1733469105.158474, 7.009923, -7.033267, 0.016460, 0.018610, -0.183190, -0.586149, -17.563156, -82.395279, -609.826843
1733469105.169214, 7.474997, -6.881235, -0.492308, 0.244492, -0.204244, -0.613045, -17.224350, -81.940918, -610.283691
1733469105.179208, 7.668778, -7.046884, -0.680253, 0.501102, -0.257539, -0.602968, -16.706741, -81.893890, -610.035767
1733469105.189213, 7.523180, -7.262362, -0.346561, 0.675521, -0.272449, -0.611740, -16.444916, -81.556168, -609.649414
1733469105.199215, 7.371448, -7.059453, 0.033968, 0.739721, -0.257032, -0.582881, -16.156967, -81.315598, -609.499146
1733469105.209184, 7.076213, -6.980145, 0.272789, 0.735488, -0.187801, -0.566077, -16.004440, -81.024658, -608.801819
1733469105.219201, 6.585252, -7.087735, 0.101454, 0.687684, -0.007541, -0.596795, -15.653976, -80.763550, -609.222778
1733469105.229070, 6.016629, -6.956054, 0.335338, 0.599334, 0.166762, -0.679650, -15.589935, -80.735275, -608.484253
1733469105.239194, 5.526416, -6.690746, 0.861314, 0.474317, 0.234524, -0.807231, -15.388000, -80.805222, -608.582458
1733469105.249186, 5.124190, -6.510732, 1.360206, 0.371840, 0.155304, -0.992325, -15.037140, -80.302307, -608.355774
1733469105.259187, 4.973655, -6.356156, 1.638981, 0.281545, -0.012061, -1.199027, -14.372238, -79.742401, -607.255859
1733469105.269177, 5.170877, -5.939116, 1.260547, 0.207815, -0.117752, -1.362787, -13.631592, -79.437164, -608.145691
1733469105.279188, 5.482572, -5.434688, 0.491560, 0.165580, -0.108335, -1.478242, -13.257401, -79.154434, -607.646179
1733469105.289192, 5.512799, -5.046379, 0.072874, 0.171578, -0.122554, -1.594483, -12.756500, -78.888748, -608.264282
1733469105.299193, 5.550957, -4.891653, 0.037559, 0.208277, -0.069306, -1.779585, -12.142944, -78.031952, -607.850464
1733469105.309188, 6.004957, -4.280833, -0.906654, 0.279697, 0.059402, -1.883157, -11.510956, -77.495575, -607.244507
1733469105.319185, 6.654833, -3.456928, -0.508020, 0.407112, -0.002846, -1.896095, -11.044678, -76.889175, -607.703552
1733469105.329178, 7.024139, -3.228731, -0.125396, 0.531432, -0.104570, -1.940556, -10.354446, -76.344040, -606.939270
1733469105.339182, 6.919542, -2.936039, -0.287304, 0.639765, -0.155177, -2.020353, -9.611328, -75.709442, -607.149414
1733469105.348775, 6.932112, -2.322376, -0.157119, 0.733807, -0.262421, -2.064931, -8.894211, -74.805679, -606.346558
1733469105.359189, 6.859238, -1.711106, 0.315286, 0.819999, -0.428967, -2.123688, -8.264511, -74.030457, -606.872620
1733469105.369241, 6.444742, -1.319205, 0.480187, 0.890017, -0.568457, -2.219963, -7.181519, -73.309830, -606.616638
1733469105.379168, 6.238541, -0.894833, 0.361674, 0.928978, -0.635628, -2.311852, -6.500946, -72.380493, -606.117554
1733469105.389170, 6.360197, -0.407762, 0.321122, 0.908562, -0.642255, -2.382500, -5.812500, -71.871353, -606.588745
1733469105.399171, 6.583306, 0.195127, 0.652869, 0.858486, -0.770677, -2.435685, -5.130966, -70.610443, -606.286255
1733469105.409224, 6.594978, 0.841412, 1.418564, 0.842742, -1.252175, -2.509433, -4.212814, -69.934555, -606.043579
1733469105.419183, 6.339846, 1.024269, 1.280898, 0.909879, -1.762928, -2.614462, -3.132324, -68.717072, -607.086975
1733469105.429166, 6.126463, 1.060482, -0.266355, 1.025259, -1.955322, -2.745740, -2.101440, -67.613052, -606.791687
1733469105.439172, 6.260388, 1.727865, -1.426196, 1.109474, -1.871903, -2.815407, -1.246094, -66.385803, -607.282837
1733469105.449171, 6.795044, 2.452111, -1.817798, 1.094851, -1.614806, -2.817767, -0.438049, -65.023880, -607.940430
1733469105.459162, 7.401375, 3.211223, -1.735946, 0.974125, -1.278780, -2.797277, 0.514511, -63.987503, -607.453186
1733469105.469177, 8.057536, 4.138527, -1.820940, 0.812779, -0.813871, -2.748255, 0.826935, -62.866119, -608.225647
1733469105.479164, 8.641422, 4.833744, -1.504456, 0.655718, -0.432980, -2.685079, 1.043243, -61.813004, -607.540710
1733469105.488276, 9.364770, 5.512649, -0.735918, 0.497391, -0.200025, -2.675472, 1.482697, -60.617889, -607.533691
1733469105.499177, 10.740987, 6.785766, -0.155174, 0.309266, -0.029372, -2.627817, 1.747711, -59.506409, -608.093628
1733469105.509160, 12.539332, 8.332869, 0.443675, 0.118617, 0.010152, -2.508326, 1.934372, -58.613968, -607.668884
1733469105.519222, 14.126688, 10.101137, 0.993294, -0.067517, 0.006797, -2.390024, 1.740005, -57.512161, -607.710938
1733469105.529154, 16.762554, 12.122442, 1.162086, -0.291974, -0.007176, -2.095705, 2.171707, -56.989944, -607.477600
1733469105.539179, 20.174142, 13.816489, 0.820912, -0.419386, -0.095096, -1.536553, 2.399689, -56.399887, -607.428345
1733469105.549167, 22.644060, 14.999673, 0.111480, -0.391756, -0.217812, -0.796478, 2.377716, -55.942780, -608.097778
1733469105.559169, 24.002021, 15.793052, -0.455347, -0.328558, -0.271569, 0.029381, 2.388092, -56.146530, -607.311401
1733469105.569159, 24.083274, 16.141708, -0.453252, -0.306577, -0.262440, 0.843858, 2.347046, -56.751648, -608.315308
1733469105.579152, 23.102550, 16.163555, -0.179864, -0.356620, -0.124401, 1.569926, 2.263962, -57.520233, -607.992432
1733469105.589168, 21.862952, 15.969175, 0.301520, -0.466442, 0.011907, 2.222752, 1.784363, -58.517365, -608.158997
1733469105.599169, 20.589985, 15.581015, 0.667384, -0.561265, 0.111786, 2.786059, 1.342087, -59.626480, -608.849365
1733469105.609165, 19.386449, 14.984111, 0.853832, -0.648466, 0.169019, 3.274405, 1.037216, -61.347458, -607.856628
1733469105.619163, 18.096573, 14.514249, 1.006014, -0.714760, 0.213229, 3.683542, -0.030594, -62.935242, -608.718384
1733469105.629222, 16.827048, 14.019397, 1.074697, -0.746522, 0.224669, 3.988741, -0.875565, -64.537552, -608.737427
1733469105.638261, 15.904382, 13.328371, 1.302446, -0.719532, 0.109275, 4.225850, -1.737320, -66.244812, -608.029663
1733469105.648775, 15.408932, 12.665177, 1.571943, -0.605622, -0.189227, 4.468556, -2.804688, -67.769363, -609.472046
1733469105.659161, 15.043667, 12.021735, 1.575834, -0.390980, -0.616694, 4.774293, -3.790771, -69.833862, -609.391296
1733469105.669163, 14.496293, 11.437251, 1.110760, -0.087612, -0.984897, 5.112128, -4.726456, -71.760818, -610.296631
1733469105.679204, 13.836840, 10.984448, 0.502034, 0.244408, -1.223341, 5.461833, -6.255234, -73.575241, -610.295349
1733469105.689148, 13.029994, 10.646865, 0.279822, 0.561663, -1.335287, 5.804269, -7.978134, -75.209290, -610.791504
1733469105.699143, 11.884817, 10.322301, 0.333243, 0.813466, -1.380379, 6.127686, -9.531845, -77.231079, -610.104980
1733469105.709206, 10.927286, 9.800964, 0.634912, 1.001760, -1.422360, 6.472785, -11.510071, -78.932587, -611.187012
1733469105.719161, 9.604490, 9.351153, 0.888249, 1.154796, -1.463334, 6.841172, -14.113739, -80.890808, -610.746948
1733469105.729146, 8.164377, 8.920496, 1.148768, 1.281866, -1.518406, 7.266505, -16.452850, -82.443024, -610.062622
1733469105.739148, 6.565649, 8.413973, 1.095347, 1.394082, -1.470122, 7.717176, -19.451736, -84.112762, -610.386536
1733469105.749172, 4.934450, 8.061277, 0.952593, 1.473815, -1.317997, 8.142276, -23.158279, -85.587372, -609.248352
1733469105.759154, 3.982605, 7.928848, 1.241992, 1.517453, -1.200623, 8.578806, -26.749039, -86.593689, -609.294312
1733469105.769135, 3.239355, 8.191911, 1.347038, 1.545127, -1.020599, 9.068423, -30.631851, -87.312042, -608.660400
1733469105.779137, 2.400786, 8.699032, 1.613093, 1.492946, -0.776130, 9.627091, -35.126740, -87.952866, -607.417725
1733469105.789140, 1.316212, 9.469816, 2.268057, 1.308633, -0.537373, 10.296834, -39.569611, -87.852936, -607.705078
1733469105.799199, -0.368857, 11.054478, 2.778471, 1.052990, -0.265572, 11.074534, -44.753632, -87.078735, -607.119141
1733469105.809136, -4.069544, 12.355427, 3.147477, 0.716006, 0.212505, 11.731484, -49.905624, -85.908508, -607.506409
1733469105.819136, -11.136629, 10.972477, 3.702034, 0.126799, 0.875288, 11.839574, -55.233932, -84.057602, -606.890320
1733469105.829231, -18.139370, 7.911041, 4.119074, -0.781190, 1.491310, 11.377376, -59.362320, -81.658371, -608.418945
1733469105.839136, -21.761797, 6.481254, 3.564218, -1.725398, 1.848015, 10.734934, -63.783661, -79.103287, -609.551453
1733469105.849142, -21.867291, 5.972785, 1.246032, -2.236087, 2.022098, 10.265221, -67.120438, -76.292755, -611.575562
1733469105.859142, -22.044761, 4.680365, -1.973271, -2.245765, 2.194921, 9.851519, -71.345627, -73.165131, -612.585938
1733469105.868614, -26.260651, 2.206257, -3.133411, -2.094588, 2.067106, 8.913212, -74.661667, -70.146667, -614.526062
1733469105.879137, -31.852908, -2.697517, -1.472284, -1.995330, 0.809099, 7.188727, -76.389359, -67.944168, -614.327576
1733469105.889153, -36.586394, -8.360552, -1.669806, -1.532567, -1.104292, 4.883265, -76.338867, -66.415405, -614.599060
1733469105.899143, -37.312436, -11.997195, -5.189282, -0.365345, -3.089262, 2.736758, -75.748199, -65.686111, -611.947998
1733469105.909148, -34.929756, -13.167361, -8.754548, 1.172344, -4.527636, 1.187778, -75.114212, -65.084976, -608.769287
1733469105.919154, -32.352398, -13.742718, -10.406547, 2.430149, -5.009072, 0.111152, -74.459518, -64.834641, -606.549194
1733469105.929138, -30.215872, -13.625701, -9.087791, 3.046733, -4.643555, -0.627664, -73.941010, -64.784073, -603.944763
1733469105.939136, -27.808802, -13.185617, -7.078756, 3.026060, -3.512864, -1.099885, -73.595535, -65.058151, -602.630249
1733469105.949133, -24.882339, -13.234698, -4.908562, 2.504085, -1.944081, -1.371344, -73.883026, -65.455399, -601.825623
1733469105.959135, -22.104616, -13.381343, -2.456451, 1.666136, -0.319566, -1.553851, -73.774170, -66.126175, -601.991943
1733469105.969129, -19.920955, -13.313407, -0.247201, 0.754151, 1.109146, -1.773352, -74.248322, -66.875229, -602.080994
1733469105.979183, -18.466328, -12.846987, 1.554585, -0.014177, 2.064402, -2.028692, -73.685318, -68.067245, -603.564331
1733469105.989120, -17.277158, -12.286893, 2.911648, -0.534791, 2.308916, -2.320478, -73.570084, -69.184662, -605.048218
1733469105.999123, -16.292692, -11.933000, 3.214665, -0.790607, 2.037268, -2.640821, -73.147736, -70.228867, -605.812805
1733469106.009125, -15.971121, -11.461043, 2.517653, -0.823128, 1.556847, -3.037014, -71.926071, -71.611877, -606.434021
1733469106.018863, -16.227001, -10.795156, 1.434725, -0.713809, 1.071958, -3.507438, -70.643097, -73.179443, -606.757141
1733469106.029166, -16.258275, -9.597457, 0.362422, -0.536168, 0.792317, -3.953302, -69.114761, -74.620941, -607.367798
1733469106.039121, -15.693244, -8.185775, -0.675913, -0.350579, 0.851656, -4.322518, -67.774948, -76.212967, -607.375183
1733469106.049117, -14.591312, -7.428609, -1.301698, -0.211770, 1.125754, -4.630098, -66.433350, -77.839935, -608.044067
1733469106.059174, -13.267917, -6.953659, -1.003919, -0.135474, 1.377043, -4.891418, -64.824814, -79.191620, -608.421814
1733469106.069126, -12.251878, -5.973384, -0.100856, -0.085178, 1.476549, -5.156492, -62.874115, -80.721954, -609.168762
1733469106.079116, -11.155184, -5.160702, 0.404321, -0.019659, 1.510207, -5.461330, -60.845078, -82.163193, -609.497559
1733469106.089120, -9.910498, -4.326622, 0.760159, 0.085906, 1.449185, -5.761236, -58.579453, -83.654709, -609.631226
1733469106.099129, -7.604882, -2.167650, 1.753603, 0.326889, 0.953328, -6.290981, -56.007156, -84.960220, -609.592163
1733469106.109113, -7.604882, -2.167650, 1.753603, 0.413101, 0.579837, -6.563336, -53.364319, -86.089706, -609.161255
1733469106.119117, -5.766435, -1.083975, 2.009783, 0.479343, 0.199965, -6.831913, -50.279816, -86.994431, -609.512512
1733469106.129110, -4.504242, -0.183905, 1.534234, 0.519513, -0.112094, -7.051351, -47.265732, -87.593979, -609.153442
1733469106.139119, -3.120243, 0.726341, 0.957232, 0.574624, -0.388363, -7.185000, -43.870117, -88.145248, -608.977783
1733469106.149117, -1.935562, 1.836053, 0.384718, 0.662437, -0.605692, -7.180091, -40.255539, -88.129227, -608.757507
1733469106.159110, -1.132906, 2.827103, -0.281618, 0.801010, -0.701069, -7.115936, -36.893143, -88.213669, -607.831360
1733469106.169121, -0.352845, 3.362656, -0.796521, 0.982662, -0.634327, -7.049676, -33.593445, -87.835297, -607.779785
1733469106.179122, 0.645537, 3.445107, -0.773776, 1.131222, -0.548011, -6.993415, -30.712830, -87.303467, -607.232300
1733469106.189114, 1.790264, 3.208081, -0.383820, 1.175599, -0.465620, -6.939866, -27.804642, -86.419312, -606.661499
1733469106.199106, 2.736872, 3.375675, 0.248997, 1.074309, -0.360479, -6.889888, -24.883835, -85.336380, -605.344055
1733469106.209106, 3.390040, 3.917363, 1.256507, 0.828885, -0.379344, -6.868848, -22.084549, -83.986618, -605.401794
1733469106.219114, 4.108600, 4.392462, 2.072032, 0.508274, -0.533662, -6.848485, -18.893631, -82.717239, -605.531555
1733469106.229106, 5.039046, 5.011663, 2.104204, 0.189284, -0.674819, -6.719961, -16.675385, -81.333893, -605.974854
1733469106.239113, 5.997176, 5.891831, 1.728614, -0.072494, -0.756531, -6.529125, -13.864380, -79.854263, -605.760254
1733469106.249106, 7.392995, 6.734440, 1.323694, -0.278365, -0.807885, -6.261704, -11.670074, -78.091187, -606.102539
1733469106.259103, 8.858696, 7.141904, 0.690727, -0.479390, -0.778049, -5.930245, -9.733719, -76.510742, -606.325928
1733469106.269102, 9.732879, 6.864924, -0.636858, -0.624281, -0.453811, -5.723732, -8.310242, -74.688202, -606.759766
1733469106.279103, 10.975619, 7.089081, -1.860444, -0.687620, 0.050853, -5.474706, -6.635132, -72.990829, -606.585083
1733469106.289097, 12.633155, 8.371775, -2.002750, -0.664033, 0.436367, -5.083594, -5.268417, -71.540070, -607.227722
1733469106.298230, 12.633155, 8.371775, -2.002750, -0.664033, 0.436367, -5.083594, -5.268417, -71.540070, -607.227722
1733469106.309105, 15.989526, 9.452607, -1.369783, -0.401427, 0.685293, -4.135321, -3.506012, -68.610397, -606.903931
1733469106.319103, 17.364396, 9.780015, -0.521637, -0.192781, 0.370916, -3.588826, -2.949066, -67.125854, -606.910156
1733469106.329095, 17.662325, 9.664794, -0.065242, 0.011808, -0.012869, -3.120443, -2.272095, -65.994568, -607.260254
1733469106.339104, 17.074399, 9.410559, -0.033968, 0.143732, -0.240190, -2.800871, -1.701416, -64.914703, -607.286438
1733469106.349095, 16.065692, 9.495404, -0.080505, 0.193145, -0.250980, -2.626421, -1.213226, -64.012589, -607.497803
1733469106.359094, 15.442152, 9.884611, 0.191536, 0.137906, -0.087896, -2.577358, -0.949585, -63.057739, -607.329468
1733469106.369092, 15.398458, 10.808923, 0.807893, 0.001635, 0.171483, -2.613338, -0.546097, -62.005493, -606.985840
1733469106.379095, 16.525229, 12.037298, 1.935712, -0.222858, 0.312840, -2.623123, -0.588867, -60.964233, -606.968689
1733469106.389104, 18.435054, 13.180978, 2.989909, -0.424251, 0.227363, -2.547741, -0.069962, -60.106308, -606.763794
1733469106.399089, 20.773889, 14.379276, 3.172916, -0.503172, -0.066298, -2.298348, 0.179550, -59.166092, -606.681091
1733469106.409090, 23.267301, 15.277251, 2.711433, -0.446443, -0.498852, -1.816984, 1.004715, -58.350739, -607.459717
1733469106.419105, 25.423579, 15.703120, 1.796848, -0.305389, -0.946292, -1.030987, 1.443878, -58.049332, -607.865356
1733469106.429100, 26.262746, 15.755194, 0.422726, -0.091013, -1.178717, -0.091489, 2.029602, -57.724472, -607.943298
1733469106.439089, 25.249550, 14.694113, -1.020528, 0.118179, -1.065705, 0.807782, 1.981110, -58.234970, -608.169556
1733469106.449083, 24.146272, 15.256452, -1.185728, 0.220356, -0.788888, 1.812408, 1.757889, -58.985214, -608.552612
1733469106.459084, 22.108657, 14.454993, -0.871789, 0.198735, -0.425267, 2.604614, 1.348297, -60.029877, -608.778198
1733469106.469091, 19.608811, 12.938415, -0.001646, 0.053344, -0.124494, 3.196296, 1.348297, -60.029877, -608.778198
1733469106.479109, 17.349283, 12.436980, 0.806397, -0.181849, 0.164997, 3.645185, 0.978897, -61.395279, -609.016907
1733469106.489085, 15.405341, 11.687744, 1.389385, -0.509094, 0.447509, 3.948004, 0.053085, -62.839783, -608.927490
1733469106.499085, 13.975254, 10.858602, 2.016666, -0.869638, 0.572002, 4.130106, -0.838394, -64.359039, -608.582764
1733469106.509083, 12.969390, 10.249428, 2.278382, -1.146235, 0.498505, 4.252550, -1.711899, -66.271973, -608.432861
1733469106.519088, 12.372187, 9.689484, 1.707515, -1.293621, 0.355592, 4.369002, -2.716476, -67.916031, -609.155151
1733469106.529090, 12.066926, 9.214235, 0.852934, -1.334974, 0.212946, 4.514400, -3.862244, -69.543137, -609.267212
1733469106.539081, 11.693131, 8.866627, 0.057910, -1.295328, 0.091639, 4.685262, -4.817581, -71.312347, -609.531494
1733469106.549081, 11.412710, 8.556727, -0.627730, -1.184036, -0.002190, 4.911989, -6.238815, -73.138077, -610.330322
1733469106.559097, 11.155932, 8.284087, -1.240645, -1.029853, -0.013781, 5.170821, -7.512512, -74.788467, -610.479248
1733469106.569089, 10.649858, 8.007557, -1.510741, -0.866719, 0.021755, 5.438045, -9.217728, -76.526627, -610.714600
1733469106.579078, 10.114155, 7.651869, -1.216853, -0.719173, -0.015786, 5.712950, -10.599777, -78.394180, -611.296936
1733469106.589079, 9.352650, 7.441777, -0.686837, -0.572682, -0.114048, 5.945897, -13.070801, -80.167603, -612.054565
1733469106.599076, 8.573636, 7.279271, -0.218621, -0.413680, -0.315637, 6.162805, -15.363647, -81.500916, -611.687500
1733469106.609076, 7.957578, 7.088633, 0.481683, -0.233142, -0.683944, 6.427180, -17.387283, -83.207138, -612.246399
1733469106.619078, 6.842628, 7.077709, 0.812682, -0.030723, -1.052377, 6.691770, -20.256241, -84.348022, -612.356018
1733469106.629073, 5.720795, 6.941539, 0.779762, 0.128281, -1.301077, 6.959986, -22.809479, -85.584091, -612.678040
1733469106.639118, 4.786608, 6.983288, 0.585382, 0.247852, -1.379130, 7.252117, -25.467819, -86.888229, -612.515686
1733469106.649073, 3.951480, 7.022193, 0.581492, 0.318241, -1.364379, 7.564411, -28.582855, -87.766693, -613.036499
1733469106.659071, 3.325845, 6.983886, 0.766893, 0.334123, -1.338790, 7.932322, -32.009140, -88.373672, -613.011963
1733469106.669072, 2.677166, 7.269395, 1.076792, 0.323864, -1.302627, 8.356375, -35.548904, -88.797760, -612.757935
1733469106.679066, 1.775151, 7.855076, 1.580023, 0.235763, -1.209123, 8.834407, -39.176926, -88.935532, -612.381836
1733469106.689064, 0.461183, 8.777293, 2.333898, 0.055937, -1.164402, 9.402090, -43.506500, -88.656021, -612.044495
1733469106.699068, -1.501015, 9.697714, 3.062782, -0.187402, -1.142777, 10.005893, -47.635986, -87.808640, -611.767334
1733469106.709080, -3.987842, 10.100089, 3.021782, -0.542311, -0.953542, 10.554678, -51.960251, -86.372604, -612.000305
1733469106.719090, -6.221632, 10.409540, 1.722179, -1.014673, -0.329558, 11.088923, -56.117371, -84.335419, -612.697937
1733469106.729100, -8.508394, 12.094160, 0.034117, -1.525901, 0.530606, 11.744204, -60.224594, -81.713699, -612.561279
1733469106.739070, -12.141446, 15.194801, -0.569521, -2.014857, 1.230471, 12.475732, -64.425156, -78.275665, -613.610657
1733469106.749069, -20.737527, 14.829984, -0.245106, -2.503776, 1.445560, 12.375554, -69.622314, -74.245804, -614.978882
1733469106.759065, -31.377210, 8.053047, 0.508768, -2.939052, 0.728199, 10.844998, -74.847397, -70.077087, -617.109070
1733469106.769068, -39.684790, -0.513257, -0.370952, -2.941764, -0.629162, 8.221382, -77.706253, -66.319107, -618.040344
1733469106.779070, -44.050019, -6.780229, -4.378097, -2.228517, -2.153459, 5.268230, -79.051956, -63.334000, -617.968567
1733469106.789069, -42.824337, -9.976040, -9.452757, -0.789002, -3.439201, 2.823992, -79.169937, -61.560394, -616.876099
1733469106.799081, -38.057481, -10.723031, -12.756755, 0.780936, -4.100686, 1.154380, -78.810974, -60.612976, -614.094421
1733469106.809074, -33.126324, -9.779266, -12.669666, 1.897671, -4.110034, 0.168012, -78.305756, -60.214478, -612.448669
1733469106.819067, -28.552351, -8.766519, -10.689961, 2.435133, -3.475310, -0.306562, -77.880356, -60.046890, -610.061646
1733469106.829066, -24.781484, -8.904036, -8.408436, 2.353089, -2.312212, -0.459169, -77.850098, -60.071014, -608.296204
1733469106.839066, -22.383840, -9.285612, -6.250213, 1.797897, -0.818065, -0.500807, -78.233719, -60.004349, -607.167786
1733469106.849067, -21.005229, -9.908404, -4.661062, 1.057979, 0.691542, -0.609128, -78.393112, -60.358398, -607.599731
1733469106.859064, -19.662231, -10.686818, -3.501819, 0.399968, 1.830140, -0.841951, -78.959747, -60.724060, -607.983826
1733469106.869066, -18.307263, -11.228955, -2.693776, 0.001100, 2.349335, -1.132722, -78.979965, -61.460129, -609.351135
1733469106.878786, -17.167623, -11.170896, -2.292897, -0.074388, 2.266190, -1.466660, -79.153610, -61.994583, -610.534119
1733469106.888197, -16.624439, -10.659285, -2.175282, 0.109917, 1.795759, -1.834426, -79.111557, -62.846451, -611.193115
1733469106.899055, -16.591967, -10.052654, -2.034622, 0.408100, 1.176330, -2.251117, -78.922745, -63.477356, -610.281982
1733469106.909054, -16.312594, -9.435549, -2.123807, 0.699603, 0.702358, -2.641627, -78.151840, -64.717422, -611.955688
1733469106.919064, -15.456667, -9.401282, -2.507178, 0.899246, 0.558420, -2.972935, -77.349106, -65.786255, -611.800415
1733469106.929062, -14.285303, -9.809044, -2.583044, 0.932072, 0.715227, -3.233413, -76.457382, -67.060928, -611.572144
1733469106.939049, -13.159729, -9.916933, -2.053626, 0.802566, 0.999950, -3.435410, -75.977066, -68.409561, -612.333618
1733469106.949056, -11.904868, -9.259276, -1.194856, 0.568982, 1.272448, -3.564356, -74.907532, -69.794678, -612.518005
1733469106.959056, -11.075128, -8.232462, -0.410007, 0.317411, 1.430587, -3.650985, -73.686981, -71.620682, -613.028931
1733469106.968436, -10.763732, -7.441328, 0.000748, 0.135467, 1.490955, -3.763572, -72.806564, -72.838638, -613.501831
1733469106.979048, -10.403255, -7.063344, -0.023942, 0.052401, 1.475701, -3.917142, -71.740646, -74.192215, -614.212341
1733469106.989046, -9.740211, -7.378331, -0.353444, 0.046271, 1.438322, -4.107773, -70.524948, -75.888641, -614.638245
1733469106.999048, -8.844480, -8.134151, -0.737863, 0.061426, 1.431578, -4.313747, -68.844681, -77.238129, -614.457031
1733469107.009105, -8.068460, -8.078635, -0.797868, 0.061204, 1.421113, -4.529427, -67.657822, -78.802628, -615.507812
1733469107.019050, -7.224653, -7.257723, -0.630124, 0.068140, 1.368789, -4.708514, -65.649536, -80.132751, -616.202515
1733469107.029059, -6.331616, -6.218490, -0.348955, 0.101394, 1.236914, -4.829279, -63.939636, -81.270264, -616.412292
1733469107.039041, -5.449802, -5.514595, -0.197522, 0.154098, 1.088391, -4.948764, -62.079895, -82.764709, -616.405334
1733469107.049046, -4.392313, -4.931607, -0.175076, 0.216342, 0.930601, -5.043976, -59.982773, -83.970917, -616.810364
1733469107.059043, -3.197157, -4.623652, -0.237325, 0.302941, 0.766538, -5.101898, -57.864304, -85.091370, -616.638489
1733469107.069040, -1.986888, -4.679467, -0.346860, 0.430123, 0.595747, -5.119271, -55.547638, -86.039612, -617.010681
1733469107.079111, -1.287183, -4.490774, -0.088286, 0.558798, 0.386030, -5.130264, -53.710861, -86.892715, -616.530334
1733469107.089042, -1.057339, -4.330662, 0.511611, 0.622353, 0.104444, -5.194454, -51.195419, -87.722763, -616.364563
1733469107.099060, -1.171812, -4.300136, 1.082329, 0.589527, -0.185543, -5.366912, -48.613113, -88.288544, -615.565186
1733469107.109044, -1.228375, -4.316147, 1.073500, 0.496645, -0.383795, -5.641061, -46.214478, -88.694916, -615.772644
1733469107.119049, -1.095347, -3.899855, 0.805649, 0.420538, -0.487754, -5.941314, -43.541046, -89.127502, -615.779968
1733469107.129049, -0.688782, -2.967463, 0.396091, 0.363298, -0.439610, -6.213124, -40.429413, -89.344376, -615.182739
1733469107.139035, 0.293888, -1.708712, 0.080804, 0.323993, -0.374605, -6.360345, -37.316467, -89.203262, -614.721924
1733469107.149047, 1.393276, -0.372747, 0.103100, 0.277045, -0.294660, -6.382133, -34.620316, -89.125717, -615.446899
1733469107.159045, 2.076371, 0.279822, 0.261267, 0.187061, -0.237571, -6.397398, -31.404617, -88.663910, -615.214539
1733469107.169068, 2.872892, 0.607678, 0.249596, 0.082918, -0.178043, -6.441487, -28.714630, -88.057632, -614.447144
1733469107.179053, 3.978265, 1.365593, 0.297480, 0.031499, -0.180756, -6.442994, -25.828705, -87.371384, -614.666382
1733469107.189041, 5.483919, 2.420089, 0.525976, -0.015512, -0.249234, -6.319414, -22.839279, -86.272964, -614.733521
1733469107.199093, 7.070826, 3.390938, 0.823605, -0.114635, -0.396933, -6.054420, -20.227432, -85.261795, -614.237122
1733469107.209048, 8.189068, 4.066701, 0.672322, -0.221885, -0.535862, -5.744684, -17.813324, -83.891037, -614.635498
1733469107.219031, 9.308806, 4.147954, -0.364218, -0.258546, -0.520487, -5.420823, -15.929688, -82.939850, -615.359314
1733469107.229034, 10.528651, 4.191948, -1.390882, -0.239983, -0.334124, -5.071970, -14.071762, -81.653702, -615.231079
1733469107.239036, 11.776779, 4.682011, -1.840094, -0.241049, 0.022283, -4.696935, -12.447189, -80.274460, -615.406738
1733469107.249052, 13.223325, 5.540183, -1.621024, -0.319288, 0.416988, -4.261896, -11.227798, -79.247940, -615.497864
1733469107.259030, 14.659846, 6.142025, -1.131260, -0.426839, 0.805958, -3.764877, -9.633331, -77.978394, -615.307129
1733469107.269031, 16.203957, 6.428132, -0.661398, -0.528684, 1.111729, -3.219949, -9.142303, -77.055618, -614.902344
1733469107.279036, 17.300800, 6.556970, -0.044891, -0.620650, 1.251730, -2.699439, -8.303574, -76.247345, -614.696533
1733469107.289030, 17.865383, 6.369923, 0.550966, -0.691514, 1.206467, -2.242954, -8.145432, -75.397308, -615.134888
1733469107.299049, 17.812411, 6.164022, 0.708684, -0.721977, 1.115994, -1.916432, -8.033325, -75.054489, -614.103760
1733469107.309050, 17.349732, 6.260239, 0.403124, -0.700913, 1.112027, -1.765714, -7.676224, -74.466232, -614.386169
1733469107.319034, 17.586010, 6.649895, 0.733524, -0.681706, 1.017514, -1.682145, -7.341370, -73.960526, -614.183777
1733469107.329037, 18.497602, 7.064092, 1.465251, -0.628027, 0.703062, -1.580634, -6.995163, -73.425461, -614.235229
1733469107.339038, 19.058294, 7.647080, 1.560271, -0.485388, 0.346531, -1.488077, -6.587387, -72.882751, -614.617004
1733469107.349172, 19.689765, 7.969549, 1.597381, -0.316301, -0.067764, -1.386231, -5.775467, -72.395752, -614.757324
1733469107.359129, 20.801273, 8.224083, 1.808819, -0.147666, -0.577556, -1.155629, -5.387161, -71.972046, -614.896240
1733469107.369092, 21.668872, 8.535329, 1.556381, 0.058265, -1.023386, -0.800457, -4.985977, -71.911148, -615.242615
1733469107.379031, 22.298547, 8.624064, 1.370082, 0.192316, -1.397788, -0.286673, -5.256958, -71.596786, -615.719604
1733469107.389022, 22.355708, 8.417564, 1.209670, 0.242984, -1.602105, 0.278841, -4.748260, -71.584808, -615.980652
1733469107.399034, 21.922208, 8.369231, 0.539593, 0.208400, -1.603662, 0.987181, -4.495743, -71.975006, -615.704773
1733469107.409020, 21.265598, 8.815002, -0.232986, 0.142715, -1.336603, 1.711720, -5.263672, -72.711029, -616.875000
1733469107.419014, 20.036625, 8.149414, -0.791733, 0.043858, -0.961658, 2.348785, -5.958557, -73.438705, -617.023682
1733469107.429031, 18.808549, 7.956980, -0.730381, -0.092610, -0.588526, 2.920057, -6.700073, -74.438889, -617.217896
1733469107.439016, 17.546505, 7.939921, -0.537498, -0.234131, -0.289669, 3.421623, -7.867447, -75.672089, -617.614136
1733469107.449022, 16.316335, 7.552210, -0.212934, -0.363353, -0.102293, 3.853534, -8.890488, -76.835861, -617.926453
1733469107.459015, 15.068357, 7.188291, -0.096666, -0.474280, 0.032588, 4.205488, -10.644562, -78.561066, -618.410461
1733469107.469015, 13.968521, 6.885724, 0.013318, -0.555001, 0.072511, 4.496794, -12.162048, -79.636459, -617.990601
1733469107.479015, 13.149853, 6.571186, 0.245256, -0.583867, -0.043692, 4.774691, -13.951630, -80.973022, -618.601501
1733469107.489029, 12.321908, 6.188263, 0.340126, -0.537884, -0.262640, 5.004395, -15.933395, -82.250000, -619.125122
1733469107.499020, 11.326968, 5.721843, 0.241066, -0.451291, -0.513938, 5.169945, -17.785080, -83.686600, -618.769836
1733469107.509026, 10.618733, 5.396830, 0.102053, -0.322375, -0.787838, 5.351253, -19.841537, -84.759628, -619.738525
1733469107.519011, 9.975591, 5.114164, -0.284910, -0.135854, -1.009000, 5.551154, -22.265152, -85.928314, -619.826172
1733469107.529034, 9.305364, 4.957045, -0.540491, 0.070812, -1.193455, 5.797643, -24.426987, -86.656448, -620.107910
1733469107.539027, 8.738836, 4.932504, -0.667533, 0.281285, -1.330957, 6.124337, -27.201645, -87.548035, -620.148804
1733469107.549033, 8.192509, 4.925920, -0.817021, 0.487736, -1.404084, 6.537579, -29.924026, -88.388702, -619.784912
1733469107.559007, 7.546823, 4.968268, -0.659752, 0.628384, -1.413671, 7.060405, -33.169861, -88.564972, -619.598145
1733469107.569030, 6.584653, 5.526865, -0.462380, 0.662103, -1.317041, 7.678230, -36.689484, -89.174850, -619.222595
1733469107.579067, 5.493047, 6.441300, -0.289100, 0.651541, -1.174130, 8.402251, -40.364227, -88.921463, -618.835571
1733469107.589002, 4.172196, 7.340473, 0.011073, 0.607643, -1.051956, 9.215367, -44.717667, -88.484451, -618.709900
1733469107.599009, 2.104952, 8.124125, 0.441431, 0.509275, -0.909322, 9.995295, -49.306793, -87.331207, -617.879822
1733469107.609020, -1.265635, 8.708011, 0.796222, 0.323170, -0.559861, 10.695176, -54.422623, -85.572815, -618.635620
1733469107.619045, -5.979818, 7.976582, 1.314716, -0.093987, -0.041146, 10.998386, -59.429367, -83.233002, -618.755554
1733469107.628998, -10.450690, 5.344606, 1.908328, -0.811086, 0.400961, 10.771328, -63.195709, -80.548599, -619.593628
1733469107.638998, -13.425486, 3.985897, 1.029656, -1.573414, 0.844169, 10.355399, -67.040710, -77.652130, -620.264282
1733469107.648999, -16.597055, 4.176984, -0.994492, -1.998459, 1.048464, 9.870909, -70.553970, -74.631714, -621.417542
1733469107.659016, -20.538360, 2.740014, -2.436699, -1.882987, 0.548186, 9.061350, -73.871597, -71.434250, -621.997437
1733469107.669007, -23.756616, -0.484377, -3.415329, -1.210669, -0.600459, 7.868537, -75.576477, -68.475769, -621.393311
1733469107.679016, -25.484930, -3.284845, -4.285771, -0.293487, -1.916155, 6.553781, -76.880020, -66.081680, -620.848389
1733469107.689004, -27.932552, -5.433192, -4.677671, 0.457584, -2.876511, 5.154779, -77.671967, -64.205170, -619.225037
1733469107.699006, -30.394240, -8.281095, -4.926968, 0.860349, -3.211668, 3.662836, -77.950119, -62.736115, -616.716736
1733469107.709002, -30.305056, -10.514735, -5.182399, 0.972248, -3.015490, 2.370044, -78.199127, -61.852295, -615.648682
1733469107.719015, -28.541727, -10.725575, -4.902128, 0.934191, -2.603848, 1.454772, -78.045013, -61.310745, -614.596252
1733469107.729012, -26.884490, -9.927258, -4.386028, 0.827669, -2.035876, 0.814672, -78.308060, -61.281036, -613.647583
1733469107.738255, -25.725547, -9.609577, -4.087501, 0.650216, -1.291138, 0.308274, -78.344727, -61.099289, -613.465332
1733469107.748996, -24.873511, -10.325144, -4.010437, 0.398494, -0.344930, -0.181898, -78.467865, -61.353516, -613.417786
1733469107.759015, -23.644537, -11.567286, -3.753061, 0.070490, 0.630713, -0.652486, -78.566162, -61.750320, -613.964905
1733469107.769008, -22.035634, -12.152219, -3.021782, -0.321106, 1.429397, -1.064458, -78.670258, -62.701797, -615.377930
1733469107.779045, -20.236541, -12.173318, -2.362329, -0.663700, 1.931881, -1.442573, -78.281754, -63.465820, -616.349060
1733469107.788991, -18.551621, -11.957391, -2.102408, -0.863006, 2.092989, -1.814772, -78.202713, -64.352127, -617.315186
1733469107.798998, -17.185729, -11.221174, -2.155829, -0.895016, 1.928461, -2.184682, -77.770126, -65.387726, -617.701416
1733469107.808991, -16.020501, -10.480169, -2.631677, -0.761097, 1.579007, -2.542042, -77.134888, -66.660706, -619.102722
1733469107.818992, -15.009400, -9.909152, -3.380164, -0.504986, 1.175443, -2.864722, -76.164581, -67.870132, -619.671021
1733469107.828119, -14.007726, -9.396793, -3.940108, -0.207793, 0.787017, -3.148206, -76.164581, -67.870132, -619.671021
1733469107.838994, -13.362189, -8.913613, -4.232200, 0.057316, 0.548009, -3.419971, -74.563477, -70.609375, -619.947754
1733469107.848985, -13.009493, -8.521413, -4.307917, 0.234403, 0.508031, -3.703297, -73.170181, -72.048874, -620.120361
1733469107.858993, -12.499678, -8.002320, -4.007744, 0.311514, 0.615299, -3.983851, -71.775757, -73.600174, -620.016296
1733469107.868985, -11.664251, -7.500585, -3.626168, 0.326009, 0.823605, -4.213856, -70.065872, -75.164017, -620.421692
1733469107.878982, -10.613646, -6.884228, -3.075651, 0.316016, 1.036073, -4.381620, -68.421860, -76.879623, -621.168335
1733469107.889049, -9.596559, -6.639869, -2.557606, 0.296189, 1.213434, -4.554812, -67.015228, -78.155746, -621.047058
1733469107.898980, -8.693047, -6.534674, -2.214337, 0.280004, 1.384726, -4.751291, -65.174500, -79.918350, -620.664612
1733469107.908998, -8.044069, -5.910536, -1.819294, 0.267177, 1.512855, -4.962429, -63.205597, -81.199265, -621.566833
1733469107.918987, -7.260117, -5.265149, -1.528398, 0.294675, 1.615375, -5.195587, -60.884628, -82.612000, -621.758240
1733469107.928977, -6.251410, -4.353108, -1.136348, 0.359788, 1.618027, -5.392789, -58.706024, -83.883286, -622.055054
1733469107.938974, -5.241805, -3.230676, -0.645387, 0.430352, 1.524453, -5.544394, -56.176147, -84.998840, -622.002258
1733469107.948977, -4.350264, -2.550723, -0.306757, 0.510332, 1.385662, -5.688052, -56.176147, -84.998840, -622.002258
1733469107.958989, -3.613299, -2.079065, -0.073921, 0.575249, 1.215853, -5.849071, -53.629150, -86.226486, -622.158325
1733469107.968992, -3.030461, -1.810914, 0.010175, 0.632850, 1.034415, -6.033277, -51.272003, -86.974487, -621.771362
1733469107.978980, -2.466327, -1.489343, -0.054169, 0.697699, 0.852041, -6.238219, -48.291550, -87.758469, -621.786743
1733469107.989041, -1.906233, -0.908450, -0.196474, 0.781164, 0.686003, -6.443819, -45.088776, -88.190033, -621.593201
1733469107.998978, -1.175553, -0.111330, -0.393846, 0.879850, 0.588727, -6.614631, -42.247757, -88.660492, -620.942688
1733469108.008998, -0.223110, 0.703147, -0.502184, 0.982276, 0.506752, -6.748011, -39.266373, -88.850647, -620.342896
1733469108.018976, 1.195006, 1.425897, -0.287903, 1.101508, 0.325280, -6.800998, -35.626144, -88.918472, -619.986755
1733469108.028972, 2.946664, 2.146402, 0.111779, 1.203106, 0.082704, -6.719871, -32.333191, -88.762711, -619.817627
1733469108.039043, 4.414609, 2.831892, 0.597653, 1.196413, -0.146389, -6.547729, -29.364227, -88.198776, -619.075989
1733469108.048988, 5.494543, 3.136105, 0.904410, 1.075657, -0.324185, -6.349022, -27.024933, -87.368378, -618.102783
1733469108.058986, 6.400150, 3.062932, 0.713622, 0.897799, -0.382727, -6.136580, -24.269608, -86.539902, -617.745178
1733469108.068971, 7.518841, 3.087323, 0.052972, 0.767844, -0.302924, -5.890442, -21.750671, -85.750046, -617.195557
1733469108.078978, 9.454702, 3.596839, -0.146046, 0.655037, -0.217730, -5.520713, -19.380859, -84.595856, -617.347656
1733469108.088970, 11.445331, 4.323779, 0.217573, 0.463103, -0.153048, -5.039673, -17.696915, -83.355225, -616.648193
1733469108.098966, 12.759598, 4.770896, 0.148740, 0.198969, 0.036417, -4.511569, -15.760025, -82.340881, -616.388611
1733469108.108981, 13.732692, 4.844817, -0.039205, -0.075297, 0.267784, -3.959407, -14.290710, -81.555984, -616.608398
1733469108.118969, 14.097209, 4.596418, -0.155174, -0.325846, 0.497459, -3.455230, -12.981674, -80.507278, -616.488159
1733469108.128969, 13.862577, 4.091541, -0.843058, -0.520947, 0.861295, -3.108836, -12.476837, -79.632172, -616.910461
1733469108.138974, 13.580959, 3.978265, -1.513584, -0.620189, 1.301011, -2.916075, -11.895050, -79.115982, -616.911011
1733469108.148987, 14.119206, 4.335750, -1.236306, -0.673354, 1.615165, -2.782370, -11.232773, -78.323456, -616.894653
1733469108.158984, 15.254506, 4.833594, -0.703297, -0.683849, 1.802455, -2.690633, -10.676132, -77.452576, -616.339844
1733469108.168981, 16.563237, 5.551106, -0.033369, -0.613716, 1.778541, -2.622898, -10.169907, -76.545807, -616.145630
1733469108.178977, 18.450167, 6.306028, 1.183633, -0.470108, 1.349041, -2.489776, -9.529709, -75.844345, -615.865234
1733469108.188978, 20.562152, 6.849811, 2.488174, -0.269136, 0.537716, -2.254026, -8.993759, -75.233231, -616.068848
1733469108.198977, 21.967100, 7.358579, 2.795380, -0.008128, -0.358315, -1.995289, -8.100525, -74.628723, -615.954529
1733469108.208491, 22.968774, 8.058434, 2.436100, 0.278274, -1.188414, -1.627820, -7.603409, -73.772873, -616.114746
1733469108.218973, 23.480834, 8.340052, 1.518373, 0.546266, -1.701888, -1.189059, -6.997696, -73.264359, -616.669067
1733469108.228973, 23.657855, 8.302942, 0.482581, 0.731386, -1.867971, -0.652713, -6.453156, -72.938339, -616.738403
1733469108.238959, 23.510761, 8.317905, -0.049081, 0.824058, -1.753347, -0.069743, -6.159943, -73.048615, -616.901855
1733469108.248967, 22.894254, 8.038682, -0.143353, 0.774228, -1.458851, 0.554926, -6.562302, -73.159119, -617.140320
1733469108.258964, 22.537368, 8.626009, 0.497994, 0.585124, -1.179753, 1.269378, -6.545242, -73.591919, -617.560730
1733469108.268786, 21.432594, 7.924658, 0.638354, 0.335402, -0.862268, 1.895229, -7.153229, -74.139236, -617.547913
1733469108.278956, 19.899856, 7.305457, 0.370652, 0.055477, -0.454161, 2.413287, -8.030365, -75.146118, -617.978882
1733469108.289015, 18.399889, 7.139958, 0.155473, -0.238658, -0.025320, 2.845829, -9.000153, -76.251663, -617.854614
1733469108.298951, 17.056143, 6.827216, 0.036811, -0.482854, 0.321287, 3.197117, -9.981339, -77.198700, -617.311035
1733469108.308974, 15.902287, 6.303783, -0.149937, -0.644407, 0.558778, 3.493131, -11.250092, -78.253204, -618.573425
1733469108.318966, 14.908843, 5.922956, -0.327407, -0.709872, 0.688460, 3.772723, -12.138077, -79.381119, -617.869507
1733469108.328408, 13.908815, 5.647922, -0.507571, -0.699683, 0.747765, 4.025763, -13.739426, -80.419876, -618.319885
1733469108.338965, 12.878560, 5.219809, -0.649427, -0.625099, 0.767643, 4.245800, -15.125076, -81.431290, -618.439880
1733469108.348958, 11.731289, 4.876540, -0.776918, -0.514964, 0.796447, 4.421040, -16.755875, -82.567490, -618.198547
1733469108.359006, 10.717644, 4.535366, -0.645387, -0.413330, 0.812183, 4.551345, -18.568008, -83.663528, -618.274658
1733469108.368956, 9.744999, 4.216937, -0.382474, -0.312606, 0.799456, 4.618687, -20.644516, -84.662537, -618.183899
1733469108.378951, 9.038411, 3.964798, 0.053870, -0.208228, 0.676957, 4.658187, -22.218216, -85.660294, -618.061707
1733469108.388971, 8.823531, 3.750966, 0.843358, -0.104121, 0.325557, 4.751767, -24.440872, -86.451324, -618.312866
1733469108.398972, 8.493131, 3.661483, 1.709610, 0.040783, -0.230054, 4.870407, -26.220718, -87.315750, -617.686157
1733469108.408954, 8.028057, 3.580529, 2.330755, 0.222031, -0.957244, 5.035915, -28.460999, -88.222137, -618.521362
1733469108.418969, 7.604733, 3.490896, 2.769343, 0.443646, -1.757282, 5.256344, -30.581680, -88.528427, -618.534546
1733469108.428957, 6.842179, 3.581127, 2.400786, 0.682440, -2.342153, 5.502707, -33.379456, -88.823975, -617.869080
1733469108.438954, 6.262034, 3.877410, 1.964891, 0.919299, -2.742731, 5.861141, -35.746109, -89.266113, -617.603516
1733469108.448952, 5.645228, 4.243124, 1.719935, 1.137737, -2.965332, 6.353200, -38.108032, -89.217392, -617.082031
1733469108.458954, 4.669890, 4.492719, 1.472883, 1.309043, -2.958692, 6.931536, -41.145462, -89.111237, -616.297302
1733469108.468958, 3.469049, 4.926968, 1.544709, 1.398438, -2.784009, 7.611031, -44.539139, -88.554703, -615.326477
1733469108.478947, 1.842189, 5.858013, 1.668459, 1.353764, -2.420059, 8.391143, -48.310165, -87.547638, -614.436401
1733469108.488948, -0.808043, 6.566996, 1.951723, 1.136398, -1.851758, 9.138798, -52.483398, -86.239120, -613.753479
1733469108.498953, -4.429123, 5.790826, 2.433407, 0.712261, -1.047212, 9.704510, -56.753601, -84.379501, -613.057190
1733469108.508962, -8.181586, 3.866636, 3.205088, -0.015148, -0.138271, 9.914035, -60.635315, -82.095245, -614.046143
1733469108.518934, -10.709563, 2.671480, 4.135834, -0.994589, 0.728687, 9.950193, -64.461655, -79.149002, -614.965820
1733469108.528953, -13.051541, 3.290980, 4.208558, -2.035252, 1.497643, 10.020792, -68.354980, -76.029709, -616.317871
1733469108.538944, -16.951995, 2.708291, 3.846285, -3.046638, 2.042029, 9.781425, -71.642578, -72.635941, -618.349915
1733469108.548957, -21.607820, 0.075567, 3.354426, -3.967628, 2.187731, 9.028482, -74.334137, -69.379974, -620.476624
1733469108.558976, -26.611551, -2.848352, 2.590077, -4.644746, 1.734073, 7.762153, -76.659790, -66.489105, -622.663940
1733469108.568939, -30.940118, -5.521328, 0.871938, -4.837309, 0.535932, 6.031235, -77.432739, -64.102814, -623.498230
1733469108.578958, -33.378014, -7.737760, -3.138499, -4.235198, -1.067553, 4.184490, -78.069153, -62.409821, -623.070923
1733469108.588973, -33.877205, -9.534609, -8.844181, -2.882375, -2.511579, 2.500465, -78.236908, -61.295090, -622.177612
1733469108.598065, -33.632249, -10.518177, -13.404237, -1.330537, -3.456409, 1.060266, -77.954346, -60.855637, -619.982544
1733469108.608983, -32.826001, -11.046846, -15.372720, -0.081439, -3.677605, -0.135120, -77.421082, -61.058334, -618.878418
1733469108.619074, -27.678168, -10.432883, -14.158710, 1.116505, -2.218953, -1.525482, -77.374115, -61.642212, -617.420837
1733469108.628957, -27.678168, -10.432883, -14.158710, 1.116505, -2.218953, -1.525482, -77.050446, -62.266052, -616.481445
1733469108.638931, -20.899286, -9.018658, -9.922918, 1.098674, -1.041356, -1.734723, -77.168335, -63.150909, -616.016602
1733469108.648929, -18.227805, -9.438541, -8.404097, 0.567778, 1.213653, -1.794212, -76.980667, -64.106995, -616.114929
1733469108.658928, -16.336236, -9.830592, -7.098209, 0.362910, 1.913341, -1.828047, -76.832718, -65.113007, -617.194702
1733469108.668941, -15.337106, -9.940127, -5.832275, 0.324669, 2.133404, -1.932507, -76.819443, -65.913956, -618.334473
1733469108.678935, -15.214852, -9.846154, -5.010765, 0.415999, 2.026579, -2.152531, -76.420609, -66.829086, -619.217896
1733469108.688942, -15.436166, -9.557354, -4.269909, 0.572350, 1.709620, -2.456886, -75.949463, -67.875183, -619.894165
1733469108.698935, -15.565453, -9.339182, -3.709516, 0.714056, 1.360697, -2.823494, -74.983658, -69.032120, -619.607361
1733469108.708931, -15.611990, -8.900445, -3.418471, 0.795140, 1.137306, -3.217770, -74.013260, -70.277054, -620.447937
1733469108.718934, -15.459510, -8.197148, -3.173215, 0.800675, 1.112082, -3.603446, -73.123169, -71.530289, -620.427246
1733469108.728933, -14.738705, -7.980473, -2.885163, 0.723185, 1.248129, -3.967428, -71.842789, -73.131805, -620.686096
1733469108.738934, -13.475016, -8.065916, -2.314445, 0.549570, 1.335245, -4.303686, -70.469299, -74.594254, -620.761108
1733469108.748923, -12.308890, -7.282114, -1.776647, 0.351153, 1.313416, -4.583301, -68.925430, -76.230087, -621.353638
1733469108.758918, -11.300333, -6.222680, -2.040309, 0.239708, 1.335342, -4.840611, -67.293793, -77.897369, -621.894165
1733469108.768922, -10.108768, -5.630414, -2.701408, 0.261290, 1.421036, -5.062984, -65.508362, -79.348068, -622.098206
1733469108.778940, -9.088390, -4.719720, -2.951302, 0.395627, 1.525043, -5.231466, -63.122894, -80.910690, -622.470703
1733469108.788922, -8.279000, -3.497480, -2.760215, 0.579664, 1.650099, -5.387046, -60.927933, -82.204788, -622.817749
1733469108.798920, -7.641095, -2.664298, -2.239925, 0.768053, 1.753587, -5.572681, -58.663345, -83.625977, -622.060120
1733469108.808919, -6.863428, -2.097770, -1.456124, 0.915180, 1.782064, -5.784971, -56.218109, -84.829117, -622.420593
1733469108.818917, -5.696404, -2.011429, -0.670526, 0.990145, 1.665170, -6.003861, -53.674179, -86.065842, -622.392456
1733469108.828929, -4.664952, -1.676989, 0.033519, 0.994115, 1.457152, -6.227226, -51.072647, -87.087784, -622.205566
1733469108.838917, -4.016273, -0.732925, 0.412102, 0.954593, 1.211048, -6.442505, -47.884003, -87.973694, -621.892822
1733469108.848923, -3.420267, 0.285209, 0.470610, 0.903514, 0.977400, -6.674677, -44.815430, -88.463913, -621.432861
1733469108.858925, -2.788946, 1.034594, 0.220865, 0.891441, 0.743744, -6.897564, -41.302597, -88.812195, -621.126709
1733469108.868919, -2.119467, 2.260725, -0.171036, 0.948374, 0.527848, -7.041946, -38.281708, -89.074234, -620.592041
1733469108.878913, -1.627309, 3.106626, -0.609025, 1.066939, 0.383450, -7.220381, -35.116638, -88.889313, -619.972534
1733469108.888912, -1.183035, 3.142539, -1.022174, 1.185000, 0.321909, -7.481665, -31.775772, -88.650787, -619.740845
1733469108.898914, -0.433949, 3.456629, -1.251270, 1.239756, 0.339512, -7.731848, -28.191376, -87.866943, -617.878235
1733469108.908930, 0.499939, 4.645799, -1.377863, 1.227168, 0.504662, -7.903485, -24.264496, -87.010071, -618.296936
1733469108.918911, 1.711555, 6.472275, -1.091307, 1.182390, 0.687763, -7.904776, -20.732651, -85.572708, -617.334045
1733469108.928314, 3.927837, 8.241740, -0.528520, 1.115430, 0.787327, -7.716797, -17.565720, -84.299911, -616.496033
1733469108.938927, 6.750900, 9.277232, 0.311695, 1.014922, 0.684730, -7.336472, -14.556015, -82.344406, -615.894226
1733469108.948908, 9.424775, 9.625140, 1.632546, 0.885012, 0.207810, -6.814692, -12.452576, -80.836731, -615.276367
1733469108.958908, 11.350312, 9.396942, 2.011578, 0.771338, -0.366582, -6.316433, -10.535019, -79.188034, -615.355469
1733469108.968908, 12.548011, 8.973767, 0.863259, 0.696739, -0.619782, -5.869997, -8.459229, -77.202713, -614.808594
1733469108.978907, 13.462297, 9.168146, -0.465672, 0.612337, -0.446847, -5.416146, -6.873138, -75.233521, -615.143799
1733469108.988907, 14.138210, 9.715521, -1.063923, 0.451247, 0.056431, -4.972597, -5.485565, -73.467575, -614.882812
1733469108.998902, 14.986206, 10.606613, -1.237353, 0.229507, 0.822921, -4.592391, -4.548019, -71.952988, -613.696411
1733469109.008908, 16.290747, 11.744008, -0.608576, 0.005648, 1.535185, -4.267807, -3.942337, -70.597214, -614.203430
1733469109.018904, 18.362928, 12.178556, 0.877026, -0.152934, 1.839212, -3.923210, -2.841522, -69.226715, -613.493347
1733469109.028919, 21.172524, 13.365481, 2.686444, -0.228158, 1.559304, -3.365598, -2.415680, -68.127136, -612.836426
1733469109.038904, 23.066337, 13.907618, 3.837157, -0.209056, 0.943511, -2.797180, -2.049637, -67.028778, -612.634033
1733469109.048965, 23.662194, 13.742269, 3.838953, -0.119870, 0.310241, -2.284266, -1.432266, -66.106735, -612.296936
1733469109.058915, 23.549966, 13.936947, 3.266439, -0.023632, -0.150552, -1.831952, -1.223907, -65.240585, -612.463562
1733469109.068905, 23.297228, 13.896994, 3.103933, 0.035946, -0.558457, -1.399998, -0.745148, -64.899414, -612.393188
1733469109.078898, 22.906375, 13.536816, 2.743755, 0.114162, -0.897067, -0.954318, -0.290375, -64.308701, -613.047668
1733469109.088952, 22.449830, 13.053337, 1.811812, 0.226669, -1.053643, -0.480979, 0.137146, -64.117203, -612.978943
1733469109.098899, 22.252907, 12.614899, 1.169717, 0.301332, -1.062249, 0.084466, 0.322144, -64.158707, -612.669922
1733469109.108908, 22.039973, 12.211476, 1.162834, 0.303626, -1.011602, 0.714883, 0.198334, -64.173462, -613.762146
1733469109.118912, 21.454740, 11.672182, 1.365593, 0.239944, -0.957198, 1.360634, 0.101715, -64.701248, -614.444580
1733469109.128898, 20.482096, 11.164462, 1.546654, 0.126361, -0.886980, 1.984010, -0.148132, -65.568985, -614.402222
1733469109.138905, 19.204939, 10.885986, 1.718438, -0.041355, -0.779241, 2.545185, -0.613083, -66.535461, -614.879639
1733469109.148895, 17.936760, 10.618135, 1.994969, -0.284099, -0.699608, 3.045930, -1.035416, -67.856323, -615.153687
1733469109.158894, 16.768091, 10.361207, 2.012775, -0.527499, -0.649105, 3.500270, -2.074890, -69.196609, -615.639587
1733469109.168897, 15.672893, 10.130615, 1.576731, -0.725857, -0.594565, 3.921622, -3.005142, -70.752274, -615.913940
1733469109.178895, 14.708329, 9.917382, 1.166425, -0.868616, -0.580280, 4.326315, -4.159439, -72.070068, -616.297913
1733469109.188887, 13.829807, 9.673323, 0.678906, -0.941132, -0.576492, 4.697359, -5.689926, -73.890518, -617.010864
1733469109.198897, 13.234698, 9.334843, 0.137068, -0.954423, -0.596410, 5.069096, -7.241318, -75.640350, -616.990967
1733469109.208893, 12.681937, 9.066393, -0.384718, -0.907182, -0.609920, 5.438091, -8.744537, -77.386276, -618.212952
1733469109.218903, 12.146683, 8.905233, -0.526575, -0.830735, -0.721621, 5.802802, -10.936691, -79.158203, -619.003235
1733469109.228892, 11.576564, 8.798242, -0.587328, -0.686170, -0.922974, 6.169889, -13.034348, -80.816086, -619.702515
1733469109.238905, 10.787674, 8.614338, -0.838719, -0.462614, -1.140597, 6.498214, -15.820221, -82.498276, -620.064636
1733469109.248890, 10.096049, 8.425495, -0.856825, -0.187791, -1.440892, 6.813792, -18.525528, -84.166840, -620.284546
1733469109.258890, 9.585486, 8.263587, -0.706888, 0.154027, -1.838278, 7.171777, -21.440186, -85.452072, -620.724487
1733469109.268887, 8.739435, 8.305336, -0.792331, 0.528247, -2.155840, 7.582769, -24.417236, -86.897491, -620.916809
1733469109.278886, 7.832331, 8.483105, -0.898873, 0.870789, -2.319106, 8.085769, -27.952240, -87.992950, -620.797913
1733469109.288901, 7.020547, 8.934562, -0.712574, 1.133012, -2.332723, 8.723515, -31.747330, -88.589508, -620.159729
1733469109.298884, 5.506813, 10.004022, -0.298527, 1.284084, -2.159626, 9.485025, -35.762436, -89.070343, -619.045715
1733469109.308909, 2.784756, 11.079916, 0.642694, 1.262614, -1.763248, 10.303236, -40.791595, -88.578690, -619.251831
1733469109.318892, -1.042376, 11.215039, 2.169596, 0.893914, -1.257621, 10.932196, -45.906998, -88.074600, -618.977539
1733469109.328888, -4.532673, 10.276961, 3.843591, 0.101818, -0.880902, 11.267651, -50.806580, -86.617126, -618.551392
1733469109.338884, -7.024139, 10.224737, 4.017321, -0.722994, -0.574227, 11.571461, -55.320068, -84.471054, -618.774048
1733469109.348882, -9.711331, 11.954399, 2.014272, -1.219089, -0.259897, 11.996299, -60.172806, -81.542664, -618.989990
1733469109.358881, -13.638121, 13.311612, -0.641197, -1.380173, 0.068299, 12.340793, -65.127701, -77.957703, -619.931580
1733469109.368879, -18.728792, 12.245743, -2.699612, -1.281762, 0.374938, 12.271140, -69.297913, -73.868729, -620.783752
1733469109.378878, -26.028114, 8.517223, -3.545364, -1.124247, 0.450126, 11.444054, -74.132095, -69.944138, -621.456421
1733469109.388888, -36.843023, 0.501136, -3.220949, -1.133643, 0.260586, 9.181396, -76.286133, -66.537109, -621.787720
1733469109.398884, -44.448055, -8.803031, -2.489521, -1.319060, -0.413418, 6.107780, -77.375671, -64.579300, -621.364014
1733469109.408778, -44.912081, -12.379669, -3.381211, -1.247431, -1.580760, 3.215176, -77.375671, -64.579300, -621.364014
1733469109.418879, -41.273194, -12.970737, -6.830358, -0.506260, -2.758175, 0.936868, -77.616028, -63.566650, -621.079346
1733469109.428883, -35.170074, -11.805808, -9.897779, 0.598916, -3.601339, -0.485237, -77.132828, -63.371948, -619.343201
1733469109.438903, -28.613703, -10.205434, -10.531195, 1.531178, -3.975151, -1.100863, -76.230209, -63.487289, -617.151672
1733469109.448880, -23.810336, -8.610597, -9.900024, 2.072401, -3.615231, -1.108184, -75.640076, -63.898499, -614.978088
1733469109.458884, -21.089625, -7.744644, -8.896554, 2.149327, -2.453234, -0.815287, -75.511276, -64.166534, -612.857361
1733469109.468888, -20.053683, -8.703073, -7.317728, 1.779369, -0.822133, -0.523365, -75.244507, -64.603790, -611.872131
1733469109.478880, -20.343980, -10.519374, -5.644480, 1.159378, 0.855902, -0.469765, -75.776413, -64.923965, -612.096191
1733469109.488886, -21.105337, -12.309788, -4.089596, 0.534733, 2.175356, -0.740379, -76.416733, -65.125168, -612.626343
1733469109.498885, -21.545271, -13.070246, -2.758270, 0.078646, 2.863843, -1.242853, -76.500137, -65.594559, -614.018311
1733469109.508894, -21.210083, -12.943802, -1.842637, -0.125872, 2.891994, -1.904210, -76.561874, -66.320038, -614.762634
1733469109.518878, -20.328717, -12.084434, -1.503708, -0.078955, 2.422129, -2.577119, -76.229507, -67.469543, -616.473633
1733469109.528885, -19.306992, -10.779893, -1.568352, 0.111872, 1.751617, -3.216826, -75.560608, -68.657623, -617.303101
1733469109.538885, -17.953071, -9.565434, -2.367716, 0.380545, 1.181228, -3.754910, -74.288162, -69.972610, -617.802917
1733469109.548889, -16.181661, -8.620024, -3.455132, 0.675142, 0.884582, -4.168386, -73.081360, -71.454056, -618.371948
1733469109.558883, -14.496891, -7.908946, -3.967342, 0.924952, 0.865263, -4.462142, -71.695282, -73.021820, -617.808960
1733469109.568882, -13.148656, -7.015310, -3.798999, 1.057238, 1.068921, -4.682962, -70.254349, -74.628448, -618.200562
1733469109.578875, -12.035203, -6.110152, -3.041983, 1.056675, 1.367089, -4.884680, -68.872055, -76.371201, -617.922791
1733469109.588861, -11.043554, -5.297171, -2.116923, 0.980420, 1.685764, -5.083711, -67.180634, -77.960419, -618.243530
1733469109.598860, -10.176105, -4.646547, -1.394024, 0.887772, 1.985891, -5.331961, -65.326721, -79.636261, -618.354248
1733469109.608865, -9.295338, -4.042161, -0.717213, 0.817129, 2.160772, -5.647406, -63.109985, -81.247131, -618.754395
1733469109.618918, -8.508394, -3.166182, 0.028880, 0.792676, 2.147206, -5.981045, -61.059082, -82.694321, -618.962646
1733469109.628859, -7.653515, -2.073229, 0.837821, 0.816206, 1.936110, -6.295461, -58.385559, -84.176605, -619.197632
1733469109.638860, -6.466140, -0.901716, 1.288829, 0.849053, 1.629033, -6.559351, -55.585312, -85.496780, -619.008728
1733469109.648917, -5.168483, -0.063147, 1.250073, 0.899998, 1.293227, -6.814539, -52.813705, -86.577698, -618.877441
1733469109.658869, -3.904045, 0.633117, 0.998232, 1.004726, 0.937821, -7.043657, -49.708481, -87.528015, -618.550842
1733469109.668862, -2.735525, 1.483657, 0.701202, 1.156847, 0.612450, -7.238175, -46.363525, -88.228104, -617.953003
1733469109.678911, -1.553987, 2.176928, 0.393547, 1.337704, 0.323516, -7.405923, -42.924652, -88.694275, -617.285828
1733469109.688864, -0.417190, 3.095104, 0.198419, 1.527704, 0.121023, -7.499250, -39.460007, -88.805161, -616.841492
1733469109.698856, 0.902165, 4.316596, 0.274136, 1.679817, -0.049062, -7.522060, -36.108475, -88.680511, -615.569763
1733469109.708860, 2.421436, 5.201253, 0.980874, 1.711887, -0.261917, -7.463765, -32.667267, -88.577087, -614.837158
1733469109.718868, 4.034230, 5.712715, 1.745223, 1.610410, -0.512794, -7.329079, -29.152145, -87.696976, -614.198853
1733469109.728872, 6.063316, 6.118382, 2.205509, 1.391024, -0.716614, -7.097744, -26.287460, -86.831604, -613.656738
1733469109.738877, 8.380304, 6.508637, 2.783110, 1.079291, -0.898306, -6.785870, -23.474411, -85.888458, -612.755615
1733469109.748868, 10.705673, 6.897545, 3.192369, 0.649727, -0.959894, -6.352700, -20.869049, -84.779892, -612.664062
1733469109.758931, 12.579136, 7.208642, 3.039289, 0.159104, -0.813242, -5.835830, -18.196228, -83.454544, -613.023804
1733469109.768452, 14.034810, 7.460482, 2.001852, -0.288764, -0.329843, -5.286165, -16.182999, -82.289444, -613.310852
1733469109.778850, 15.276054, 7.613711, 1.004517, -0.652931, 0.292591, -4.716218, -14.766510, -80.910019, -613.570740
1733469109.788850, 16.454899, 7.480384, 0.449362, -0.913232, 0.903465, -4.173064, -13.417694, -80.003891, -614.217041
1733469109.798867, 17.804930, 7.498789, -0.109086, -1.024062, 1.489055, -3.647279, -12.556931, -79.237686, -613.581665
1733469109.808863, 19.334376, 7.816021, -0.154426, -0.988438, 1.860397, -3.104976, -11.737915, -78.211472, -613.434875
1733469109.818874, 20.635923, 7.792677, 0.868048, -0.857330, 1.826694, -2.617713, -11.791824, -77.491440, -613.551941
1733469109.828938, 21.329194, 7.694066, 2.258031, -0.686515, 1.458453, -2.300773, -11.386368, -77.021423, -613.302124
1733469109.838922, 21.785439, 7.867347, 3.297564, -0.503666, 0.851225, -2.067190, -10.846054, -76.429810, -613.016785
1733469109.848860, 22.155793, 8.062923, 4.058172, -0.332341, 0.114136, -1.893051, -10.409241, -75.884781, -613.037109
1733469109.858863, 22.192304, 8.135497, 4.432415, -0.143955, -0.683476, -1.779816, -9.633606, -75.215485, -613.749329
1733469109.868934, 22.252608, 8.376264, 4.399645, -0.000495, -1.354906, -1.650474, -9.135666, -74.408234, -613.765930
1733469109.878868, 22.791154, 8.686014, 3.978116, 0.039856, -1.819920, -1.375570, -7.982864, -74.037033, -614.241333
1733469109.888845, 23.173478, 8.967632, 3.445406, -0.013198, -2.062197, -0.921312, -7.471771, -73.620682, -614.603516
1733469109.898864, 22.980595, 8.996662, 2.567332, -0.159809, -2.022731, -0.350324, -7.410294, -73.386566, -614.825928
1733469109.908853, 22.272809, 8.407089, 1.508497, -0.348034, -1.763392, 0.249974, -6.510941, -73.218155, -615.928528
1733469109.918848, 21.739650, 8.907777, 0.817171, -0.542088, -1.444945, 0.999077, -6.834381, -73.574615, -616.274536
1733469109.928844, 20.818332, 8.727613, -0.020201, -0.684728, -1.017695, 1.684780, -7.533020, -74.271347, -617.202820
1733469109.938843, 19.594745, 7.985560, -0.468515, -0.798646, -0.617422, 2.286639, -7.968414, -75.063293, -617.879333
1733469109.948847, 18.324322, 8.101380, -0.415693, -0.871230, -0.325537, 2.823035, -8.967819, -75.785873, -618.361328
1733469109.958840, 17.165229, 8.146421, 0.021099, -0.873170, -0.277181, 3.303708, -9.802444, -77.031830, -618.742432
1733469109.968855, 16.301072, 7.937227, 0.808043, -0.824356, -0.523335, 3.733855, -11.217514, -78.103561, -619.406006
1733469109.978840, 15.533131, 7.849241, 1.447145, -0.733794, -0.980808, 4.153055, -12.415115, -79.350494, -619.470459
1733469109.988840, 14.611065, 7.721450, 1.382801, -0.593561, -1.465987, 4.550751, -14.020813, -80.644241, -620.425720
1733469109.998866, 13.542802, 7.473500, 1.058087, -0.424424, -1.887426, 4.933005, -15.860413, -81.821167, -620.505676
1733469110.008843, 12.344953, 7.245303, 0.376488, -0.245604, -2.141979, 5.304748, -17.796082, -82.868332, -621.621094
1733469110.018836, 11.126603, 6.978499, -0.520140, -0.044519, -2.164809, 5.670340, -20.243423, -84.044342, -622.319641
1733469110.028836, 10.105027, 6.835895, -0.969652, 0.147544, -2.070598, 6.048004, -22.851746, -85.490891, -622.066467
1733469110.038839, 9.279926, 6.672640, -0.811934, 0.304983, -1.974737, 6.451556, -25.331818, -86.534058, -622.586609
1733469110.048841, 8.664466, 6.622362, -0.361225, 0.425188, -1.955819, 6.911503, -28.335495, -87.277237, -622.343384
1733469110.058850, 8.035539, 6.824373, 0.181062, 0.511718, -2.010689, 7.409916, -31.776093, -88.250412, -622.503418
1733469110.068830, 7.075764, 7.202806, 0.588076, 0.584455, -2.083778, 7.930421, -35.256760, -88.773056, -622.724243
1733469110.078836, 5.900660, 7.679402, 0.744297, 0.642262, -2.130561, 8.501793, -39.270630, -88.689423, -621.708374
1733469110.088831, 4.649240, 8.267029, 0.653617, 0.695383, -2.042109, 9.146601, -43.490799, -88.389481, -621.213684
1733469110.098832, 3.134908, 9.003395, 0.452654, 0.715679, -1.781628, 9.837857, -47.912491, -87.692230, -620.121582
1733469110.108851, 1.660379, 9.835829, 0.470012, 0.666631, -1.379994, 10.560746, -52.719925, -86.171356, -620.379028
1733469110.117925, -0.351349, 10.824784, 0.962020, 0.507971, -0.927623, 11.265824, -57.235947, -84.088257, -619.942810
1733469110.128831, -3.267936, 12.166136, 1.540369, 0.213835, -0.416038, 11.891602, -62.015793, -81.213654, -620.005371
1733469110.138908, -6.537966, 13.443742, 2.154781, -0.222643, -0.020982, 12.401079, -66.501053, -77.498459, -620.000183
1733469110.148829, -10.913519, 14.625579, 2.290204, -0.702517, 0.357297, 12.772099, -70.298477, -73.124054, -620.619690
1733469110.158842, -17.435025, 14.724340, 2.336142, -1.248117, 0.560154, 12.696586, -74.940048, -68.339172, -621.579407
1733469110.168845, -25.976789, 11.753435, 3.489848, -1.896846, -0.142496, 11.660809, -78.513748, -63.584457, -621.959290
1733469110.178825, -33.926137, 5.141249, 2.371008, -2.255948, -1.446671, 9.663205, -80.367676, -59.384995, -621.634583
1733469110.188818, -39.743897, -2.291700, -3.235464, -1.858194, -2.500246, 7.147227, -80.951553, -56.320343, -620.742310
1733469110.198838, -43.813591, -7.529465, -9.847501, -0.769795, -2.861916, 4.551484, -81.106049, -54.422775, -618.910278
1733469110.208827, -44.387451, -9.606734, -12.583625, 0.313212, -2.783971, 2.197681, -80.536148, -53.446442, -617.961670
1733469110.218842, -40.474278, -8.161085, -10.504859, 0.964645, -2.858847, 0.569434, -80.010437, -52.993942, -616.063904
1733469110.228825, -34.831594, -5.058050, -7.823204, 1.274355, -2.784842, -0.218610, -79.785980, -53.211517, -614.247070
1733469110.238830, -30.124444, -3.472490, -6.943634, 1.344581, -2.204920, -0.382620, -79.479736, -53.339798, -613.128113
1733469110.248892, -27.247212, -4.070741, -6.403442, 1.144685, -1.148289, -0.289191, -79.780869, -53.318695, -613.206543
1733469110.258824, -26.135405, -6.037728, -5.825392, 0.711461, 0.139730, -0.260661, -80.435257, -53.660721, -613.692993
1733469110.268820, -25.984420, -8.418312, -5.366304, 0.202247, 1.342566, -0.483386, -80.982742, -54.156906, -614.796082
1733469110.278828, -25.582793, -10.593445, -5.235371, -0.188520, 2.205635, -0.948190, -81.076874, -54.844147, -616.147400
1733469110.288815, -24.574834, -11.641357, -5.098901, -0.363009, 2.574188, -1.561771, -81.293747, -55.883957, -617.923157
1733469110.298826, -23.212234, -11.291803, -4.568735, -0.353079, 2.428934, -2.229330, -80.853088, -57.259888, -617.952881
1733469110.308833, -21.381418, -10.089315, -4.085107, -0.200976, 1.918996, -2.825368, -80.592972, -58.467361, -619.155518
1733469110.318816, -19.299360, -8.610148, -4.203620, 0.054110, 1.329709, -3.269088, -79.961990, -60.018982, -619.569702
1733469110.328821, -17.378163, -7.366510, -4.896142, 0.336799, 0.917910, -3.575616, -79.057083, -61.803436, -620.053650
1733469110.338848, -15.873707, -6.416311, -5.442170, 0.583845, 0.761057, -3.767110, -78.210022, -63.367828, -620.284302
1733469110.348826, -14.786739, -5.458032, -5.566369, 0.749692, 0.848045, -3.881420, -77.295685, -65.130676, -620.238098
1733469110.358817, -13.854646, -5.196166, -5.467309, 0.858580, 1.115407, -3.988164, -76.232513, -66.745575, -620.448547
1733469110.368807, -13.153894, -5.107431, -5.081244, 0.914436, 1.452488, -4.108737, -75.371735, -68.549042, -620.814758
1733469110.378818, -12.652009, -4.925920, -4.297742, 0.939187, 1.733713, -4.292555, -74.056519, -70.532532, -621.665466
1733469110.388882, -12.105981, -4.891803, -3.433435, 0.954194, 1.899307, -4.564632, -72.712997, -72.324188, -622.367432
1733469110.398811, -11.592126, -4.645350, -2.664447, 0.982894, 1.961302, -4.922128, -71.506775, -74.366104, -621.994019
1733469110.408813, -10.881946, -4.192247, -1.954866, 1.004403, 1.915624, -5.330485, -69.114609, -76.134857, -622.763184
1733469110.418810, -9.843162, -3.319561, -1.275212, 1.044119, 1.767192, -5.692071, -67.041870, -78.112946, -623.104370
1733469110.428888, -8.560618, -2.192789, -0.984765, 1.110304, 1.622249, -6.000038, -64.720215, -79.996964, -623.198975
1733469110.438812, -7.305308, -1.205929, -0.770185, 1.188957, 1.460582, -6.260201, -62.237579, -81.839706, -623.279907
1733469110.448824, -5.819556, -0.391452, -0.625485, 1.284299, 1.277176, -6.466837, -59.753159, -83.477875, -622.652710
1733469110.458805, -4.340089, 0.216975, -0.458340, 1.404052, 1.061752, -6.621561, -56.618423, -85.101288, -622.444092
1733469110.468822, -2.983026, 0.823605, -0.223110, 1.531450, 0.827106, -6.713844, -53.909500, -86.216675, -621.137695
1733469110.478808, -1.820940, 1.280748, 0.118812, 1.632064, 0.585196, -6.759011, -50.909897, -87.084534, -620.638062
1733469110.488804, -0.872986, 1.459266, 0.593912, 1.676210, 0.304535, -6.787232, -47.751968, -88.040695, -619.860962
1733469110.498804, -0.306308, 1.683423, 1.020977, 1.633843, 0.060765, -6.849548, -44.509949, -88.757080, -618.648682
1733469110.508809, -0.102801, 1.894262, 1.256357, 1.517434, -0.110120, -6.972456, -41.138321, -89.064468, -618.502930
1733469110.518803, -0.117017, 2.034922, 1.310975, 1.353360, -0.193926, -7.159424, -37.936493, -89.162094, -617.578857
1733469110.528804, 0.238971, 2.346767, 1.096544, 1.184767, -0.197410, -7.371499, -34.363861, -88.865982, -617.058899
1733469110.538801, 1.277606, 3.164686, 0.935235, 1.051513, -0.225613, -7.530021, -30.797104, -88.362793, -616.534790
1733469110.548807, 2.867356, 4.426430, 0.868646, 0.987185, -0.312927, -7.532830, -27.703506, -87.587830, -616.294617
1733469110.558799, 4.987272, 5.524920, 0.866701, 0.939979, -0.417575, -7.387118, -24.463043, -86.633942, -615.878174
1733469110.568806, 7.327155, 6.159832, 1.192312, 0.789912, -0.561423, -7.113999, -21.798584, -85.527710, -615.463257
1733469110.578800, 9.510966, 6.621015, 1.281197, 0.576577, -0.682560, -6.711512, -19.294525, -84.182602, -615.549805
1733469110.588812, 11.559655, 6.849362, 0.979977, 0.417025, -0.789268, -6.188527, -16.640289, -82.976135, -615.774841
1733469110.598813, 13.366529, 6.655282, 0.783652, 0.313100, -0.919896, -5.579607, -15.046097, -81.768768, -615.239136
1733469110.608797, 14.419977, 6.365733, 0.537798, 0.161381, -0.903401, -4.959297, -13.655777, -80.592972, -616.053101
1733469110.618801, 15.165622, 6.309021, -0.468366, -0.058076, -0.449379, -4.411201, -12.749939, -79.491028, -615.836914
1733469110.628798, 16.153080, 6.409727, -1.071854, -0.337474, 0.306089, -3.982226, -11.748779, -78.591476, -616.609497
1733469110.638854, 17.515231, 6.743419, -0.519093, -0.620557, 0.975075, -3.601552, -11.000519, -77.531357, -615.865417
1733469110.648805, 19.073557, 7.288099, 0.307655, -0.821190, 1.401596, -3.273816, -10.816132, -76.793045, -615.873047
1733469110.658795, 20.563948, 7.725191, 0.986710, -0.904149, 1.526742, -3.003115, -9.871109, -75.977585, -615.667847
1733469110.668795, 22.109854, 7.963863, 1.900547, -0.861236, 1.245468, -2.744522, -9.008331, -75.098572, -615.819763
1733469110.678791, 24.053946, 9.259425, 2.883966, -0.740170, 0.555179, -2.305048, -8.632629, -74.402573, -616.067505
1733469110.688792, 25.197925, 9.642198, 3.233968, -0.570770, -0.275728, -1.847883, -7.684921, -73.751221, -616.557678
1733469110.698795, 25.578304, 9.458443, 2.733131, -0.414755, -0.995189, -1.330976, -6.984360, -73.769302, -616.390259
1733469110.707868, 25.446772, 9.827599, 1.369932, -0.283772, -1.360609, -0.731074, -6.709305, -73.314987, -617.353760
1733469110.718813, 25.035568, 9.721805, 0.112677, -0.180862, -1.472175, -0.035545, -6.371078, -73.419205, -617.776245
1733469110.728796, 24.498070, 9.548076, -0.870292, -0.102597, -1.376816, 0.753777, -6.725494, -74.008118, -618.150757
1733469110.738794, 23.602190, 9.217377, -1.542764, -0.061215, -1.149059, 1.582947, -7.354416, -74.682892, -618.756226
1733469110.748789, 21.973684, 8.657732, -1.818396, -0.084251, -0.808960, 2.335335, -8.320099, -75.468750, -618.735046
1733469110.758788, 19.862447, 8.139837, -1.820341, -0.169199, -0.411689, 2.948493, -9.296417, -76.653290, -618.703735
1733469110.768787, 17.782634, 7.527969, -1.646612, -0.298842, -0.021055, 3.407701, -10.722488, -77.945374, -619.592285
1733469110.778805, 15.916503, 6.909816, -1.636736, -0.416239, 0.365871, 3.729260, -11.780365, -78.953537, -618.982361
1733469110.788789, 14.621838, 6.561160, -1.384746, -0.481683, 0.584699, 3.978605, -13.531570, -80.127914, -619.130859
1733469110.798798, 13.933206, 6.314557, -0.491560, -0.481016, 0.483852, 4.196054, -14.689697, -81.428528, -618.844482
1733469110.808787, 13.398850, 6.058527, 0.375590, -0.386176, 0.088146, 4.427121, -16.584534, -82.476517, -619.749634
1733469110.818790, 12.749273, 5.760150, 0.842609, -0.234456, -0.421855, 4.665748, -18.355240, -83.584854, -619.990051
1733469110.828785, 11.781567, 5.272032, 0.900669, -0.105492, -0.840186, 4.885316, -20.513535, -84.644196, -620.330688
1733469110.838800, 10.726772, 4.793491, 0.716166, -0.020325, -1.097207, 5.080053, -22.576996, -85.625702, -619.995178
1733469110.848788, 9.809493, 4.449325, 0.417938, 0.023477, -1.179666, 5.257986, -24.855896, -86.528412, -620.496460
1733469110.858796, 9.197625, 4.116381, 0.301969, 0.021677, -1.194512, 5.466320, -27.157028, -87.206497, -620.223999
1733469110.868777, 8.787917, 3.977218, 0.271592, 0.005763, -1.183313, 5.730442, -29.912521, -87.868240, -620.794678
1733469110.878783, 8.347534, 3.923199, 0.217274, 0.008028, -1.208349, 6.051804, -32.882645, -88.434448, -620.952148
1733469110.888790, 7.779509, 3.842694, 0.128239, 0.059896, -1.261560, 6.405853, -32.882645, -88.434448, -620.952148
1733469110.898806, 7.013066, 3.795408, 0.027833, 0.142861, -1.286665, 6.798371, -35.874146, -88.805969, -620.879944
1733469110.908780, 6.399102, 3.817106, 0.134823, 0.185313, -1.277806, 7.261826, -39.044357, -89.084656, -620.391418
1733469110.918775, 5.488109, 4.120122, 0.444723, 0.127701, -1.183759, 7.777134, -42.522293, -88.740875, -620.341736
1733469110.928842, 4.037671, 4.808754, 0.744148, -0.042376, -1.008341, 8.310969, -46.315674, -88.249710, -620.769409
1733469110.938782, 2.434753, 5.508011, 1.017386, -0.280562, -0.806894, 8.835071, -50.393570, -87.314896, -620.807495
1733469110.948774, 0.899621, 6.128857, 1.287183, -0.525065, -0.699260, 9.367598, -54.331421, -85.749420, -620.383545
1733469110.958792, -0.867449, 6.948272, 1.419313, -0.723103, -0.657612, 9.909382, -58.595459, -83.786255, -620.973999
1733469110.968790, -3.143886, 7.300370, 1.303643, -0.890752, -0.550692, 10.375311, -62.689087, -81.045837, -621.169922
1733469110.978791, -5.618742, 7.391499, 1.094449, -1.144221, -0.326144, 10.746187, -66.515198, -77.763733, -621.144165
1733469110.988772, -8.251466, 8.298902, 0.616058, -1.554393, 0.066197, 11.036600, -69.927032, -74.313934, -621.799072
1733469110.998812, -12.281057, 8.986187, 0.178817, -2.039090, 0.370163, 11.099955, -73.770386, -69.994888, -622.640381
1733469111.008774, -19.039739, 7.419631, 0.382324, -2.458557, 0.086507, 10.483928, -77.415604, -65.719437, -623.177979
1733469111.018779, -26.294320, 3.199402, -0.074968, -2.676368, -0.940163, 8.965932, -79.236710, -61.864807, -623.760132
1733469111.028893, -31.281741, -1.021426, -3.514538, -2.361191, -2.039870, 7.044701, -80.207611, -58.530319, -623.125122
1733469111.038899, -34.653076, -4.617667, -8.893861, -1.441634, -2.679003, 5.053429, -81.010117, -56.255493, -622.133789
1733469111.048862, -36.358795, -7.699753, -13.050045, -0.327083, -2.654285, 3.140185, -80.714645, -54.616760, -620.624939
1733469111.058837, -34.670734, -8.346636, -13.776236, 0.515755, -2.285717, 1.673135, -80.454605, -54.047501, -619.081238
1733469111.068913, -30.795120, -5.933879, -11.387721, 1.005815, -1.937606, 0.862485, -80.082413, -53.686279, -618.190063
1733469111.078832, -27.155783, -3.011606, -8.969428, 1.238952, -1.482414, 0.626000, -79.909058, -53.402847, -617.129761
1733469111.088841, -24.626609, -1.884835, -7.344812, 1.257614, -0.871541, 0.709163, -80.631607, -52.816406, -616.472107
1733469111.098803, -23.708133, -3.089418, -6.123620, 1.023970, -0.198030, 0.760799, -80.961349, -52.761795, -617.090820
1733469111.108843, -25.833586, -8.183681, -5.197961, 0.642633, 0.336262, 0.518774, -81.490906, -52.657242, -617.433350
1733469111.118781, -26.625617, -10.229975, -5.952434, 0.322123, 0.736280, -0.088921, -81.786972, -52.879517, -617.995178
1733469111.128775, -25.598355, -11.228207, -6.468385, 0.171299, 1.046088, -0.981805, -81.737000, -53.511078, -618.935181
1733469111.138771, -23.153127, -10.691607, -6.234651, 0.345723, 1.132269, -2.644443, -81.855225, -54.657883, -619.300964
1733469111.148760, -20.611682, -8.982745, -5.478532, 0.479706, 0.968138, -3.204822, -81.313232, -55.838333, -619.573425
1733469111.158764, -18.337041, -7.265055, -4.831499, 0.556080, 0.788412, -3.585670, -80.600204, -57.580048, -619.947754
1733469111.168763, -16.284911, -6.095488, -4.659266, 0.591635, 0.691791, -3.808336, -80.013962, -59.332169, -620.424683
1733469111.178760, -14.464420, -5.475689, -4.855142, 0.625828, 0.708029, -3.938381, -79.424545, -61.070129, -620.688843
1733469111.188763, -13.168857, -5.316325, -5.068525, 0.680519, 0.818107, -4.036458, -78.593369, -62.767319, -620.844482
1733469111.198760, -12.362909, -5.127183, -5.057003, 0.752044, 0.998359, -4.138612, -77.685547, -64.772049, -621.104187
1733469111.208780, -11.844116, -4.838382, -4.717625, 0.828985, 1.182420, -4.274505, -76.667770, -66.568817, -621.443054
1733469111.218773, -11.486033, -4.921581, -4.306271, 0.909621, 1.346901, -4.488746, -75.861984, -68.471207, -621.481812
1733469111.228770, -11.056124, -5.046079, -3.836559, 0.992812, 1.455295, -4.764430, -74.395660, -70.095413, -621.749390
1733469111.238763, -10.416573, -4.978144, -3.351433, 1.083365, 1.529122, -5.079237, -73.020447, -72.348068, -622.268433
1733469111.248758, -9.490466, -4.650587, -2.789694, 1.161663, 1.539999, -5.410932, -71.534393, -74.152771, -622.247070
1733469111.258762, -8.332420, -4.052785, -2.083105, 1.226187, 1.424598, -5.710880, -69.230728, -76.314163, -622.412048
1733469111.268773, -7.260566, -3.168277, -1.414674, 1.285552, 1.257368, -5.948036, -67.374802, -78.277664, -622.519714
1733469111.278756, -6.127959, -2.446575, -1.050755, 1.343939, 1.093975, -6.143839, -65.040817, -79.950195, -622.608765
1733469111.288757, -5.006575, -2.017414, -0.874033, 1.426831, 0.912262, -6.303115, -62.637955, -81.709000, -622.046326
1733469111.298762, -4.067749, -1.482160, -0.685640, 1.545920, 0.734933, -6.414170, -59.902115, -83.378906, -621.036255
1733469111.308760, -3.186084, -0.978331, -0.491111, 1.670679, 0.614255, -6.484660, -57.054443, -84.949509, -621.200500
1733469111.318777, -2.351106, -0.739210, -0.163554, 1.739467, 0.494008, -6.545259, -54.436508, -86.059265, -620.099854
1733469111.328755, -1.732205, -0.509067, 0.300622, 1.746211, 0.334012, -6.598774, -51.542511, -87.124649, -619.516663
1733469111.338753, -1.268628, -0.188394, 0.664690, 1.707178, 0.185094, -6.648231, -48.572021, -88.026749, -618.560730
1733469111.348752, -0.887201, 0.137966, 0.795623, 1.631680, 0.097226, -6.740559, -45.604736, -88.729248, -617.817932
1733469111.358752, -0.704494, 0.258125, 0.755969, 1.503671, 0.108259, -6.923544, -42.496750, -88.986679, -616.901978
1733469111.368748, -0.525677, 0.529119, 0.677858, 1.352049, 0.154727, -7.130303, -39.060867, -89.088165, -616.292969
1733469111.378750, 0.303465, 1.310376, 0.720505, 1.246170, 0.169507, -7.257829, -35.501953, -89.047592, -615.403198
1733469111.388747, 1.677587, 2.340033, 0.771980, 1.202607, 0.133895, -7.274690, -32.228348, -88.657745, -615.333801
1733469111.398743, 3.125630, 3.215562, 0.824204, 1.189867, 0.048073, -7.230591, -29.172836, -87.968323, -613.701111
1733469111.408745, 4.799776, 3.841048, 1.167024, 1.160092, -0.135057, -7.087584, -25.721420, -87.154190, -614.027832
1733469111.418762, 6.464344, 4.452617, 1.931821, 1.043103, -0.462047, -6.846174, -22.814087, -86.059692, -613.123596
1733469111.428749, 7.391200, 4.880281, 2.417695, 0.832003, -0.822879, -6.617360, -20.059189, -84.923233, -613.188049
1733469111.438754, 8.321646, 4.985476, 1.859547, 0.636290, -1.024307, -6.400136, -17.246658, -83.417267, -613.093384
1733469111.448747, 9.640552, 5.306149, 1.011101, 0.454218, -1.071537, -6.097313, -14.686890, -81.931641, -612.628418
1733469111.458752, 11.087847, 5.913229, 0.185401, 0.263331, -0.901732, -5.670249, -12.461563, -80.508026, -613.541748
1733469111.468745, 12.824092, 6.426636, -0.778564, 0.076827, -0.477626, -5.132544, -10.810776, -78.899307, -613.129028
1733469111.478308, 14.455142, 6.759879, -1.278653, -0.118803, 0.096062, -4.546953, -9.393997, -77.285309, -612.853455
1733469111.488747, 15.608998, 6.950218, -1.323994, -0.300608, 0.722592, -4.018274, -8.121140, -76.136566, -613.115967
1733469111.498747, 16.868946, 7.586028, -0.826448, -0.476784, 1.182142, -3.441577, -7.209015, -74.980408, -612.126343
1733469111.508740, 18.181567, 8.378808, 0.237176, -0.566981, 1.344181, -2.896526, -6.868607, -74.049606, -612.861389
1733469111.518743, 18.857630, 8.170961, 0.653318, -0.572047, 1.371210, -2.459229, -6.387360, -73.144196, -612.046265
1733469111.528807, 19.396026, 8.449138, 1.241992, -0.535540, 1.233210, -2.093887, -6.168839, -72.622620, -612.211609
1733469111.538743, 19.550153, 9.006987, 2.026243, -0.459622, 0.931590, -1.834467, -6.012497, -71.866211, -611.570862
1733469111.548761, 19.672706, 9.353248, 2.706196, -0.353723, 0.467840, -1.651017, -5.615875, -71.352051, -611.684326
1733469111.558740, 19.967043, 9.784354, 3.369091, -0.235238, -0.138802, -1.517170, -5.233704, -70.969452, -612.014038
1733469111.568742, 20.772243, 10.321254, 3.496732, -0.125485, -0.745143, -1.330553, -4.770065, -70.246353, -611.625122
1733469111.578821, 21.986552, 10.590152, 2.834884, -0.043087, -1.204696, -0.988877, -4.102142, -70.042740, -612.347412
1733469111.588753, 22.921339, 10.865486, 1.889923, 0.039989, -1.487769, -0.458665, -3.666000, -69.608978, -612.955933
1733469111.598747, 23.355587, 11.051785, 0.901118, 0.097275, -1.557537, 0.233002, -3.365173, -69.546844, -612.885742
1733469111.608744, 23.286604, 10.943148, 0.177919, 0.123740, -1.467409, 1.023242, -3.156052, -69.946808, -613.829895
1733469111.618742, 22.530485, 10.649708, -0.303166, 0.126750, -1.249984, 1.830487, -3.420013, -70.450806, -614.548218
1733469111.628742, 21.124789, 10.375722, -0.539294, 0.093305, -0.924407, 2.574891, -3.939362, -71.266312, -614.592834
1733469111.638739, 19.499276, 10.056994, -0.439635, 0.000669, -0.574337, 3.212316, -4.502396, -72.379944, -614.645386
1733469111.648748, 18.016068, 9.606435, 0.122404, -0.149213, -0.328864, 3.751896, -5.861755, -73.602600, -614.569702
1733469111.658750, 16.679655, 9.144504, 0.614412, -0.321623, -0.186796, 4.206336, -6.958450, -75.344208, -615.090393
1733469111.668798, 15.473426, 8.872163, 0.835876, -0.480419, -0.137895, 4.600920, -8.352219, -76.874557, -615.851074
1733469111.678730, 14.477139, 8.541614, 0.968006, -0.579601, -0.222411, 4.957119, -10.059738, -78.355728, -615.712158
1733469111.688726, 13.623606, 8.079682, 1.027262, -0.589988, -0.458045, 5.305665, -11.759644, -80.010895, -616.375488
1733469111.698728, 12.640337, 7.786991, 0.956932, -0.501835, -0.774870, 5.643362, -13.746140, -81.382553, -616.120789
1733469111.708775, 11.514763, 7.489212, 0.784101, -0.350009, -1.090006, 5.946414, -15.654953, -83.007828, -617.330933
1733469111.718736, 10.530896, 7.153426, 0.771083, -0.182199, -1.407899, 6.241464, -18.339767, -84.386215, -617.758301
1733469111.728748, 9.572168, 6.724115, 0.801908, -0.026424, -1.690173, 6.534459, -20.949677, -85.550186, -617.961060
1733469111.738748, 8.426093, 6.402544, 0.587328, 0.108292, -1.828209, 6.813442, -23.843399, -86.718216, -618.410583
1733469111.748791, 7.288848, 6.155044, 0.350751, 0.204273, -1.844788, 7.116698, -26.671036, -87.622345, -618.195923
1733469111.758731, 6.182876, 6.028151, 0.262015, 0.272877, -1.779751, 7.471650, -29.821091, -88.436096, -618.090515
1733469111.768758, 5.070470, 6.033837, 0.284461, 0.306132, -1.620980, 7.881050, -33.471252, -88.954834, -618.212219
1733469111.778718, 4.001310, 6.275203, 0.595109, 0.272400, -1.434989, 8.383828, -36.984055, -89.279724, -618.225159
1733469111.788724, 2.597858, 6.919542, 1.122282, 0.140701, -1.175807, 8.972953, -41.112534, -88.924088, -618.117737
1733469111.798721, 0.847098, 7.474847, 1.564461, -0.130434, -0.845552, 9.568218, -45.438400, -88.602921, -617.640686
1733469111.808722, -1.120037, 7.338976, 2.047342, -0.537463, -0.527324, 10.102501, -50.081772, -87.381683, -618.397461
1733469111.818718, -3.610007, 6.756437, 2.438794, -1.026021, -0.247134, 10.476454, -54.863373, -85.611572, -618.876038
1733469111.828728, -5.976676, 5.735909, 2.584690, -1.599251, 0.021308, 10.635398, -59.377838, -83.394028, -619.807190
1733469111.838736, -7.660248, 5.218462, 2.067692, -2.183754, 0.290274, 10.746289, -63.363297, -80.333832, -621.085938
1733469111.848718, -10.189423, 6.113594, 1.405396, -2.661286, 0.403452, 10.824238, -67.229233, -77.149902, -621.879150
1733469111.858720, -14.869339, 7.024139, 1.267730, -2.939427, -0.110437, 10.586586, -71.305923, -73.316193, -622.594788
1733469111.868716, -20.155587, 5.876568, 0.283414, -2.880808, -1.165653, 9.844018, -74.150757, -69.473465, -623.631958
1733469111.878782, -25.830294, 2.234538, -3.276615, -2.356291, -2.049036, 8.595198, -76.818222, -65.969162, -623.505737
1733469111.888727, -32.045342, -3.596689, -8.721179, -1.526256, -2.109559, 6.758497, -78.216202, -62.857895, -622.969299
1733469111.898719, -36.263476, -9.380781, -13.107356, -0.802873, -1.434650, 4.612181, -78.836212, -60.835999, -621.331970
1733469111.908723, -36.029293, -11.569830, -14.304457, -0.321661, -0.570939, 2.685589, -79.028824, -59.498016, -621.920349
1733469111.918731, -32.357486, -10.588955, -12.679542, 0.016229, -0.028446, 1.298530, -79.181076, -59.189011, -621.673645
1733469111.928717, -27.640909, -8.366089, -9.239673, 0.338791, -0.215613, 0.432730, -78.722015, -59.303314, -621.639038
1733469111.938724, -23.642592, -5.912481, -5.986701, 0.674591, -0.980878, 0.057352, -78.758591, -58.983429, -620.500122
1733469111.948721, -21.217714, -4.267814, -4.158878, 0.883936, -1.792236, -0.017821, -78.779999, -58.994003, -619.205994
1733469111.958713, -20.497359, -5.070321, -4.106205, 0.872687, -2.120509, -0.012266, -78.793259, -59.053406, -618.390442
1733469111.968720, -21.207389, -7.135619, -5.367650, 0.649355, -1.773135, -0.106843, -78.884735, -59.042480, -617.434753
1733469111.978722, -22.473623, -9.377340, -7.140856, 0.301960, -0.789909, -0.402720, -78.989166, -59.331635, -617.456604
1733469111.988723, -23.460483, -11.222970, -8.738238, -0.029619, 0.556794, -0.883405, -79.139694, -59.804184, -617.903015
1733469111.998711, -23.215376, -11.964125, -9.129989, -0.232326, 1.771387, -1.439399, -78.778198, -60.718460, -618.504028
1733469112.008715, -21.565472, -11.271602, -8.084620, -0.276253, 2.422410, -1.931919, -78.887573, -61.639206, -620.031738
1733469112.018719, -19.499276, -9.609727, -6.723666, -0.178926, 2.459721, -2.329412, -78.411819, -62.925415, -621.384399
1733469112.028719, -17.618182, -8.226776, -5.782745, 0.060896, 2.053095, -2.683927, -77.590378, -64.208115, -622.583313
1733469112.038714, -16.156671, -7.571064, -5.359869, 0.375684, 1.425948, -3.018424, -76.921005, -65.624557, -622.756409
1733469112.048772, -15.123723, -7.120655, -5.392191, 0.692769, 0.819472, -3.339352, -76.192886, -66.966873, -622.628174
1733469112.058709, -14.380174, -6.778883, -5.823147, 0.958083, 0.435877, -3.658570, -75.025833, -68.474350, -623.043945
1733469112.068705, -13.734039, -6.408230, -6.234052, 1.165527, 0.346572, -3.960675, -74.108063, -70.104568, -622.065247
1733469112.078700, -13.074436, -5.789778, -6.319495, 1.321793, 0.518627, -4.229941, -72.524887, -71.700668, -621.924927
1733469112.088701, -12.345551, -5.037251, -5.935974, 1.420211, 0.847740, -4.469346, -71.170258, -73.442154, -622.018799
1733469112.098559, -11.423933, -4.424934, -5.146636, 1.466964, 1.208402, -4.685514, -69.463379, -75.671265, -621.234680
1733469112.108714, -10.329783, -3.914669, -4.120870, 1.476081, 1.493797, -4.886744, -68.056580, -76.999252, -622.080933
1733469112.118702, -9.257630, -3.464410, -3.162291, 1.478338, 1.652166, -5.080729, -66.159424, -78.752777, -622.190796
1733469112.128699, -8.222287, -3.245939, -2.576760, 1.510285, 1.724423, -5.312562, -64.079941, -80.472305, -621.916504
1733469112.138749, -7.194875, -2.857330, -2.096572, 1.576603, 1.729609, -5.565350, -61.871063, -82.200882, -622.501587
1733469112.148701, -6.112397, -2.213739, -1.555932, 1.669204, 1.683485, -5.825307, -59.561646, -83.549652, -621.725891
1733469112.158696, -5.036652, -1.581520, -0.897077, 1.755660, 1.518099, -6.067226, -56.727859, -84.981613, -621.114014
1733469112.168699, -3.908684, -0.760309, -0.204854, 1.829809, 1.236001, -6.244208, -53.953018, -86.076172, -620.419678
1733469112.178702, -2.729839, -0.010774, 0.234931, 1.893894, 0.927394, -6.360388, -51.140930, -87.145981, -620.029175
1733469112.188697, -1.808520, 0.420931, 0.474202, 1.955225, 0.618853, -6.463947, -48.282104, -87.887222, -619.126221
1733469112.198721, -1.072602, 0.535403, 0.597353, 2.010502, 0.333750, -6.598696, -45.314285, -88.758484, -617.583008
1733469112.208693, -0.239420, 0.820014, 0.792032, 2.039372, 0.056764, -6.718832, -41.785645, -88.873215, -616.934326
1733469112.218716, 0.755520, 1.487697, 1.268628, 2.030738, -0.263450, -6.795403, -38.822830, -89.168686, -616.267395
1733469112.228702, 1.739238, 2.084003, 1.869123, 1.963277, -0.617733, -6.862135, -35.682663, -89.025436, -615.248657
1733469112.238697, 2.689886, 2.542941, 2.483236, 1.810326, -0.999143, -6.903316, -32.222168, -88.579071, -614.342896
1733469112.248697, 3.574543, 3.011307, 3.012504, 1.549439, -1.363857, -6.888934, -28.900040, -87.989273, -613.938599
1733469112.258693, 4.191948, 3.398420, 2.912696, 1.183631, -1.553723, -6.829442, -25.857529, -87.145706, -613.297058
1733469112.268700, 4.414609, 3.545663, 2.044798, 0.769511, -1.440477, -6.763245, -22.977661, -86.107330, -613.423828
1733469112.278690, 4.809353, 3.724779, 0.935235, 0.393539, -1.061350, -6.668142, -19.961914, -84.713455, -613.501648
1733469112.288699, 6.294655, 4.357746, 0.284012, 0.112331, -0.619433, -6.444126, -17.612610, -83.599106, -613.144043
1733469112.298700, 7.971943, 5.053561, 0.157269, -0.125618, -0.253178, -6.117499, -15.237289, -82.277740, -612.803528
1733469112.308694, 9.072229, 5.362712, 0.016759, -0.342149, 0.074442, -5.773423, -13.441528, -80.893448, -613.241821
1733469112.318697, 10.238354, 5.499780, -0.409857, -0.467308, 0.445101, -5.429922, -11.367905, -79.541580, -613.647644
1733469112.328702, 11.441740, 5.674108, -0.514604, -0.501545, 0.716267, -5.034622, -10.087250, -78.091690, -613.059204
1733469112.338693, 12.283901, 5.652560, -0.270395, -0.516061, 0.876708, -4.650546, -8.718842, -76.716064, -613.148438
1733469112.348694, 12.852224, 5.597793, -0.217872, -0.530085, 0.999518, -4.266498, -8.718842, -76.716064, -613.148438
1733469112.358688, 13.860183, 6.070049, 0.065092, -0.541817, 0.985496, -3.847490, -7.851761, -75.742126, -613.559692
1733469112.368688, 15.005809, 6.041618, 0.143951, -0.523607, 0.889646, -3.455181, -6.898285, -74.507477, -613.187012
1733469112.378697, 15.886426, 6.073491, -0.045490, -0.433412, 0.756940, -3.118462, -6.358871, -73.110779, -612.910156
1733469112.388689, 16.587927, 6.562656, 0.056114, -0.292026, 0.555052, -2.860193, -5.940445, -72.463394, -612.633118
1733469112.398694, 17.207726, 7.102250, 0.599897, -0.156252, 0.248674, -2.694783, -5.299423, -71.702042, -612.804321
1733469112.408683, 17.832912, 7.627029, 1.019331, -0.032286, -0.089138, -2.607151, -4.865295, -70.715485, -612.594604
1733469112.418683, 18.635418, 8.226028, 1.048511, 0.093189, -0.384808, -2.571987, -4.501648, -69.728455, -613.162292
1733469112.428696, 20.008942, 8.956559, 1.114202, 0.181870, -0.657886, -2.470024, -3.679718, -68.702713, -613.319214
1733469112.438691, 21.921011, 9.795278, 1.346888, 0.240949, -1.011739, -2.197300, -3.043457, -67.779800, -613.089844
1733469112.448683, 23.757962, 10.755502, 1.178845, 0.333830, -1.367645, -1.703122, -2.355392, -66.999115, -613.275513
1733469112.458606, 25.026590, 11.372907, 0.704344, 0.419728, -1.659040, -1.044410, -1.897079, -66.558182, -613.843689
1733469112.468688, 25.385421, 11.237185, 0.210390, 0.432530, -1.814921, -0.306459, -1.407990, -66.267593, -614.448547
1733469112.478689, 24.942793, 10.852467, -0.801908, 0.387955, -1.669418, 0.477931, -1.075272, -66.213043, -615.070801
1733469112.488701, 24.085369, 10.669460, -1.841291, 0.312585, -1.268349, 1.302729, -1.244156, -66.669968, -615.274414
1733469112.498684, 23.158065, 10.363152, -2.406322, 0.227935, -0.764925, 2.130734, -1.556152, -67.378647, -615.619385
1733469112.508680, 21.930738, 10.001777, -2.519598, 0.165899, -0.304340, 2.904523, -2.176239, -68.453217, -615.372742
1733469112.518686, 20.404883, 9.741109, -2.216881, 0.147448, 0.020410, 3.590845, -3.141296, -69.738358, -616.205200
1733469112.528696, 18.692281, 9.330054, -1.668609, 0.140483, 0.218048, 4.155005, -4.018051, -71.198761, -615.640381
1733469112.538693, 16.781558, 8.808866, -1.054795, 0.115314, 0.318466, 4.569737, -5.285416, -72.810257, -615.886658
1733469112.548679, 15.122227, 8.334515, -0.439635, 0.066345, 0.330018, 4.867333, -6.728333, -74.385818, -615.524353
1733469112.558682, 13.940688, 7.788338, 0.070629, 0.006984, 0.228751, 5.099858, -8.276627, -76.179718, -615.237732
1733469112.568449, 12.957868, 7.321319, 0.402525, -0.028484, 0.044818, 5.305500, -10.108368, -77.748276, -615.446350
1733469112.578672, 12.060043, 7.024438, 0.356586, -0.037827, -0.117068, 5.494704, -11.982193, -79.476929, -616.059937
1733469112.588680, 11.220875, 6.759280, 0.118363, -0.034315, -0.225940, 5.688153, -13.864456, -80.978394, -615.487488
1733469112.598677, 10.430788, 6.512079, -0.098013, -0.016699, -0.288707, 5.902709, -15.701157, -82.486694, -615.539795
1733469112.608671, 9.551219, 6.266673, -0.213682, 0.018950, -0.331029, 6.121443, -17.997101, -83.854340, -615.882935
1733469112.618670, 8.637531, 5.977573, -0.236727, 0.067177, -0.373076, 6.343983, -20.713608, -85.016113, -615.865295
1733469112.628670, 7.703344, 5.583129, -0.036063, 0.095682, -0.428743, 6.552886, -23.597534, -86.249634, -616.050842
1733469112.638669, 6.574478, 5.247641, 0.256628, 0.098612, -0.507187, 6.719557, -26.514542, -87.320602, -615.866089
1733469112.648678, 5.423914, 4.921581, 0.418536, 0.102189, -0.573822, 6.835614, -29.418900, -88.163879, -615.891479
1733469112.658686, 4.479252, 4.608389, 0.615310, 0.108788, -0.670838, 6.945890, -32.543427, -88.687408, -616.232910
1733469112.668678, 3.631106, 4.459500, 0.901118, 0.106927, -0.799567, 7.068375, -35.553299, -89.209503, -616.217896
1733469112.678670, 2.841169, 4.396054, 1.119289, 0.116402, -0.927146, 7.230622, -38.701355, -89.263229, -615.824829
1733469112.688686, 2.154333, 4.464887, 1.339855, 0.083885, -0.983089, 7.461823, -42.453995, -89.171646, -616.117188
1733469112.698672, 1.526304, 4.687697, 1.399261, -0.055408, -0.916017, 7.749053, -45.851074, -88.450317, -615.722656
1733469112.708665, 0.909647, 5.178209, 1.214908, -0.281498, -0.735248, 8.126212, -49.072037, -87.943436, -616.061157
1733469112.718680, -0.138564, 5.986103, 0.877924, -0.537034, -0.442124, 8.586555, -52.990173, -86.670624, -616.106384
1733469112.728670, -1.808221, 6.398803, 0.674267, -0.843856, -0.078710, 9.008961, -56.751328, -85.004669, -616.576233
1733469112.738674, -3.671209, 6.168960, 0.711377, -1.219605, 0.258629, 9.330573, -60.591919, -82.841858, -617.129517
1733469112.748665, -5.478083, 5.892280, 0.674866, -1.620084, 0.544995, 9.594524, -64.291687, -80.304947, -617.683228
1733469112.758668, -7.774871, 5.699397, 0.402675, -2.013108, 0.853462, 9.760526, -68.046295, -77.266052, -619.324219
1733469112.768673, -10.106973, 5.328595, -0.113126, -2.413754, 1.146191, 9.752965, -71.255951, -74.008850, -620.700623
1733469112.778714, -12.616844, 5.361515, -0.145148, -2.769814, 0.979403, 9.583364, -74.129257, -70.253540, -621.611023
1733469112.788661, -16.093225, 5.540781, 0.176572, -2.898129, -0.016355, 9.147734, -76.988998, -66.433502, -622.597778
1733469112.798658, -20.424336, 4.200028, -0.924611, -2.584505, -1.579266, 8.335157, -78.774826, -62.704636, -621.343140
1733469112.808664, -25.393801, 1.227178, -4.105158, -1.785627, -2.950362, 7.160101, -79.930664, -59.306808, -621.314880
1733469112.818662, -31.233558, -3.457526, -8.398261, -0.794344, -3.447467, 5.535751, -80.495132, -56.778015, -619.893799
1733469112.828663, -35.859155, -7.852682, -11.206659, -0.006877, -3.156213, 3.659561, -80.943115, -54.931488, -618.209961
1733469112.838661, -36.919039, -9.721057, -11.499201, 0.353914, -2.405926, 1.926554, -80.653229, -54.085266, -616.789062
1733469112.848654, -34.372955, -8.905682, -9.910798, 0.447261, -1.642720, 0.707778, -80.133896, -53.753494, -615.894165
1733469112.858719, -30.222606, -6.487239, -7.721600, 0.481374, -1.131785, 0.066038, -80.107834, -53.888855, -615.082275
1733469112.868653, -26.665571, -4.685004, -5.888090, 0.485423, -0.854156, -0.200348, -80.357224, -54.016144, -614.991638
1733469112.878658, -24.391378, -4.446930, -4.936694, 0.408666, -0.647314, -0.297120, -80.640762, -53.976364, -614.288879
1733469112.888658, -23.376087, -5.856666, -5.083189, 0.238428, -0.292134, -0.431326, -80.824387, -54.277939, -614.291626
1733469112.898675, -23.285257, -8.019827, -6.107908, 0.027316, 0.299664, -0.711907, -81.207397, -54.752258, -614.255066
1733469112.908664, -23.087586, -9.898228, -7.285705, -0.135627, 1.011254, -1.140411, -81.129807, -55.196274, -615.734985
1733469112.918666, -22.163424, -10.688165, -7.884106, -0.174545, 1.605693, -1.604834, -81.057419, -56.244095, -616.184082
1733469112.928658, -20.856639, -10.102035, -7.671471, -0.079446, 1.925743, -2.051009, -80.892548, -57.137878, -617.130371
1733469112.938707, -19.421914, -8.934113, -7.020847, 0.113009, 1.943655, -2.460535, -80.393524, -58.566483, -618.107666
1733469112.948651, -17.954268, -7.628525, -6.165369, 0.374009, 1.713285, -2.787683, -79.948456, -59.940857, -618.699646
1733469112.958650, -16.629077, -6.616077, -5.508011, 0.646241, 1.356750, -3.049763, -79.421814, -61.182312, -619.079956
1733469112.968659, -15.615582, -6.072593, -5.114164, 0.881101, 1.012846, -3.285875, -78.827148, -62.865005, -619.223633
1733469112.978653, -14.821904, -5.759102, -4.855890, 1.049774, 0.793795, -3.515307, -78.074310, -64.321823, -619.655579
1733469112.988710, -14.051570, -5.572355, -4.690989, 1.153712, 0.732697, -3.737193, -77.116013, -65.947525, -619.540039
1733469112.998654, -13.404686, -5.505467, -4.464139, 1.190877, 0.803660, -3.961882, -75.928223, -67.886490, -619.202942
1733469113.008647, -12.951733, -5.386654, -4.078373, 1.168619, 0.951802, -4.224186, -74.821991, -69.666855, -619.916504
1733469113.018657, -12.407052, -5.189432, -3.688567, 1.126372, 1.117967, -4.521019, -73.862305, -71.555054, -619.926025
1733469113.028707, -11.735479, -4.917840, -3.357569, 1.096503, 1.284786, -4.835749, -72.198471, -73.469696, -620.217285
1733469113.038669, -11.111340, -4.258387, -2.829647, 1.078649, 1.403787, -5.155664, -70.330704, -75.484833, -620.177856
1733469113.048656, -10.249727, -3.389890, -2.347515, 1.103916, 1.457959, -5.442579, -68.338043, -77.136810, -620.174988
1733469113.058645, -9.179220, -2.503886, -1.994969, 1.193614, 1.454191, -5.685498, -66.339890, -79.102875, -620.596252
1733469113.068705, -8.170363, -1.740136, -1.525406, 1.311194, 1.394455, -5.906343, -63.976913, -80.880432, -620.572632
1733469113.078640, -7.106439, -1.092654, -1.041178, 1.422077, 1.262364, -6.113849, -61.810410, -82.541229, -620.268188
1733469113.088658, -6.017527, -0.795174, -0.616507, 1.523352, 1.056055, -6.296896, -58.753311, -84.104050, -619.851196
1733469113.098650, -5.071817, -0.461033, -0.180463, 1.591007, 0.801616, -6.460512, -56.202271, -85.417999, -618.206726
1733469113.108703, -4.365378, -0.219818, 0.107889, 1.620555, 0.530944, -6.636068, -53.271408, -86.485535, -618.645264
1733469113.118289, -3.734057, 0.073472, 0.253037, 1.627617, 0.259273, -6.822778, -50.313828, -87.553894, -617.774841
1733469113.128639, -3.239953, 0.586729, 0.294337, 1.614522, 0.039508, -7.033792, -46.986633, -88.269394, -616.855835
1733469113.138662, -2.804807, 0.922516, -0.025738, 1.606527, -0.087443, -7.268204, -43.322723, -88.710556, -616.438293
1733469113.148698, -2.269404, 1.557279, -0.319776, 1.628030, -0.157246, -7.486262, -39.915436, -89.122482, -615.255676
1733469113.158631, -1.525705, 2.321029, -0.619799, 1.662475, -0.170200, -7.675038, -36.223480, -88.919235, -614.413086
1733469113.168630, -0.648679, 3.039888, -0.869245, 1.691241, -0.094561, -7.817502, -32.863647, -88.518082, -613.880554
1733469113.178682, 0.087987, 3.720140, -0.980276, 1.686598, 0.057581, -7.944458, -28.905502, -87.683685, -612.290283
1733469113.188644, 1.009306, 4.702362, -1.017985, 1.668878, 0.268093, -8.030139, -25.244995, -86.722519, -611.628418
1733469113.198635, 2.781314, 5.852776, -0.613065, 1.672552, 0.390172, -7.962401, -21.999069, -85.360886, -610.031494
1733469113.208646, 5.006725, 6.913557, 0.479439, 1.647792, 0.314060, -7.709335, -19.126251, -83.896271, -609.648865
1733469113.218647, 7.276278, 7.616105, 1.856404, 1.507960, 0.073899, -7.345516, -16.114410, -82.151138, -609.293030
1733469113.228646, 9.833136, 7.734020, 3.212719, 1.222658, -0.361984, -6.863482, -13.812805, -80.612457, -609.498474
1733469113.238637, 12.302156, 7.799411, 4.354903, 0.826897, -1.021252, -6.227769, -11.710052, -78.910492, -609.700378
1733469113.248639, 13.319842, 7.335385, 3.928885, 0.417064, -1.504906, -5.614025, -9.715561, -77.347488, -609.559692
1733469113.258633, 12.939912, 6.640618, 1.871817, 0.105053, -1.494116, -5.128889, -8.041306, -75.606827, -610.021179
1733469113.268638, 12.714408, 6.552930, -0.481235, -0.137780, -0.911928, -4.711258, -6.877426, -74.397644, -610.339783
1733469113.278623, 13.420548, 6.894702, -2.111985, -0.398419, 0.132354, -4.300439, -6.182281, -72.944748, -609.930542
1733469113.288644, 14.779407, 7.912836, -2.571373, -0.651019, 1.352713, -3.905732, -5.697830, -72.102783, -610.125671
1733469113.298633, 16.471359, 9.086743, -1.602768, -0.810465, 2.260787, -3.525724, -5.331787, -71.245621, -608.616272
1733469113.308632, 18.617013, 9.557653, 0.458639, -0.837266, 2.520794, -3.182770, -5.502945, -70.176056, -608.756897
1733469113.318692, 20.589835, 10.123134, 2.369960, -0.752238, 2.183535, -2.789119, -5.083603, -69.514023, -608.383545
1733469113.328646, 21.879861, 11.293749, 3.598635, -0.548751, 1.471497, -2.408337, -4.671082, -68.597488, -608.381653
1733469113.338637, 22.666506, 11.233295, 4.162170, -0.228833, 0.499942, -2.079294, -4.060959, -67.820114, -607.987488
1733469113.348644, 23.138612, 11.361983, 4.365527, 0.104456, -0.498424, -1.773694, -3.495789, -67.165421, -608.286987
1733469113.358634, 23.449709, 11.463288, 3.836858, 0.356095, -1.264299, -1.417764, -2.887009, -66.699081, -608.709106
1733469113.368628, 23.889793, 11.675923, 2.567033, 0.518822, -1.549568, -0.915448, -2.391403, -66.360947, -609.176758
1733469113.378514, 24.567651, 12.045079, 1.487697, 0.576049, -1.473400, -0.243413, -2.215958, -66.167831, -609.706421
1733469113.388644, 25.152884, 11.884667, 1.212663, 0.518179, -1.260261, 0.543327, -2.299347, -66.712479, -609.855164
1733469113.398637, 24.932019, 11.304223, 1.240346, 0.391102, -1.037319, 1.379141, -2.429260, -67.437897, -609.279114
1733469113.408423, 23.722049, 10.819996, 1.103577, 0.237208, -0.777014, 2.185879, -2.816025, -68.522415, -610.614075
1733469113.418640, 21.878813, 10.222194, 0.820164, 0.064382, -0.448549, 2.900820, -3.822845, -69.691193, -610.583252
1733469113.428628, 19.706524, 9.677363, 0.709582, -0.115635, -0.107285, 3.478030, -4.784607, -70.976105, -610.688538
1733469113.438239, 17.676391, 9.213187, 0.910994, -0.296661, 0.190564, 3.919832, -5.903000, -72.477722, -610.844727
1733469113.448620, 16.140510, 8.680178, 1.295562, -0.464860, 0.350375, 4.255655, -7.126297, -74.175797, -610.989380
1733469113.458616, 14.867394, 8.180987, 1.705869, -0.609105, 0.353776, 4.517587, -8.804443, -75.701904, -611.245483
1733469113.468624, 13.956101, 7.624784, 1.977611, -0.719875, 0.230463, 4.748077, -10.144531, -77.344711, -611.081238
1733469113.478644, 13.227366, 7.128586, 2.064849, -0.806384, 0.008882, 4.977414, -11.774170, -78.644791, -611.487305
1733469113.488636, 12.523470, 6.828562, 1.915511, -0.859820, -0.246543, 5.222076, -13.980530, -80.392960, -612.149536
1733469113.498639, 11.672481, 6.537218, 1.562067, -0.874912, -0.476684, 5.475068, -15.689407, -81.804260, -611.542969
1733469113.508627, 10.755951, 6.204274, 1.038485, -0.849516, -0.629892, 5.714937, -18.076874, -83.466507, -613.244324
1733469113.518616, 9.852439, 5.942259, 0.671574, -0.694045, -0.883964, 6.222300, -20.275040, -84.532074, -613.675781
1733469113.528627, 7.958626, 5.412392, 0.015712, -0.558845, -0.966143, 6.480922, -23.084518, -85.612274, -614.115234
1733469113.538615, 6.881384, 5.133468, -0.136170, -0.415458, -1.026552, 6.719805, -25.704712, -86.920151, -614.634521
1733469113.548614, 5.804892, 4.835539, -0.197671, -0.298436, -1.053877, 6.944714, -28.731155, -87.787170, -614.520630
1733469113.558620, 4.842273, 4.660164, -0.222212, -0.205976, -1.070741, 7.191371, -31.752335, -88.283432, -614.763062
1733469113.568613, 4.014478, 4.700566, -0.087987, -0.123812, -1.096363, 7.483666, -35.280090, -88.900925, -614.870605
1733469113.578620, 3.079093, 4.953005, 0.045041, -0.074710, -1.091972, 7.802750, -38.596527, -88.935425, -614.853333
1733469113.588614, 2.285565, 5.211279, 0.027683, -0.070532, -1.001220, 8.145298, -42.321152, -88.514313, -614.778809
1733469113.598613, 1.333271, 5.647622, -0.026785, -0.126389, -0.803135, 8.531516, -46.010559, -88.283035, -614.313232
1733469113.608614, 0.093823, 6.212504, -0.031723, -0.268488, -0.472572, 8.920587, -50.421188, -87.249130, -614.890198
1733469113.618612, -1.256806, 6.416610, -0.001496, -0.514549, -0.085502, 9.277546, -54.486938, -85.845367, -615.321533
1733469113.628618, -2.569128, 6.343138, 0.159963, -0.842730, 0.271091, 9.599372, -58.523331, -83.872528, -615.681702
1733469113.638624, -3.963451, 6.300641, 0.376339, -1.233842, 0.640905, 9.911429, -62.540298, -81.696091, -616.441162
1733469113.648625, -5.724536, 6.099528, 0.493206, -1.719363, 1.088396, 10.149211, -66.463699, -78.642883, -617.404236
1733469113.658634, -7.848642, 5.915025, 0.770185, -2.350042, 1.450651, 10.230391, -70.214569, -75.245850, -618.577515
1733469113.668606, -10.230424, 6.148759, 1.280000, -3.014488, 1.331838, 10.081966, -73.534637, -71.712540, -620.560608
1733469113.678612, -12.703185, 5.619491, 1.072602, -3.423445, 0.588121, 9.662358, -76.400726, -67.821030, -621.638123
1733469113.688608, -15.346833, 4.050391, -0.934038, -3.328553, -0.394341, 9.058173, -78.176590, -63.922226, -622.294800
1733469113.698611, -19.280656, 1.655590, -4.450971, -2.770689, -1.002602, 8.191405, -80.505646, -60.210266, -622.119385
1733469113.708346, -24.018631, -1.872565, -7.945009, -2.135019, -0.978123, 6.912549, -81.411118, -56.774063, -622.159180
1733469113.718626, -27.613674, -4.958092, -10.153211, -1.734535, -0.570521, 5.381110, -81.528931, -54.117325, -622.290833
1733469113.728607, -28.902354, -5.239261, -9.918429, -1.508392, -0.397185, 3.966830, -81.621323, -52.181244, -621.875366
1733469113.738615, -28.621484, -3.390339, -8.081478, -1.254819, -0.930445, 2.823129, -81.860718, -50.980301, -621.265808
1733469113.748628, -27.438299, -2.411560, -7.372345, -0.801684, -1.839682, 1.938013, -82.039200, -50.102554, -620.685669
1733469113.758609, -26.305243, -2.484433, -8.179790, -0.177415, -2.625462, 1.302812, -82.005707, -49.214905, -618.765320
1733469113.768605, -26.204836, -3.028815, -9.142259, 0.399083, -2.987583, 0.796921, -81.564621, -48.858078, -617.542908
1733469113.778601, -27.066450, -3.957017, -9.657312, 0.753098, -2.813188, 0.294539, -81.720413, -48.631714, -615.753296
1733469113.788614, -27.909658, -5.401618, -10.083629, 0.891168, -2.080895, -0.227722, -81.720413, -48.631714, -615.753296
1733469113.798613, -27.971308, -6.981043, -10.272621, 0.826749, -0.916760, -0.791819, -81.776703, -48.827911, -614.999390
1733469113.808618, -26.882844, -7.892935, -9.580847, 0.608548, 0.293809, -1.316149, -81.614594, -49.380890, -614.379272
1733469113.818614, -24.749461, -8.037185, -8.357709, 0.378653, 1.235254, -1.728365, -81.866364, -50.207993, -614.933655
1733469113.828610, -22.208764, -7.604882, -7.319972, 0.266295, 1.826429, -2.019466, -81.997879, -51.088165, -615.812927
1733469113.838621, -19.854516, -6.778434, -6.365733, 0.294670, 2.085892, -2.235712, -82.397614, -52.167206, -616.899109
1733469113.848599, -18.134880, -6.153697, -5.279364, 0.388786, 2.008841, -2.434637, -81.935318, -53.335785, -617.684326
1733469113.858597, -17.095647, -5.686079, -4.226963, 0.481592, 1.661288, -2.658705, -81.703766, -54.602371, -618.732422
1733469113.868603, -16.608128, -5.660641, -3.793463, 0.563883, 1.254067, -2.961407, -81.522842, -56.028549, -619.323547
1733469113.878595, -16.200964, -6.012289, -4.025252, 0.653244, 0.917617, -3.329287, -81.062271, -57.346619, -620.031433
1733469113.888601, -15.660323, -5.933730, -4.367622, 0.762832, 0.712784, -3.692766, -80.499252, -59.196701, -620.437805
1733469113.898593, -15.080328, -5.553949, -4.715231, 0.891141, 0.657250, -4.049558, -80.011414, -60.835648, -620.506409
1733469113.908615, -14.267497, -5.072565, -4.725256, 1.032185, 0.667359, -4.365858, -79.101822, -62.779343, -620.474976
1733469113.918601, -13.402442, -4.455909, -4.341885, 1.164257, 0.721189, -4.632963, -77.942276, -64.704102, -620.790649
1733469113.928611, -12.495189, -3.900155, -3.795558, 1.254086, 0.793192, -4.877904, -76.881058, -66.690765, -620.923340
1733469113.938592, -11.505635, -3.377171, -3.173514, 1.303725, 0.847122, -5.103956, -75.505981, -68.757187, -620.542236
1733469113.948592, -10.480618, -3.143886, -2.817377, 1.338162, 0.931237, -5.333323, -74.176773, -70.839142, -620.838379
1733469113.958598, -9.452159, -3.007117, -2.548029, 1.375019, 1.046015, -5.566621, -72.660843, -73.014038, -620.531494
1733469113.968607, -8.514380, -2.546682, -2.116774, 1.420424, 1.126333, -5.769560, -70.651947, -74.986923, -620.672302
1733469113.978589, -7.709479, -2.101810, -1.668759, 1.488656, 1.174729, -5.961675, -68.657547, -77.059952, -620.435059
1733469113.988589, -6.928969, -1.781286, -1.196652, 1.576239, 1.154580, -6.171164, -66.631943, -79.033707, -620.314209
1733469113.998589, -6.018724, -1.437568, -0.632069, 1.663011, 1.010751, -6.388208, -64.331451, -80.896469, -619.756592
1733469114.008587, -5.042488, -1.236904, -0.106991, 1.745848, 0.767094, -6.621630, -61.724869, -82.731583, -619.412109
1733469114.018586, -4.113089, -0.942418, 0.250344, 1.805422, 0.465117, -6.839224, -58.817169, -84.166595, -618.832642
1733469114.028628, -3.286790, -0.467019, 0.533159, 1.840072, 0.149475, -7.013502, -55.812958, -85.297195, -617.734070
1733469114.038599, -2.290353, 0.096516, 0.609624, 1.850920, -0.124421, -7.183063, -52.729218, -86.780457, -617.403503
1733469114.048589, -1.308880, 0.675913, 0.529268, 1.845410, -0.334955, -7.317816, -49.370926, -87.709122, -616.368958
1733469114.058590, -0.329203, 1.190517, 0.547374, 1.819156, -0.530251, -7.410648, -45.896957, -88.253616, -614.929443
1733469114.068584, 0.511611, 1.660678, 0.547823, 1.781526, -0.739633, -7.461032, -42.286087, -88.658752, -614.586121
1733469114.078580, 1.092504, 2.070236, 0.356736, 1.732735, -0.843236, -7.503751, -39.073166, -88.622009, -613.787231
1733469114.088137, 1.613093, 2.410512, 0.119560, 1.631772, -0.748200, -7.568585, -35.440826, -88.409286, -612.542419
1733469114.098622, 2.322525, 2.955043, 0.333093, 1.453329, -0.605335, -7.602190, -31.922348, -87.967041, -611.498413
1733469114.108580, 3.729268, 4.033781, 0.967856, 1.199819, -0.500831, -7.485824, -28.246185, -87.042099, -611.256165
1733469114.118589, 5.126435, 5.031864, 1.405396, 0.901030, -0.449570, -7.232536, -24.975327, -86.121994, -610.867310
1733469114.127673, 6.364686, 5.104288, 1.322048, 0.631949, -0.397138, -6.964025, -22.046783, -84.842590, -610.371155
1733469114.138581, 7.905205, 4.795586, 0.875380, 0.423422, -0.304671, -6.648575, -19.296906, -83.723297, -610.120728
1733469114.148573, 9.161113, 4.903924, 0.398485, 0.252235, -0.120690, -6.267555, -16.486877, -82.256760, -609.651672
1733469114.158572, 10.178051, 5.262455, -0.060603, 0.106378, 0.120765, -5.845214, -14.206650, -80.953552, -610.273071
1733469114.168579, 11.805509, 5.539584, -0.446668, 0.025074, 0.392500, -5.354185, -12.238541, -79.321716, -609.757690
1733469114.178574, 13.682713, 5.771073, -0.225803, -0.013810, 0.480017, -4.778259, -10.847260, -77.900818, -609.595093
1733469114.188577, 14.892234, 5.648071, 0.122703, -0.027589, 0.420063, -4.225518, -9.856491, -76.831055, -609.799255
1733469114.198579, 15.696835, 5.857714, 0.107290, -0.031717, 0.358183, -3.687806, -8.547028, -75.470291, -609.460815
1733469114.208579, 15.997008, 6.138733, -0.154576, -0.035008, 0.442030, -3.267257, -7.831680, -74.356323, -609.730286
1733469114.218602, 16.354043, 6.249016, -0.449062, -0.050390, 0.660670, -2.915867, -6.989014, -73.340317, -609.361511
1733469114.228572, 16.962171, 6.781427, -0.265307, -0.040126, 0.826215, -2.582999, -6.559662, -72.622086, -609.177612
1733469114.238638, 17.360057, 7.347506, 0.321571, -0.024681, 0.929379, -2.337259, -6.379288, -71.927490, -608.740356
1733469114.248572, 17.942297, 7.641843, 1.179893, -0.046011, 0.890675, -2.144404, -5.905609, -71.197678, -608.456421
1733469114.258570, 18.826057, 7.876923, 2.060959, -0.071437, 0.655065, -1.930786, -5.551407, -70.393738, -608.326782
1733469114.268569, 19.561376, 8.190265, 2.442235, -0.079925, 0.384191, -1.716869, -5.337219, -69.818344, -608.127258
1733469114.278580, 20.274249, 8.669404, 2.597410, -0.105813, 0.139332, -1.506325, -4.888474, -69.278549, -607.879028
1733469114.288575, 21.309592, 9.020753, 3.011756, -0.165984, -0.211196, -1.198656, -4.463043, -68.823883, -608.166077
1733469114.298345, 22.109255, 9.337686, 2.797924, -0.176370, -0.543031, -0.774614, -4.060257, -68.710083, -607.950256
1733469114.308574, 22.483200, 9.520693, 1.946636, -0.117652, -0.764575, -0.249938, -3.676865, -68.249023, -608.764160
1733469114.318574, 22.356756, 9.360730, 1.308132, -0.051188, -0.876927, 0.320780, -3.280136, -68.427994, -608.865234
1733469114.328571, 21.766136, 9.074473, 0.940472, -0.037363, -0.856139, 0.900341, -3.354355, -68.727325, -609.281128
1733469114.338577, 21.177761, 8.782530, 0.621744, -0.068439, -0.709129, 1.495983, -3.604477, -69.106796, -609.548279
1733469114.348572, 20.386178, 8.506898, 0.441431, -0.138982, -0.487704, 2.072074, -4.192734, -69.683426, -609.586243
1733469114.358572, 19.423859, 8.167520, 0.535703, -0.255119, -0.282238, 2.604007, -4.405746, -70.685303, -610.303467
1733469114.368562, 18.300380, 7.832331, 0.663942, -0.388689, -0.119890, 3.093317, -5.283600, -71.651260, -609.804993
1733469114.378561, 17.161488, 7.492056, 0.706140, -0.534150, 0.017419, 3.538622, -6.090225, -72.846848, -610.036682
1733469114.388573, 15.913211, 7.136517, 0.672172, -0.667751, 0.106885, 3.928533, -7.113724, -74.207718, -610.080933
1733469114.398616, 14.662690, 6.753295, 0.497695, -0.733591, 0.151437, 4.250698, -8.706573, -75.609360, -609.931885
1733469114.408557, 13.497162, 6.386683, 0.247501, -0.709939, 0.151595, 4.510823, -10.071869, -77.250504, -610.676270
1733469114.418571, 12.616545, 6.044761, 0.399981, -0.635869, 0.033307, 4.724501, -11.695511, -78.724869, -611.311279
1733469114.428570, 11.831247, 5.771672, 0.831237, -0.534016, -0.207439, 4.882957, -13.649734, -80.221771, -611.976501
1733469114.438556, 11.171943, 5.410447, 1.105672, -0.429942, -0.507720, 5.032363, -14.992249, -81.445938, -611.597168
1733469114.448560, 10.636391, 5.066580, 1.215207, -0.332760, -0.806491, 5.206094, -17.050232, -82.656494, -611.505432
1733469114.458600, 10.070611, 4.908712, 1.141286, -0.227260, -1.073111, 5.435685, -19.004913, -83.701538, -612.098755
1733469114.468578, 9.552266, 4.741118, 0.986112, -0.120214, -1.312974, 5.716825, -21.048370, -85.035141, -612.783569
1733469114.478563, 8.851812, 4.582951, 0.848146, -0.009078, -1.514967, 6.038313, -23.214600, -85.977768, -612.519287
1733469114.488568, 7.873631, 4.543596, 0.618901, 0.110203, -1.645777, 6.400005, -25.934402, -86.968735, -612.640076
1733469114.498557, 6.751948, 4.522048, 0.373346, 0.241070, -1.680727, 6.774938, -28.664520, -87.823486, -612.514160
1733469114.508574, 5.754314, 4.596119, 0.379780, 0.341788, -1.656895, 7.180882, -31.527481, -88.275986, -612.962463
1733469114.518572, 4.816086, 4.813243, 0.482731, 0.396040, -1.587038, 7.613304, -35.081375, -88.672440, -612.588135
1733469114.528581, 3.714454, 5.199159, 0.461333, 0.399471, -1.434224, 8.078928, -38.349442, -88.707291, -612.759399
1733469114.538575, 2.146551, 5.731719, 0.401178, 0.353925, -1.159481, 8.535553, -42.370575, -88.565735, -612.507812
1733469114.548550, 0.436942, 5.820753, 0.503381, 0.238574, -0.768423, 8.920452, -46.340408, -87.968414, -611.808716
1733469114.558559, -1.017685, 5.625775, 0.949002, 0.028618, -0.370020, 9.271862, -50.670578, -86.745682, -611.781067
1733469114.568552, -2.209250, 5.763741, 1.491288, -0.301363, -0.016426, 9.618781, -54.863220, -85.265656, -611.964844
1733469114.578562, -3.594595, 6.190059, 1.798644, -0.743636, 0.366354, 9.958369, -59.009155, -83.190735, -612.729797
1733469114.588450, -5.029769, 6.599617, 1.415123, -1.276395, 0.806342, 10.270686, -63.067001, -80.495224, -613.668091
1733469114.598549, -6.937947, 7.026234, 1.209521, -1.792715, 1.045184, 10.525965, -67.097519, -77.492218, -613.213440
1733469114.608566, -10.090513, 7.489212, 1.502661, -2.153899, 0.813665, 10.622672, -70.740158, -74.125854, -615.223328
1733469114.618554, -14.942512, 6.785018, 1.914763, -2.284283, -0.038078, 10.295231, -74.445374, -70.345596, -616.604370
1733469114.628562, -20.707899, 3.306542, 0.997634, -2.167134, -1.132839, 9.340725, -77.226044, -66.594345, -616.474548
1733469114.638557, -26.282798, -1.504905, -2.223016, -1.825097, -1.826160, 7.865138, -78.710175, -63.245316, -615.482300
1733469114.648557, -31.239394, -6.043115, -6.894553, -1.334791, -1.813297, 6.014997, -79.432907, -60.553741, -615.712402
1733469114.658563, -33.691954, -9.684695, -11.132589, -0.614267, -1.252212, 4.140145, -79.489288, -58.756042, -614.323120
1733469114.668558, -32.781259, -10.270527, -12.910134, 0.190594, -0.464212, 2.694574, -79.752457, -57.432831, -614.491699
1733469114.678563, -30.480731, -8.764424, -10.934469, 0.685464, 0.215503, 1.651858, -79.714844, -56.892136, -613.961487
1733469114.688385, -27.455956, -6.907421, -7.354688, 0.762834, 0.525606, 0.970485, -79.987152, -56.367950, -614.010132
1733469114.698586, -24.693796, -4.980538, -4.355801, 0.638225, 0.475003, 0.610528, -80.095169, -56.099960, -614.852234
1733469114.708600, -23.202208, -4.413561, -1.993472, 0.472467, -0.004588, 0.353519, -80.257050, -56.028137, -614.132812
1733469114.718616, -22.952164, -5.510854, -1.217601, 0.319814, -0.628587, 0.014601, -80.571442, -56.035706, -614.329834
1733469114.728880, -23.282564, -7.784896, -2.513014, 0.225103, -0.941765, -0.464731, -80.385925, -56.403824, -613.538513
1733469114.738756, -23.444771, -9.953594, -4.644901, 0.195113, -0.842452, -1.056124, -80.508286, -56.932281, -613.081238
1733469114.748537, -22.949919, -11.363629, -6.274903, 0.218983, -0.435322, -1.686158, -80.133591, -57.778214, -613.498291
1733469114.757778, -21.468507, -11.495011, -6.957999, 0.272887, 0.090004, -2.227555, -80.008804, -59.021957, -612.799072
1733469114.768538, -19.416377, -10.397868, -6.481852, 0.331052, 0.554186, -2.624718, -79.523636, -59.928314, -613.692078
1733469114.778534, -17.345991, -8.806472, -5.470152, 0.383240, 0.852145, -2.859980, -79.035980, -61.424423, -614.105896
1733469114.788541, -15.465346, -7.155969, -4.358046, 0.430519, 0.980744, -2.939860, -78.435150, -62.736252, -613.844238
1733469114.798550, -14.099603, -6.485593, -3.711761, 0.473344, 1.029036, -2.970170, -77.929962, -63.877304, -614.999634
1733469114.808543, -13.324480, -6.358551, -3.307590, 0.512931, 1.042658, -3.022926, -77.412979, -65.370392, -614.456665
1733469114.818548, -13.040019, -6.303035, -2.961029, 0.533557, 1.048408, -3.149233, -76.838623, -66.712646, -615.564575
1733469114.828558, -12.897714, -6.443994, -2.769493, 0.533117, 1.095151, -3.352166, -75.677567, -68.229126, -615.981323
1733469114.838553, -12.680590, -6.337901, -2.565088, 0.502932, 1.103611, -3.603787, -74.617523, -69.862442, -615.820068
1733469114.848541, -12.399720, -6.032939, -2.463185, 0.488528, 1.085536, -3.904153, -73.738770, -71.302963, -616.483459
1733469114.858544, -11.949012, -5.607220, -2.595315, 0.542493, 1.068413, -4.219551, -72.386063, -72.981857, -616.431763
1733469114.868543, -11.291953, -5.164892, -2.776825, 0.665187, 1.067069, -4.539354, -70.889313, -74.659180, -616.923096
1733469114.878564, -10.429891, -4.571878, -2.628534, 0.822785, 1.053135, -4.825944, -69.470215, -76.222595, -616.820618
1733469114.888552, -9.550770, -3.819649, -2.221520, 0.989199, 1.014724, -5.076363, -67.332932, -77.865555, -617.005920
1733469114.898537, -8.510489, -3.152116, -1.837250, 1.156233, 0.966546, -5.299219, -65.463760, -79.722397, -616.382141
1733469114.908553, -7.237672, -2.673425, -1.549497, 1.313420, 0.911882, -5.507297, -63.393509, -81.108688, -615.499939
1733469114.918548, -5.855469, -2.188151, -1.028459, 1.447793, 0.776858, -5.669788, -61.418106, -82.468018, -615.633240
1733469114.928547, -4.707000, -1.570596, -0.309151, 1.523585, 0.577027, -5.783915, -58.986908, -83.781677, -615.341309
1733469114.938550, -3.788525, -1.350030, 0.272041, 1.516394, 0.361739, -5.917648, -56.220108, -84.937561, -613.984253
1733469114.948547, -3.254169, -1.323994, 0.758812, 1.453589, 0.139235, -6.079055, -53.847794, -86.042847, -614.014404
1733469114.958557, -2.932298, -1.166425, 1.113154, 1.351471, -0.029682, -6.274127, -51.016113, -86.795929, -613.314270
1733469114.968555, -2.532916, -0.934038, 1.107318, 1.232737, -0.113242, -6.502184, -47.974213, -87.510544, -612.722595
1733469114.978547, -1.880196, -0.543633, 1.028010, 1.136528, -0.149436, -6.719393, -45.079376, -87.871597, -612.243225
1733469114.988539, -0.843058, 0.114024, 1.197400, 1.059707, -0.221170, -6.886621, -41.532486, -88.242996, -610.996460
1733469114.998474, 0.454150, 1.042675, 1.473182, 0.983465, -0.351847, -6.937987, -38.246613, -88.376236, -611.554199
1733469115.008353, 1.694347, 2.169745, 1.718438, 0.872221, -0.474262, -6.884281, -35.145706, -88.116669, -610.271912
1733469115.018551, 2.395249, 2.797176, 2.085350, 0.697756, -0.626158, -6.820249, -32.198196, -87.615677, -609.996338
1733469115.028540, 2.471115, 2.709189, 2.451214, 0.437426, -0.745834, -6.853096, -29.012329, -86.946320, -610.751465
1733469115.038536, 2.592471, 2.240075, 2.111387, 0.147114, -0.782639, -6.992517, -25.800400, -86.163330, -610.155029
1733469115.048533, 3.270928, 2.708441, 1.626561, -0.058003, -0.770578, -7.081581, -22.986603, -85.087402, -610.680481
1733469115.058529, 5.028272, 3.951181, 1.375020, -0.155530, -0.804412, -6.998884, -19.787399, -84.038116, -610.272522
1733469115.068487, 7.379678, 5.132420, 1.295263, -0.241871, -0.875363, -6.753450, -17.343658, -82.610672, -610.622498
1733469115.078526, 10.053702, 6.130802, 1.396717, -0.354646, -1.016624, -6.351608, -15.032852, -81.039032, -611.694580
1733469115.087629, 11.929110, 6.636278, 1.351676, -0.497239, -1.174641, -5.843632, -15.032852, -81.039032, -611.694580
1733469115.098534, 12.592154, 6.687305, 0.610821, -0.635898, -1.198251, -5.359574, -11.101685, -78.528564, -612.861572
1733469115.108532, 12.867188, 6.322937, -0.611419, -0.729304, -0.947135, -4.960645, -9.653397, -77.236130, -612.775696
1733469115.118539, 13.626599, 6.211756, -1.763629, -0.800930, -0.403572, -4.568597, -8.884308, -75.688812, -613.072144
1733469115.128229, 14.920665, 6.870611, -2.287211, -0.901649, 0.320388, -4.143500, -8.039841, -74.493988, -613.542480
1733469115.138547, 16.541539, 7.432949, -2.068441, -1.025059, 0.943402, -3.791174, -7.262131, -73.405457, -612.598450
1733469115.148530, 18.782063, 7.803900, -1.512537, -1.060026, 1.263445, -3.365814, -7.020615, -72.408340, -613.302734
1733469115.158527, 21.331289, 9.070732, -1.028010, -0.947722, 1.242970, -2.834652, -6.838989, -71.735687, -612.566711
1733469115.168527, 22.612636, 9.577555, -0.556502, -0.720406, 0.995273, -2.414207, -6.565247, -70.926910, -613.231689
1733469115.178525, 23.258173, 9.649680, 0.143054, -0.497778, 0.567202, -2.141639, -5.941193, -70.148788, -612.835815
1733469115.188528, 23.881264, 9.683049, 0.841263, -0.304087, -0.021448, -1.937966, -5.567123, -69.490707, -613.550293
1733469115.198527, 23.986758, 10.110265, 0.989254, -0.094821, -0.600470, -1.756866, -5.567123, -69.490707, -613.550293
1733469115.208514, 24.452580, 10.620978, 0.782455, 0.117143, -1.098505, -1.473866, -4.126724, -68.254227, -613.766785
1733469115.218529, 25.429115, 10.967838, 0.955286, 0.277008, -1.665626, -0.955675, -3.192017, -68.198822, -614.577393
1733469115.227997, 25.710284, 10.896760, 0.836624, 0.410230, -2.182026, -0.260034, -3.192017, -68.198822, -614.577393
1733469115.238523, 24.884135, 10.340707, -0.315286, 0.510418, -2.387248, 0.516078, -3.027206, -68.344254, -615.804565
