SamplingTime, AccelerationX, AccelerationY, AccelerationZ, GyroX, GyroY, GyroZ, MagneticFieldX, MagneticFieldY, MagneticFieldZ
1733469198.679269, 8.658331, -5.445612, 0.280571, -0.110274, 0.220626, 0.020913, -12.147415, -82.692871, -624.571960
1733469198.689264, 8.431780, -5.594052, 0.214730, 0.135240, 0.037846, 0.015583, -11.935974, -82.616913, -624.817932
1733469198.699271, 7.993940, -5.904849, 0.385317, 0.288579, -0.077709, -0.016143, -11.972198, -82.558319, -624.807129
1733469198.709312, 7.642741, -6.095189, 0.678756, 0.346488, -0.116550, -0.039730, -12.133804, -82.892227, -624.229492
1733469198.719286, 7.424868, -6.316353, 0.788889, 0.372844, -0.067200, -0.090327, -12.159927, -82.682816, -624.632019
1733469198.728372, 7.128436, -6.578668, 0.765546, 0.452581, -0.139278, -0.146476, -11.934998, -82.445633, -624.112732
1733469198.739287, 7.011420, -7.003938, 0.977283, 0.399265, -0.076053, -0.194159, -11.742126, -82.505890, -623.318298
1733469198.749303, 6.914604, -6.721123, 1.168520, 0.257947, 0.050491, -0.248829, -11.830139, -82.524719, -624.046387
1733469198.759278, 6.595876, -6.454917, 1.328034, 0.129208, 0.163026, -0.323475, -11.618774, -82.645477, -623.336304
1733469198.769294, 6.644807, -6.609792, 1.147720, 0.022617, 0.262944, -0.390717, -11.386566, -82.653381, -623.817505
1733469198.779275, 6.713940, -6.314108, 1.132607, -0.062512, 0.305939, -0.461315, -11.068268, -82.381119, -623.814636
1733469198.789280, 6.781875, -6.055684, 1.077241, -0.116117, 0.304136, -0.534561, -10.896713, -82.105988, -622.795776
1733469198.799294, 6.909067, -6.000767, 0.811185, -0.116747, 0.292525, -0.618507, -10.565079, -82.138535, -623.778198
1733469198.809268, 6.986729, -5.877167, 0.458340, -0.063447, 0.288926, -0.705700, -10.251999, -81.838806, -622.947327
1733469198.819279, 7.155072, -5.574001, 0.193631, 0.046577, 0.260480, -0.787672, -9.820496, -81.616165, -623.538330
1733469198.829271, 7.376236, -5.325602, 0.045789, 0.217971, 0.194799, -0.858967, -9.598526, -81.384369, -623.368774
1733469198.839272, 7.571962, -5.314828, -0.026635, 0.415675, 0.106165, -0.938940, -9.069031, -81.239243, -622.570557
1733469198.849275, 7.699603, -5.210082, 0.074669, 0.596736, 0.011577, -1.007910, -8.888550, -80.832993, -623.085999
1733469198.859326, 7.857022, -4.961085, 0.330849, 0.730223, -0.082766, -1.057321, -8.125229, -80.902588, -622.095825
1733469198.868316, 7.921964, -4.827309, 0.612317, 0.813868, -0.165341, -1.110039, -8.075851, -80.374496, -622.403137
1733469198.879273, 7.874978, -4.788403, 0.807295, 0.859308, -0.224624, -1.170194, -7.500702, -79.925613, -622.211487
1733469198.889270, 7.870938, -4.632182, 0.968305, 0.871742, -0.256911, -1.220984, -6.955780, -79.852280, -622.189209
1733469198.899229, 7.916727, -4.477905, 1.019930, 0.850243, -0.249916, -1.259956, -6.643539, -79.551590, -621.543335
1733469198.909331, 7.967753, -4.312107, 1.054347, 0.806798, -0.217058, -1.281464, -5.942749, -79.214066, -621.744629
1733469198.919278, 7.940819, -4.082862, 1.010652, 0.771503, -0.156376, -1.299618, -5.350174, -78.559860, -620.690430
1733469198.929280, 7.911639, -3.880103, 0.875979, 0.743978, -0.075882, -1.318071, -4.837250, -78.093170, -620.872070
1733469198.939269, 7.892186, -3.652055, 0.924910, 0.716278, -0.033286, -1.334844, -4.702911, -77.857178, -619.919922
1733469198.949281, 7.811532, -3.454234, 1.018583, 0.694558, -0.002061, -1.381511, -3.786697, -77.264420, -619.967285
1733469198.959262, 7.720702, -3.303250, 1.037587, 0.690258, -0.007933, -1.456901, -3.377502, -77.066071, -619.207642
1733469198.969276, 7.678205, -3.034800, 1.083825, 0.710977, -0.051226, -1.543900, -2.904617, -76.371307, -618.870605
1733469198.979266, 7.578546, -2.786103, 1.144877, 0.730410, -0.106810, -1.659902, -2.218155, -75.734116, -619.105835
1733469198.989276, 7.555502, -2.546982, 1.152658, 0.743621, -0.121698, -1.791541, -1.475189, -75.173721, -618.571533
1733469198.999266, 7.753323, -2.068291, 1.268029, 0.722920, -0.137303, -1.901770, -0.638672, -74.351562, -619.000366
1733469199.009264, 8.100632, -1.531990, 1.526752, 0.673886, -0.174611, -1.988520, -0.242081, -73.637939, -618.020813
1733469199.019305, 8.581567, -1.034295, 1.526453, 0.622312, -0.191247, -2.035104, 0.523773, -72.826248, -617.874268
1733469199.029275, 9.285313, -0.285808, 1.486350, 0.558488, -0.214092, -2.006603, 1.235855, -72.130371, -618.487976
1733469199.039269, 10.241048, 0.554707, 1.505953, 0.478922, -0.239442, -1.883854, 1.673157, -71.316742, -617.401611
1733469199.049270, 11.055825, 1.343147, 1.560421, 0.382391, -0.247737, -1.697327, 2.197617, -70.773346, -618.226746
1733469199.059260, 11.550227, 1.985092, 1.543811, 0.244123, -0.170116, -1.502239, 2.681870, -70.017487, -617.598145
1733469199.069268, 11.687744, 2.544887, 1.600075, 0.071741, -0.046202, -1.317075, 3.016693, -69.419434, -617.568237
1733469199.079255, 11.583896, 3.784485, 1.870919, -0.124034, 0.121624, -1.163972, 3.077057, -68.907990, -618.284668
1733469199.089273, 11.583896, 3.784485, 1.870919, -0.349328, 0.301212, -1.067934, 3.237701, -68.546356, -617.841309
1733469199.099267, 11.872696, 4.895993, 2.207155, -0.564713, 0.431829, -1.021137, 3.286026, -68.277328, -618.051453
1733469199.109257, 12.084733, 5.901109, 2.196979, -0.708223, 0.506130, -1.014299, 3.399231, -67.779922, -617.446838
1733469199.119266, 12.703335, 6.878841, 2.489970, -0.775117, 0.517656, -1.038489, 3.568832, -67.371765, -617.446960
1733469199.129278, 13.505093, 7.656657, 2.744354, -0.778942, 0.364748, -1.046023, 3.843887, -66.715866, -618.230774
1733469199.139264, 14.503625, 8.551490, 2.914043, -0.683411, 0.066003, -1.032088, 3.818893, -66.630890, -617.763489
1733469199.149271, 15.950171, 9.482984, 3.084779, -0.512518, -0.381143, -0.936834, 4.295242, -66.115494, -618.960938
1733469199.159264, 17.423653, 10.392032, 2.927061, -0.312526, -0.882565, -0.699551, 4.567856, -65.787964, -618.802246
1733469199.169270, 18.761263, 11.280580, 2.613271, -0.121077, -1.325423, -0.316982, 4.454285, -65.663315, -619.285706
1733469199.179266, 19.811271, 12.086678, 2.198176, 0.024581, -1.627553, 0.227584, 4.523621, -65.900497, -620.271179
1733469199.189264, 20.504093, 12.740894, 1.526603, 0.130138, -1.766260, 0.911265, 4.353180, -66.533493, -620.357422
1733469199.199276, 20.795886, 13.009044, 0.773028, 0.225877, -1.723642, 1.709051, 3.559402, -67.377029, -621.916260
1733469199.209262, 20.683957, 13.127557, 0.423474, 0.303557, -1.483711, 2.579251, 2.639832, -68.380096, -622.145691
1733469199.219265, 20.299538, 13.226169, 0.692822, 0.284573, -1.099614, 3.487716, 1.928543, -70.153442, -621.860779
1733469199.228777, 20.299538, 13.226169, 0.692822, 0.182103, -0.701288, 4.420411, 0.654953, -72.110138, -622.773621
1733469199.239263, 17.570447, 13.145813, 1.648109, 0.050536, -0.330119, 5.296835, -1.511826, -74.574509, -622.308777
1733469199.249261, 15.893908, 12.733861, 2.852242, -0.104753, -0.190892, 6.093018, -3.660660, -76.801468, -623.058899
1733469199.259267, 13.932757, 12.217312, 3.802591, -0.211506, -0.390667, 6.777589, -6.551620, -79.278885, -623.823608
1733469199.269261, 12.390143, 11.615918, 4.290110, -0.259674, -0.804824, 7.347074, -8.958176, -81.534821, -623.055420
1733469199.279253, 10.894665, 11.231200, 4.475810, -0.263345, -1.341917, 7.919132, -12.631927, -83.480453, -623.936523
1733469199.289253, 8.763377, 10.952724, 4.076128, -0.252183, -1.798809, 8.484702, -16.321793, -85.542999, -624.583008
1733469199.299274, 6.332514, 10.644022, 3.422511, -0.285090, -2.012381, 9.035884, -20.437912, -87.556839, -624.495972
1733469199.309261, 4.241029, 10.159047, 2.559252, -0.355070, -1.951578, 9.558078, -24.966599, -88.850830, -625.746887
1733469199.319253, 2.861969, 9.901520, 1.673697, -0.468459, -1.648636, 10.086166, -29.814636, -89.519287, -626.151123
1733469199.329252, 1.542315, 10.223989, 1.133056, -0.626902, -1.192635, 10.701549, -34.960022, -89.969986, -625.710022
1733469199.339258, -0.710479, 10.858453, 1.086369, -0.840861, -0.613968, 11.383577, -40.477615, -89.523544, -627.302002
1733469199.349252, -4.211999, 11.140669, 1.843685, -1.172394, 0.029819, 12.027824, -46.325165, -88.225250, -628.079285
1733469199.359253, -8.025214, 10.332327, 3.374927, -1.701458, 0.641192, 12.492478, -51.754166, -86.059601, -629.157715
1733469199.369246, -10.927436, 9.922918, 4.402039, -2.561999, 1.146035, 12.683784, -56.596634, -82.980072, -630.191711
1733469199.379246, -13.345879, 10.819846, 3.432387, -3.706378, 1.612372, 12.770467, -61.350128, -78.861084, -633.503906
1733469199.389243, -16.916830, 10.844237, 0.395642, -4.860915, 2.051126, 12.720038, -65.935959, -74.027924, -636.188965
1733469199.399251, -21.527614, 8.312967, -4.138228, -5.587996, 2.165566, 12.281265, -68.862671, -68.848709, -638.907776
1733469199.409246, -26.794109, 3.442263, -10.740688, -5.692406, 1.959573, 11.293616, -71.205368, -64.062637, -640.244934
1733469199.419252, -32.320675, -2.055572, -17.956961, -5.178493, 1.840437, 9.790922, -71.205368, -64.062637, -640.244934
1733469199.429251, -36.965725, -6.380099, -22.721123, -4.085295, 1.821662, 7.660525, -72.583374, -59.835220, -642.481079
1733469199.439250, -38.459109, -7.685088, -22.171205, -2.537685, 1.678985, 5.205725, -73.375168, -56.634888, -643.459717
1733469199.449298, -36.250907, -6.758233, -17.564312, -1.041506, 0.700760, 2.842940, -73.353607, -54.852402, -643.969482
1733469199.459252, -32.170439, -5.147085, -14.365809, 0.206692, -0.980301, 0.935263, -73.109100, -54.354965, -643.107605
1733469199.469246, -28.563574, -4.883872, -13.391967, 1.243266, -2.523652, -0.372456, -73.065994, -54.586624, -641.233826
1733469199.479246, -26.007913, -5.902904, -13.408726, 1.952856, -3.356947, -1.193607, -73.282181, -55.330521, -640.563232
1733469199.489252, -24.277803, -7.172879, -13.641413, 2.271472, -3.303834, -1.715580, -73.784134, -56.407715, -638.719910
1733469199.499253, -22.383092, -8.366388, -13.399000, 2.281496, -2.438071, -2.092468, -74.179565, -57.615768, -637.340698
1733469199.509262, -20.203471, -8.942044, -12.045528, 2.112774, -1.149661, -2.371926, -74.371307, -59.147430, -636.328247
1733469199.519247, -18.410513, -8.541614, -9.815030, 1.875711, 0.069886, -2.546157, -73.862274, -60.769150, -636.240967
1733469199.529298, -17.052851, -7.858518, -7.687333, 1.627090, 0.938127, -2.678389, -73.773697, -62.273895, -635.784546
1733469199.539243, -15.904532, -7.598448, -6.337153, 1.459190, 1.405724, -2.850163, -73.264404, -63.852768, -636.567322
1733469199.548898, -14.920814, -7.695413, -5.427057, 1.410868, 1.620718, -3.079339, -72.560165, -65.383575, -637.237122
1733469199.559245, -14.118757, -7.637054, -4.488081, 1.467923, 1.584390, -3.378512, -71.458740, -67.211975, -637.410156
1733469199.569306, -13.267917, -7.487866, -3.743933, 1.596236, 1.352400, -3.731802, -70.432526, -68.996307, -637.437683
1733469199.579250, -12.235717, -7.278074, -3.118298, 1.761036, 1.061228, -4.117472, -69.519669, -70.766785, -637.185120
1733469199.589241, -10.942399, -7.134871, -2.395698, 1.914693, 0.771426, -4.488222, -67.665237, -72.784210, -636.442993
1733469199.599243, -9.648483, -6.905775, -1.686117, 2.021754, 0.484934, -4.819460, -66.000366, -74.797775, -636.651611
1733469199.609287, -8.464550, -6.618322, -1.072602, 2.065956, 0.267793, -5.116274, -64.476868, -76.696121, -635.954956
1733469199.619237, -7.361871, -6.019173, -0.515352, 2.050231, 0.114968, -5.374054, -62.624527, -78.769699, -635.179626
1733469199.629239, -6.398803, -5.127781, -0.008529, 1.999722, 0.024066, -5.590683, -60.297791, -80.763474, -634.538086
1733469199.639236, -5.493346, -4.356699, 0.492158, 1.922930, -0.016735, -5.770780, -58.213837, -82.502823, -633.539734
1733469199.649282, -4.529979, -3.835960, 1.040430, 1.827108, -0.025594, -5.944569, -55.998520, -83.998215, -632.581177
1733469199.658286, -3.668665, -3.231424, 1.692701, 1.711427, -0.043317, -6.131010, -53.215027, -85.602539, -632.202942
1733469199.669254, -2.756025, -2.456900, 2.255637, 1.566016, -0.110852, -6.286996, -50.480698, -86.972321, -630.677002
1733469199.679240, -1.897106, -1.956512, 2.462287, 1.370465, -0.195574, -6.406186, -47.437759, -88.005188, -630.575745
1733469199.689241, -1.155202, -1.776797, 2.374898, 1.157385, -0.277204, -6.528881, -44.613571, -88.927628, -630.107971
1733469199.699307, -0.550816, -1.408389, 2.180669, 0.975156, -0.357145, -6.657259, -41.482864, -89.414658, -629.647461
1733469199.709235, 0.452654, -0.581192, 2.082207, 0.837658, -0.434247, -6.763485, -38.271317, -89.818176, -629.328369
1733469199.719242, 1.502810, 0.569371, 2.016965, 0.784753, -0.596752, -6.791714, -35.031235, -89.953674, -629.096069
1733469199.729233, 2.381333, 1.168071, 1.984494, 0.786710, -0.783611, -6.719206, -32.055222, -89.950592, -628.553101
1733469199.739292, 2.798522, 1.255160, 1.811064, 0.757753, -0.972696, -6.664263, -29.251343, -89.511627, -627.983521
1733469199.749237, 2.875137, 1.452083, 1.279252, 0.676938, -1.108940, -6.669391, -26.137451, -88.922012, -627.357422
1733469199.759240, 2.726098, 1.641674, 0.458490, 0.575695, -1.059412, -6.759596, -23.010193, -88.035904, -627.893555
1733469199.769237, 2.870199, 2.292149, -0.086191, 0.475116, -0.831680, -6.931386, -20.005966, -87.149216, -627.828064
1733469199.779249, 4.437653, 3.460818, 0.349853, 0.414735, -0.578773, -7.051665, -16.822861, -86.025162, -627.314880
1733469199.789307, 6.439505, 4.722862, 1.290175, 0.369042, -0.526665, -7.031507, -13.820587, -84.406433, -627.466431
1733469199.799253, 8.045864, 5.982960, 1.997512, 0.245887, -0.762929, -6.827069, -10.860397, -82.590271, -627.572754
1733469199.809237, 9.179668, 6.561010, 1.601272, 0.069308, -1.103465, -6.497725, -8.499115, -80.719528, -627.803467
1733469199.819234, 10.029311, 6.501006, 0.336834, -0.090804, -1.324983, -6.137505, -6.340576, -78.906845, -627.958252
1733469199.829285, 10.548553, 6.169708, -1.252766, -0.200112, -1.347102, -5.726363, -4.327194, -77.088699, -628.932495
1733469199.839248, 10.865635, 5.785888, -2.795979, -0.236188, -1.115520, -5.309743, -2.948273, -74.995895, -629.327454
1733469199.849241, 11.685200, 6.009297, -3.431639, -0.254990, -0.556725, -4.906260, -1.500229, -73.140213, -629.242798
1733469199.859242, 13.025654, 6.724415, -2.489371, -0.281231, -0.002356, -4.493655, -0.487686, -71.496323, -629.981079
1733469199.869239, 14.880412, 7.311742, -1.614290, -0.346589, 0.318026, -4.088040, 0.868561, -69.909317, -629.860229
1733469199.879229, 17.420062, 8.303540, -0.828693, -0.413329, 0.493010, -3.585876, 1.458145, -68.598694, -629.527161
1733469199.889233, 19.066823, 9.261071, -0.242263, -0.474373, 0.450969, -2.977329, 2.204514, -67.303726, -629.516602
1733469199.899238, 19.686622, 9.573066, -0.170886, -0.488031, 0.272514, -2.355301, 2.088623, -66.358261, -629.773193
1733469199.909239, 19.499575, 9.257929, -0.298976, -0.426534, 0.035156, -1.840082, 2.315247, -65.527863, -629.739868
1733469199.919239, 18.833538, 9.101707, -0.525527, -0.357213, -0.179030, -1.468782, 2.605606, -65.217453, -630.129639
1733469199.929231, 18.373253, 9.045892, -0.651073, -0.323771, -0.287775, -1.257766, 2.632721, -64.405182, -630.101624
1733469199.939229, 18.372206, 9.072229, -0.627580, -0.321663, -0.378560, -1.113720, 2.918777, -63.916641, -630.289551
1733469199.949276, 18.434754, 9.240721, -0.991948, -0.322967, -0.486299, -0.993430, 2.888779, -63.573608, -629.909485
1733469199.959238, 18.627787, 9.643395, -1.669507, -0.294129, -0.471629, -0.892419, 3.065903, -62.946869, -630.971313
1733469199.969231, 19.395877, 9.818322, -1.786972, -0.242669, -0.400374, -0.781851, 3.175400, -62.870926, -631.193298
1733469199.979245, 20.158729, 10.081983, -1.952172, -0.153617, -0.442201, -0.553432, 3.459030, -62.487549, -631.046997
1733469199.989240, 20.245369, 10.153809, -2.612972, -0.016024, -0.475238, -0.203205, 3.317886, -62.363693, -631.288208
1733469199.999239, 20.260034, 9.903017, -2.868254, 0.119345, -0.350700, 0.239770, 3.409546, -62.488449, -631.293945
1733469200.009238, 20.430321, 9.833585, -1.818097, 0.253693, -0.316516, 0.786044, 3.381760, -62.950989, -631.349243
1733469200.019233, 19.795259, 9.563788, -1.096694, 0.308785, -0.470985, 1.363744, 2.908798, -63.676910, -631.440735
1733469200.029241, 18.661306, 9.465925, -1.184681, 0.253181, -0.522654, 1.917829, 2.599350, -64.785278, -631.844116
1733469200.039301, 17.683424, 9.363723, -1.407940, 0.103970, -0.348399, 2.421415, 2.181488, -65.537506, -631.776123
1733469200.049237, 16.910396, 9.300127, -1.571494, -0.098894, -0.039454, 2.903293, 1.353378, -66.962204, -631.187134
1733469200.059241, 16.038308, 9.130587, -1.692102, -0.281643, 0.310012, 3.363269, 0.780426, -68.336517, -631.615723
1733469200.069233, 15.051298, 8.876054, -1.629554, -0.419784, 0.627274, 3.779196, -0.300613, -69.792801, -631.330933
1733469200.079286, 14.006978, 8.675090, -1.584363, -0.514138, 0.883018, 4.140560, -1.309967, -71.321442, -631.761353
1733469200.089229, 12.966398, 8.316559, -1.563713, -0.573637, 1.116739, 4.471701, -2.286987, -72.941574, -631.130371
1733469200.099241, 12.055105, 8.051850, -1.190517, -0.597124, 1.285857, 4.775893, -3.614899, -74.606430, -630.801025
1733469200.109277, 11.448025, 7.835025, -0.260669, -0.567753, 1.264963, 5.073103, -5.569839, -76.369659, -630.741821
1733469200.119237, 10.728418, 7.637354, 0.707786, -0.506935, 0.971468, 5.354568, -7.530884, -78.063141, -630.768188
1733469200.129246, 10.006117, 7.476044, 1.299004, -0.393450, 0.489369, 5.580430, -9.587326, -79.688934, -630.512146
1733469200.139287, 9.446173, 7.316531, 1.502212, -0.265495, -0.033337, 5.759399, -11.499588, -81.253616, -630.566772
1733469200.149224, 8.893112, 7.344962, 1.281496, -0.125982, -0.516814, 5.985725, -13.970047, -82.857590, -630.223389
1733469200.159226, 7.892336, 7.279570, 0.744896, 0.064047, -0.853650, 6.271118, -16.541611, -84.417358, -630.994507
1733469200.169291, 7.068581, 7.310545, 0.694318, 0.268443, -1.028576, 6.597660, -19.473160, -85.708969, -631.104858
1733469200.179225, 6.510134, 7.515399, 0.853832, 0.437329, -1.167875, 7.018968, -22.796280, -86.843430, -630.690002
1733469200.189220, 5.779453, 7.950844, 0.899472, 0.586542, -1.259608, 7.529324, -26.186783, -88.040619, -630.692505
1733469200.199231, 4.639514, 8.604461, 1.236755, 0.717423, -1.317593, 8.128920, -30.397949, -88.714172, -630.295776
1733469200.209223, 3.264494, 9.167398, 1.701230, 0.807920, -1.340659, 8.750256, -34.711685, -89.021545, -629.938416
1733469200.219236, 1.794305, 9.777770, 2.331504, 0.798887, -1.301289, 9.382142, -39.355133, -89.135147, -629.773315
1733469200.229233, -0.303315, 10.251972, 3.195960, 0.672378, -1.230592, 10.016087, -44.184219, -88.229034, -629.440491
1733469200.239231, -2.986018, 10.123134, 3.995773, 0.403365, -1.052069, 10.583081, -49.082703, -87.156601, -629.323364
1733469200.249225, -5.375581, 9.316736, 4.837784, -0.090747, -0.672428, 11.021139, -53.979538, -85.135406, -629.101807
1733469200.259236, -7.431303, 9.420136, 5.427206, -0.902593, -0.196615, 11.358784, -58.167801, -81.967560, -629.772217
1733469200.269269, -9.943269, 11.048792, 5.124190, -1.932456, 0.358400, 11.730423, -62.367599, -78.281876, -630.826172
1733469200.279221, -13.463793, 12.446856, 3.758448, -3.550442, 0.587914, 12.368720, -66.062057, -73.909882, -632.377991
1733469200.289225, -18.918682, 12.483517, 0.771083, -3.702420, 0.392268, 12.259634, -69.564529, -68.633331, -633.640015
1733469200.299229, -27.409718, 9.335292, -3.580229, -3.539142, 0.456273, 11.152601, -73.292374, -63.522110, -635.499634
1733469200.309332, -37.947198, 0.403722, -8.766519, -3.539142, 0.456273, 11.152601, -76.178513, -58.920868, -636.826599
1733469200.319260, -47.132852, -10.504261, -13.762470, -3.163512, 0.670125, 8.661280, -76.834671, -55.727722, -637.412720
1733469200.329237, -50.330758, -15.947029, -16.991350, -2.324609, 0.568438, 5.226378, -76.685928, -54.241592, -637.229675
1733469200.339284, -45.930514, -14.774618, -15.852009, -0.943591, 0.086660, 1.958319, -75.795837, -53.956009, -636.328308
1733469200.349251, -37.547965, -10.207828, -11.174936, 0.431908, -0.978662, -0.380253, -75.655045, -54.536835, -634.461914
1733469200.359225, -29.978248, -6.696881, -8.043769, 1.879932, -3.095047, -2.160752, -75.614243, -55.591461, -633.586426
1733469200.369220, -24.485650, -5.832425, -7.264008, 1.879932, -3.095047, -2.160752, -75.499283, -56.962875, -631.888794
1733469200.379218, -20.932804, -6.710349, -7.079505, 1.747078, -2.396940, -1.869643, -75.955902, -58.045334, -630.419617
1733469200.389211, -19.187132, -8.236652, -7.066037, 1.213523, -1.082239, -1.647709, -76.342865, -59.192993, -629.938293
1733469200.399220, -18.733880, -9.876680, -7.243657, 0.668058, 0.444208, -1.607356, -76.536179, -60.029419, -630.100586
1733469200.409225, -18.646342, -10.717195, -6.787711, 0.235832, 1.702950, -1.770102, -76.398148, -60.957764, -630.854248
1733469200.419218, -18.346618, -10.928184, -5.464466, -0.064722, 2.417565, -2.083828, -76.101395, -61.845917, -631.752686
1733469200.429213, -17.824831, -10.641777, -4.108600, -0.190770, 2.571024, -2.473453, -75.318741, -63.117126, -633.050293
1733469200.439212, -17.073351, -9.965266, -3.358466, -0.129956, 2.311716, -2.908142, -74.232346, -64.334320, -634.220032
1733469200.449212, -16.280272, -8.980351, -2.996343, 0.074438, 1.801937, -3.348673, -73.463654, -65.786316, -634.341797
1733469200.459218, -15.358504, -7.981520, -3.051410, 0.363770, 1.247699, -3.757360, -72.439163, -67.087341, -634.923828
1733469200.469210, -14.241310, -7.353341, -3.400066, 0.678897, 0.784909, -4.105006, -71.014313, -68.955856, -635.547363
1733469200.479212, -13.067852, -6.948272, -3.639187, 0.954541, 0.502410, -4.386163, -69.861282, -70.850510, -635.590820
1733469200.489221, -12.158654, -6.411822, -3.589208, 1.140456, 0.394057, -4.643100, -68.325012, -72.725708, -635.521606
1733469200.499272, -11.501894, -5.860856, -3.282002, 1.227918, 0.450718, -4.905838, -66.876694, -74.467850, -635.076538
1733469200.509221, -10.769119, -5.481525, -2.776675, 1.229408, 0.608197, -5.174837, -65.118103, -76.407532, -635.048096
1733469200.519207, -10.013599, -4.970512, -2.103306, 1.158411, 0.799517, -5.448943, -63.037354, -78.240021, -634.543518
1733469200.529212, -9.316886, -4.180426, -1.286135, 1.058637, 0.977512, -5.749488, -60.948914, -80.154938, -634.729797
1733469200.539263, -8.543559, -3.379116, -0.685490, 0.963004, 1.135538, -6.054612, -58.441086, -81.972000, -634.129517
1733469200.549208, -7.591714, -2.419790, -0.232836, 0.902652, 1.211699, -6.328162, -55.831940, -83.605225, -633.574829
1733469200.559211, -6.730699, -1.414674, 0.250344, 0.875632, 1.209098, -6.580921, -52.786896, -85.030151, -633.999817
1733469200.569211, -5.906047, -0.581192, 0.589423, 0.863255, 1.155712, -6.834990, -49.485901, -86.475082, -634.171143
1733469200.579258, -4.888062, 0.051475, 0.759261, 0.870291, 1.047781, -7.079533, -46.191940, -87.331970, -633.626587
1733469200.589208, -3.777452, 0.612616, 0.788291, 0.917876, 0.883569, -7.281806, -42.613556, -88.123611, -633.538940
1733469200.599209, -2.650531, 1.449689, 0.758812, 0.985209, 0.708409, -7.397730, -39.359024, -88.769516, -632.867004
1733469200.609212, -1.571045, 2.209848, 0.768389, 1.042658, 0.523466, -7.481151, -35.723633, -89.126099, -632.415649
1733469200.619206, -0.467618, 2.967912, 0.792630, 1.126849, 0.308729, -7.509591, -31.886856, -89.017319, -631.915955
1733469200.629218, 0.945111, 3.910031, 1.019481, 1.217623, 0.039857, -7.438863, -28.181107, -88.814270, -631.433411
1733469200.639208, 2.308609, 4.858434, 1.594688, 1.218459, -0.298190, -7.287910, -25.071594, -88.338364, -630.905334
1733469200.649217, 3.303250, 5.419126, 2.166004, 1.095068, -0.650013, -7.167979, -22.153015, -87.545349, -629.613403
1733469200.659211, 4.192546, 5.390994, 2.085499, 0.915390, -0.886109, -7.095537, -18.899826, -86.411270, -630.073364
1733469200.669207, 5.446510, 5.501576, 1.337611, 0.763244, -0.981539, -6.943217, -16.240173, -85.184494, -629.729675
1733469200.679206, 7.383568, 6.270564, 0.790087, 0.621925, -1.007832, -6.639050, -13.546371, -83.554581, -629.642151
1733469200.689217, 9.766697, 7.190985, 0.627430, 0.456968, -0.999506, -6.152324, -11.427307, -82.158844, -629.769775
1733469200.699214, 12.076054, 7.731476, 0.310648, 0.280755, -0.923491, -5.539227, -9.579117, -80.619095, -629.819397
1733469200.709207, 13.856442, 8.058584, -0.326659, 0.144380, -0.624163, -4.922520, -7.955261, -79.253006, -629.945679
1733469200.719206, 15.498416, 7.824101, -1.293318, -0.002514, -0.073499, -4.304737, -6.292419, -77.886688, -630.173828
1733469200.728577, 17.037438, 7.876325, -1.251120, -0.242749, 0.445189, -3.682514, -5.890045, -76.620377, -630.419006
1733469200.739214, 17.948133, 8.273313, -0.483329, -0.482702, 0.855130, -3.149619, -4.936554, -75.919205, -630.627930
1733469200.749204, 18.934993, 8.192210, -0.338181, -0.609612, 1.096883, -2.641954, -3.842300, -74.939392, -629.624756
1733469200.759218, 20.386926, 8.400356, -0.349553, -0.575415, 1.106590, -2.118393, -3.434219, -73.994568, -629.935181
1733469200.769263, 21.798608, 8.697835, -0.281468, -0.410290, 0.895400, -1.598059, -3.220001, -73.449829, -629.830200
1733469200.779205, 22.694488, 8.854955, 0.165649, -0.196369, 0.495512, -1.168958, -3.318375, -73.153992, -629.846924
1733469200.789223, 22.844275, 8.510040, 0.928352, -0.034329, 0.045447, -0.941812, -3.231308, -72.878403, -630.105957
1733469200.799221, 22.954259, 8.174403, 1.358709, 0.085877, -0.365622, -0.818729, -3.252167, -72.477921, -630.000610
1733469200.809259, 23.627628, 8.397213, 1.540369, 0.185958, -0.771825, -0.697517, -3.311050, -72.045578, -630.415161
1733469200.819204, 24.798393, 8.845827, 1.545158, 0.268798, -1.121222, -0.472462, -2.893555, -71.913727, -630.463013
1733469200.829201, 26.433034, 9.470265, 1.060781, 0.340620, -1.372525, 0.002853, -2.770401, -71.967133, -630.977844
1733469200.839201, 27.943027, 10.307337, 0.263811, 0.436071, -1.494337, 0.809707, -2.956955, -72.454315, -631.018433
1733469200.849207, 28.609064, 11.111789, -0.638504, 0.508222, -1.410888, 1.839847, -3.594727, -73.352661, -630.667969
1733469200.859208, 27.796981, 11.320234, -1.293916, 0.496435, -1.130528, 2.899636, -4.610168, -74.468536, -631.967407
1733469200.869206, 25.687689, 10.964845, -1.668759, 0.369854, -0.608199, 3.826671, -5.915604, -75.756088, -631.478882
1733469200.879200, 22.951865, 10.399664, -1.886032, 0.130359, 0.072084, 4.553169, -7.282928, -77.333099, -631.550354
1733469200.889193, 20.328268, 9.795726, -1.684620, -0.181293, 0.762182, 5.085343, -9.393509, -78.848694, -631.074707
1733469200.899208, 18.379388, 9.030031, -1.229423, -0.523655, 1.313455, 5.483730, -9.393509, -78.848694, -631.074707
1733469200.909212, 16.912341, 8.478167, -0.601842, -0.844589, 1.670024, 5.788359, -11.138199, -80.559662, -631.015686
1733469200.919197, 15.769559, 8.195053, -0.099060, -1.095725, 1.792070, 6.061729, -13.254013, -81.957169, -630.704773
1733469200.929256, 14.839860, 8.186524, 0.214880, -1.214390, 1.691010, 6.361339, -15.594971, -83.254929, -630.745789
1733469200.939197, 13.727754, 8.171710, 0.322020, -1.192828, 1.438308, 6.663287, -17.508728, -84.701416, -631.318176
1733469200.949198, 12.362011, 8.031349, 0.534954, -1.070287, 1.027484, 6.962052, -20.361526, -85.710449, -631.513489
1733469200.959204, 11.005247, 7.876774, 1.151611, -0.949777, 0.534293, 7.262025, -23.080444, -86.571426, -631.365112
1733469200.969248, 9.363274, 7.836222, 1.739238, -0.871944, 0.053099, 7.558734, -26.019653, -87.502945, -632.139954
1733469200.979220, 7.272986, 7.861660, 1.994370, -0.843108, -0.290647, 7.792520, -29.582336, -88.115738, -632.415100
1733469200.989216, 5.168632, 7.648576, 1.904438, -0.857466, -0.507897, 7.965925, -33.184341, -88.438721, -632.891785
1733469200.999205, 3.456329, 7.433398, 1.966687, -0.908965, -0.691828, 8.144108, -36.515945, -88.389114, -633.601257
1733469201.009198, 1.694347, 7.478439, 2.236783, -0.994687, -0.853149, 8.322680, -40.421814, -88.056763, -633.879272
1733469201.019193, 0.071826, 7.775170, 2.322675, -1.130336, -0.937506, 8.505018, -44.208344, -87.310349, -634.080505
1733469201.029192, -1.124976, 8.376115, 2.293346, -1.313354, -0.968334, 8.773507, -47.957458, -86.147476, -634.643250
1733469201.039247, -2.602048, 9.253290, 2.290952, -1.549171, -0.908593, 9.134176, -51.533478, -84.370361, -634.997925
1733469201.049200, -4.489727, 10.153959, 1.972074, -1.896938, -0.680939, 9.478097, -55.742142, -82.322891, -635.115784
1733469201.059197, -6.254553, 10.477625, 1.439065, -2.374300, -0.393843, 9.743908, -59.508591, -79.423035, -635.621460
1733469201.069199, -7.863755, 10.497527, 0.570269, -2.880670, -0.080446, 9.934775, -62.634384, -75.990372, -636.862122
1733469201.079189, -10.005369, 10.182240, -1.445948, -3.238609, 0.379782, 10.049706, -65.689545, -72.244568, -637.599243
1733469201.089262, -13.145963, 9.912444, -4.044106, -3.413055, 0.986131, 10.035483, -67.706268, -67.897614, -638.684937
1733469201.099193, -17.631200, 9.195231, -6.104765, -3.598923, 1.572743, 9.651748, -69.989288, -63.466812, -640.113831
1733469201.109192, -22.732047, 6.915203, -7.765443, -3.796908, 1.907807, 8.710938, -72.001801, -59.097107, -641.380859
1733469201.119202, -27.228956, 3.620183, -9.490166, -3.674382, 1.724720, 7.354704, -72.618790, -54.925568, -642.953430
1733469201.129196, -30.992192, 0.620098, -11.275193, -3.072054, 0.966121, 5.769983, -72.900360, -51.253464, -643.769531
1733469201.139192, -33.214460, -1.296759, -12.775610, -2.227731, -0.123904, 4.188526, -73.123795, -48.238190, -644.205627
1733469201.149204, -34.301727, -2.407819, -13.590536, -1.393605, -1.227267, 2.709466, -72.981171, -46.457047, -644.088257
1733469201.159201, -34.628386, -3.520973, -14.481029, -0.643915, -1.981339, 1.373978, -73.398834, -45.244690, -642.795471
1733469201.169200, -34.055573, -4.834791, -15.482404, -0.007997, -2.261997, 0.238607, -73.686005, -44.930435, -642.346680
1733469201.179201, -32.518795, -5.806538, -16.214581, 0.489801, -2.036083, -0.654972, -74.139130, -45.032974, -641.357361
1733469201.189199, -30.216471, -6.312163, -16.454600, 0.828876, -1.438714, -1.325046, -74.454254, -45.729858, -640.760254
1733469201.199195, -27.515063, -6.770204, -15.907674, 1.012681, -0.615431, -1.816980, -75.109177, -46.604614, -640.030090
1733469201.209198, -24.555830, -7.238869, -15.051448, 1.095931, 0.326055, -2.151916, -75.058731, -47.945816, -640.127747
1733469201.219186, -21.656452, -7.510461, -13.775039, 1.126798, 1.181540, -2.342625, -74.441620, -49.363708, -640.464417
1733469201.229198, -19.381811, -6.938995, -11.644948, 1.087803, 1.758842, -2.451946, -74.409882, -50.832687, -641.082886
1733469201.239193, -17.932570, -5.913828, -9.385869, 1.021781, 2.006224, -2.566640, -73.934708, -51.838837, -641.703125
1733469201.249186, -16.951995, -5.322460, -7.694964, 0.988172, 1.895717, -2.751613, -73.373703, -53.471802, -642.485962
1733469201.259189, -16.456844, -5.212327, -6.642862, 1.049625, 1.507282, -3.055275, -72.779221, -55.129593, -643.448364
1733469201.269250, -16.331598, -5.689222, -6.517466, 1.239539, 1.064340, -3.470031, -72.379837, -56.632202, -643.476746
1733469201.279203, -16.186150, -6.091896, -6.950966, 1.511291, 0.709097, -3.954197, -71.256744, -58.619904, -643.958862
1733469201.289184, -15.893160, -6.009147, -7.187842, 1.790377, 0.486459, -4.453046, -70.437332, -60.797791, -643.732056
1733469201.299186, -15.194950, -5.602432, -6.960094, 2.024721, 0.402048, -4.903574, -69.441040, -63.100433, -643.354980
1733469201.309238, -13.841029, -5.389348, -6.536619, 2.223731, 0.407823, -5.267305, -68.265106, -65.724503, -643.437622
1733469201.319187, -12.683433, -4.977845, -5.707178, 2.379547, 0.428345, -5.576805, -66.713287, -68.126526, -642.909851
1733469201.329199, -12.031312, -4.137629, -4.577115, 2.468261, 0.499100, -5.906877, -64.841217, -70.652176, -642.551880
1733469201.339178, -11.355250, -3.420865, -3.522768, 2.489375, 0.576055, -6.236891, -63.059891, -73.259277, -641.891235
1733469201.349263, -10.659435, -2.684648, -2.357989, 2.460150, 0.617357, -6.586812, -60.880219, -75.784302, -640.416077
1733469201.359187, -9.886556, -2.165705, -1.354520, 2.401869, 0.584089, -6.985965, -58.491699, -78.183060, -640.172119
1733469201.369184, -8.986187, -1.468992, -0.448464, 2.321462, 0.474165, -7.379078, -55.627838, -80.510605, -639.514954
1733469201.379182, -7.869292, -0.401777, 0.280421, 2.240613, 0.310424, -7.732653, -52.623993, -82.593933, -638.940002
1733469201.389183, -6.511929, 0.436792, 0.903362, 2.168491, 0.081554, -8.046570, -49.377472, -84.389130, -638.561035
1733469201.399230, -5.049521, 1.014543, 1.322348, 2.096538, -0.211582, -8.303797, -45.682922, -85.946579, -637.294861
1733469201.409179, -3.726575, 1.748216, 1.443853, 2.041528, -0.539538, -8.467175, -41.852707, -87.024734, -635.951782
1733469201.419191, -2.666093, 2.915988, 1.200094, 2.003290, -0.772940, -8.553869, -38.060562, -87.903305, -635.302734
1733469201.429186, -1.847875, 4.019565, 0.467618, 1.996674, -0.801203, -8.593090, -34.153778, -88.178818, -634.263245
1733469201.439219, -0.849642, 4.739472, 0.094571, 1.990789, -0.782032, -8.563001, -30.248016, -88.321091, -633.432922
1733469201.449026, 0.444573, 5.390395, 0.429610, 1.924841, -0.835681, -8.444568, -26.463608, -88.027832, -631.864075
1733469201.459196, 1.555483, 5.849484, 1.063026, 1.752217, -0.916279, -8.347353, -23.101837, -87.208115, -631.392517
1733469201.469182, 2.516156, 6.173449, 1.400458, 1.480884, -0.922971, -8.247162, -19.396454, -86.354645, -630.967590
1733469201.478823, 3.807379, 6.663063, 1.513285, 1.170516, -0.914548, -8.097569, -16.218063, -85.035919, -630.666382
1733469201.489217, 5.595848, 7.474997, 1.761085, 0.890047, -0.943856, -7.828875, -12.915192, -83.259888, -630.023193
1733469201.499182, 7.832331, 8.343194, 2.015469, 0.578045, -0.998049, -7.423778, -10.152252, -81.277313, -629.985779
1733469201.509197, 9.788245, 8.871116, 1.929427, 0.217310, -0.879103, -6.927521, -7.706924, -79.320160, -630.315857
1733469201.518866, 12.351387, 9.401282, 1.263241, -0.140417, -0.579998, -6.230767, -5.750153, -77.324341, -630.233826
1733469201.529203, 17.500417, 10.452785, 0.454449, -0.508024, -0.285249, -5.348546, -4.286942, -75.544434, -630.961182
1733469201.539187, 17.500417, 10.452785, 0.454449, -0.792591, 0.088220, -4.467219, -3.155014, -74.012024, -630.901917
1733469201.549176, 20.089746, 10.883592, -1.419313, -0.911261, 0.575186, -3.675732, -2.340591, -72.473175, -630.437622
1733469201.559214, 21.480628, 11.698817, -1.218649, -0.932079, 1.054537, -2.992143, -1.774536, -71.252335, -631.024536
1733469201.569267, 21.480628, 11.698817, -1.218649, -0.884110, 1.317336, -2.353562, -1.228714, -70.367386, -630.904297
1733469201.579207, 22.827665, 12.192622, -0.793827, -0.700633, 1.386790, -1.804129, -0.957550, -69.663666, -630.913330
1733469201.589200, 23.475447, 12.727576, -0.376039, -0.434321, 1.287040, -1.374396, -0.816269, -69.060303, -630.597351
1733469201.599179, 25.089288, 13.405285, 2.286163, -0.176343, 0.814505, -0.974306, -0.554108, -68.696381, -630.536316
1733469201.609183, 25.349807, 13.581408, 2.854487, 0.086838, 0.095533, -0.570287, -0.378525, -68.534531, -630.189453
1733469201.619189, 25.353099, 13.502100, 2.657265, 0.309962, -0.612144, -0.131359, -0.200821, -68.435699, -630.464722
1733469201.628548, 25.353099, 13.502100, 2.657265, 0.446689, -1.114566, 0.397287, 0.021515, -68.666458, -630.678589
1733469201.639205, 24.460661, 12.943503, 1.433229, 0.465941, -1.306847, 1.031631, -0.032333, -69.002625, -631.340454
1733469201.649180, 23.505524, 12.435483, 1.088614, 0.329077, -1.235670, 1.807275, -0.422974, -69.674515, -630.564270
1733469201.659181, 21.683985, 11.802367, 0.730680, 0.101815, -0.990297, 2.637814, -1.550827, -70.710220, -631.910339
1733469201.669177, 19.516933, 11.003751, 0.388459, -0.183327, -0.604742, 3.389914, -2.511978, -71.876770, -632.648071
1733469201.679188, 17.593641, 10.326341, 0.317381, -0.482539, -0.179641, 3.998752, -3.674713, -73.224045, -632.213135
1733469201.689181, 16.108937, 9.871742, 0.442778, -0.739302, 0.181800, 4.484672, -5.186371, -74.928207, -633.104736
1733469201.699174, 14.992940, 9.639206, 0.803554, -0.930157, 0.381381, 4.885525, -6.543488, -76.304855, -632.661865
1733469201.709176, 14.083293, 9.333197, 1.234211, -1.038711, 0.373174, 5.225655, -8.453400, -77.789154, -633.173767
1733469201.719179, 13.439552, 9.039907, 1.768567, -1.046876, 0.111988, 5.523595, -10.483566, -79.566544, -633.832642
1733469201.729171, 12.858958, 8.953716, 2.367566, -0.921184, -0.423524, 5.842528, -12.914780, -80.728821, -634.299866
1733469201.739182, 11.935694, 8.813206, 2.515558, -0.705077, -1.134793, 6.211713, -15.469177, -82.131454, -634.614685
1733469201.749184, 10.533739, 8.458266, 2.003797, -0.479182, -1.750395, 6.592223, -18.525864, -83.637070, -634.793884
1733469201.759180, 9.178621, 8.316708, 1.340304, -0.257603, -2.083824, 6.988622, -21.546494, -84.679504, -635.552490
1733469201.769172, 8.065317, 8.505102, 1.124377, -0.093334, -2.133189, 7.474278, -25.196930, -85.530319, -635.534180
1733469201.779171, 6.870760, 8.893112, 1.163582, -0.048114, -2.004689, 8.063325, -28.651535, -86.473648, -635.998291
1733469201.789166, 5.558139, 9.601198, 1.162684, -0.099786, -1.782735, 8.744420, -32.838348, -86.878326, -635.864868
1733469201.799172, 3.946692, 10.411784, 1.044770, -0.218854, -1.511832, 9.482900, -37.299927, -86.907104, -635.764404
1733469201.809185, 1.974019, 11.196035, 0.865055, -0.395701, -1.158691, 10.242857, -41.589584, -86.244980, -636.112061
1733469201.819177, -0.585382, 11.935095, 0.792032, -0.637553, -0.711527, 11.006549, -46.457458, -85.094666, -636.042786
1733469201.829171, -3.681684, 12.357672, 0.906205, -0.982961, -0.096836, 11.745614, -51.313309, -83.016891, -636.961121
1733469201.839166, -6.926725, 12.444911, 1.206378, -1.524603, 0.608832, 12.340909, -56.259766, -79.997772, -637.320740
1733469201.849171, -10.195109, 12.649465, 1.082927, -2.328250, 1.263934, 12.728265, -60.563065, -76.195145, -638.447876
1733469201.859218, -13.851055, 13.109601, -0.616507, -3.235345, 1.746579, 12.894106, -63.923904, -71.543625, -640.604370
1733469201.869167, -18.254441, 12.009316, -4.108749, -3.927576, 2.223808, 12.836253, -66.835434, -66.378555, -642.745789
1733469201.879168, -23.396737, 8.697087, -7.830985, -4.374395, 2.937640, 12.379760, -69.008636, -60.792572, -644.506165
1733469201.889169, -29.669994, 4.661062, -9.509170, -4.720060, 3.433083, 11.313765, -70.676895, -55.721573, -647.147644
1733469201.899166, -35.211374, 0.028282, -12.404658, -4.789763, 2.934753, 9.300404, -71.181641, -51.140976, -648.666992
1733469201.909168, -36.434811, -2.890849, -16.556353, -4.061938, 1.959546, 6.803275, -70.755798, -47.698761, -648.951538
1733469201.919169, -34.558056, -3.536984, -17.186777, -2.694517, 0.851334, 4.558850, -70.062195, -45.306152, -649.204773
1733469201.929164, -31.908573, -2.829797, -14.878766, -1.356938, -0.512836, 2.863976, -69.770142, -44.055984, -648.182800
1733469201.939168, -30.578744, -1.297657, -12.636896, -0.515818, -1.902528, 1.645115, -70.151825, -43.270096, -647.552612
1733469201.949165, -30.240413, -1.313519, -13.431022, -0.116875, -2.954561, 0.718494, -70.756180, -43.029221, -645.318359
1733469201.959161, -29.691842, -3.432387, -16.567576, 0.158319, -3.183888, 0.011758, -71.433243, -43.003174, -645.052185
1733469201.969159, -28.782943, -5.874024, -18.914492, 0.383316, -2.509349, -0.566095, -72.475143, -43.768799, -644.457764
1733469201.979221, -27.128549, -7.220014, -19.436578, 0.559766, -1.323743, -1.116668, -72.850876, -44.379150, -644.185791
1733469201.989178, -24.771607, -6.965780, -18.284518, 0.741691, -0.069000, -1.592672, -72.837265, -45.706955, -644.262939
1733469201.999169, -22.167614, -5.983260, -16.032323, 0.928735, 0.922897, -1.981793, -72.938110, -46.678207, -644.594116
1733469202.009175, -19.666870, -5.090671, -13.812598, 1.116888, 1.504667, -2.297363, -72.395523, -48.209381, -645.379089
1733469202.019160, -17.832313, -4.486734, -12.005275, 1.347210, 1.684256, -2.530060, -72.056091, -49.829926, -645.871582
1733469202.029204, -16.727539, -4.182970, -10.652102, 1.604617, 1.599093, -2.741246, -71.425293, -51.470428, -646.481934
1733469202.039157, -15.853356, -4.207510, -9.815778, 1.869917, 1.383568, -3.000473, -70.785690, -53.484344, -646.963379
1733469202.049160, -14.865299, -4.379743, -9.140763, 2.136242, 1.126732, -3.315178, -70.559464, -55.469559, -646.556763
1733469202.059169, -13.930213, -4.290709, -8.402600, 2.384784, 0.855600, -3.641415, -69.762192, -57.762711, -647.330566
1733469202.069165, -13.121422, -4.062811, -7.636456, 2.597138, 0.634460, -3.985208, -68.933029, -59.942596, -646.645020
1733469202.079211, -12.503120, -3.563171, -6.673987, 2.776390, 0.457757, -4.317152, -67.749390, -62.637558, -646.310364
1733469202.089163, -11.947216, -3.192818, -5.787534, 2.903472, 0.322754, -4.643921, -66.868286, -65.162003, -646.045288
1733469202.099156, -11.290905, -3.029264, -5.060145, 2.981882, 0.254580, -4.986877, -65.714447, -67.629822, -645.293579
1733469202.109161, -10.575787, -2.715623, -4.116680, 3.035457, 0.265007, -5.317562, -63.832550, -70.475906, -644.715637
1733469202.119212, -9.935638, -2.425027, -3.072210, 3.040440, 0.267357, -5.649661, -61.980957, -72.901688, -643.378845
1733469202.129152, -9.136423, -2.118420, -2.204910, 2.996598, 0.234977, -6.011880, -60.291183, -75.468307, -643.057312
1733469202.139156, -8.164677, -1.650802, -1.378462, 2.914142, 0.199584, -6.385888, -58.032394, -78.008911, -641.968262
1733469202.149161, -7.286005, -0.842460, -0.413299, 2.790705, 0.108820, -6.746795, -55.281647, -80.294098, -640.294922
1733469202.159158, -6.487089, 0.024241, 0.364218, 2.638558, -0.083390, -7.083105, -52.507126, -82.032394, -639.797974
1733469202.169154, -5.557840, 0.805948, 0.732775, 2.487329, -0.320936, -7.387008, -49.414886, -83.861710, -638.575806
1733469202.179149, -4.571429, 1.460313, 0.919523, 2.349312, -0.519785, -7.641594, -46.166672, -85.485229, -637.466614
1733469202.189215, -3.429844, 2.174534, 0.930596, 2.232314, -0.685058, -7.846385, -42.720261, -86.651749, -636.392334
1733469202.198610, -2.233790, 2.801066, 0.768539, 2.122364, -0.816665, -7.964200, -39.249146, -87.514114, -635.486206
1733469202.209161, -1.239448, 3.146879, 0.655862, 2.023894, -0.903287, -8.018575, -35.990051, -87.970886, -634.676086
1733469202.219150, -0.515202, 3.476082, 0.817321, 1.937107, -0.971836, -8.066831, -32.280350, -88.134415, -633.755554
1733469202.229203, 0.090531, 4.011335, 0.748038, 1.843852, -1.032861, -8.148183, -28.525970, -87.995193, -632.685913
1733469202.239168, 0.710180, 4.816236, 0.667833, 1.714791, -0.975127, -8.203815, -25.002487, -87.340057, -632.319702
1733469202.249163, 1.327286, 5.680992, 0.704344, 1.500506, -0.823070, -8.238775, -21.371979, -86.557404, -630.967712
1733469202.259153, 2.731036, 6.750452, 0.794725, 1.269663, -0.632630, -8.268448, -17.663483, -85.277496, -630.983887
1733469202.269152, 5.748329, 8.259248, 1.321599, 1.126842, -0.524526, -8.173711, -14.060913, -83.865707, -630.802734
1733469202.278363, 9.176975, 9.379734, 2.119766, 1.024946, -0.657579, -7.747038, -14.060913, -83.865707, -630.802734
1733469202.288516, 11.546038, 9.344270, 2.397045, 0.798960, -0.918342, -7.093544, -11.572632, -82.175644, -630.467285
1733469202.299156, 13.333908, 8.758738, 1.609801, 0.477817, -1.143227, -6.398108, -7.897949, -78.958847, -630.768616
1733469202.309151, 14.582783, 8.245631, 0.108637, 0.224179, -1.176419, -5.707243, -6.355881, -76.979111, -630.897583
1733469202.318353, 15.528044, 8.315511, -0.960524, 0.077616, -0.919707, -5.049767, -6.355881, -76.979111, -630.897583
1733469202.329149, 16.982372, 8.824279, -1.402254, -0.056309, -0.494878, -4.423137, -4.042404, -74.223145, -631.509155
1733469202.339152, 18.789246, 9.249549, -1.836802, -0.182293, 0.059985, -3.794297, -3.435852, -73.077271, -631.520874
1733469202.349149, 20.338145, 9.686790, -1.543961, -0.235380, 0.636898, -3.152529, -2.691711, -72.227402, -630.644226
1733469202.359145, 21.235521, 9.748142, -0.471957, -0.221684, 1.009066, -2.521630, -2.161240, -71.380386, -630.925293
1733469202.369144, 21.218911, 9.442731, 0.594510, -0.191317, 1.100656, -1.994046, -1.757706, -70.924667, -631.008423
1733469202.379154, 20.744860, 9.182960, 1.265934, -0.130502, 0.961138, -1.624446, -1.657578, -70.460373, -630.506104
1733469202.389160, 20.615573, 9.021950, 1.921945, -0.020763, 0.664522, -1.418855, -1.657578, -70.460373, -630.506104
1733469202.399159, 20.997149, 9.291298, 2.699163, 0.113604, 0.203336, -1.317697, -1.331253, -69.925903, -630.530396
1733469202.409159, 21.820006, 9.855282, 3.158850, 0.238281, -0.349949, -1.269076, -1.336258, -69.628723, -630.882446
1733469202.419150, 23.407361, 10.221146, 3.224990, 0.311886, -0.914921, -1.171562, -1.012894, -68.960968, -630.954529
1733469202.429156, 24.866777, 10.951527, 2.671480, 0.370531, -1.463322, -0.845789, -0.364029, -68.666489, -631.446899
1733469202.439160, 25.497200, 11.405378, 1.746420, 0.429607, -1.900491, -0.250034, -0.565994, -68.394196, -631.751831
1733469202.449152, 25.102905, 11.268160, 0.641197, 0.436246, -2.106590, 0.510237, -0.691986, -68.600922, -632.199951
1733469202.459159, 23.908498, 11.097574, -0.381127, 0.365169, -2.028467, 1.354208, -0.914108, -69.060303, -632.361328
1733469202.469147, 22.100277, 10.780940, -1.230021, 0.218582, -1.692409, 2.204940, -1.590836, -69.761505, -633.455811
1733469202.479146, 20.080768, 10.373926, -1.716792, 0.018250, -1.137558, 2.969715, -2.233994, -70.762161, -633.823914
1733469202.489159, 18.079215, 10.054450, -1.684171, -0.213019, -0.532674, 3.619962, -3.569153, -72.259384, -634.230469
1733469202.499149, 16.289101, 9.615264, -1.567753, -0.427169, -0.001329, 4.143192, -4.944885, -73.863327, -634.716614
1733469202.509149, 14.767885, 9.176825, -1.486949, -0.586769, 0.417344, 4.547927, -6.328644, -75.006760, -634.378174
1733469202.519200, 13.593978, 8.670601, -1.161487, -0.682132, 0.704052, 4.862209, -7.869766, -76.468002, -633.958984
1733469202.529161, 12.661436, 8.273164, -0.536002, -0.728606, 0.783728, 5.121481, -9.529587, -77.995651, -634.556396
1733469202.539160, 12.010662, 8.141632, 0.276979, -0.693659, 0.587727, 5.349024, -11.260132, -79.572144, -634.770203
1733469202.549159, 11.648390, 8.076989, 1.084124, -0.563749, 0.101971, 5.590108, -13.418869, -80.918655, -635.060669
1733469202.559143, 10.870124, 7.914632, 1.236306, -0.402350, -0.548339, 5.894142, -15.855347, -81.995087, -634.949158
1733469202.569141, 9.629479, 7.552509, 0.570419, -0.247597, -1.057653, 6.197949, -18.260025, -83.253113, -635.298584
1733469202.579139, 8.298303, 7.200711, -0.058957, -0.090980, -1.325936, 6.513781, -21.224091, -84.518936, -636.124023
1733469202.589146, 7.044340, 6.810456, -0.406266, 0.037454, -1.371571, 6.822990, -24.290558, -85.559097, -636.074097
1733469202.599137, 6.212953, 6.646005, -0.450858, 0.123868, -1.298104, 7.147473, -27.659851, -86.198166, -635.904907
1733469202.609141, 5.568165, 6.850559, -0.563984, 0.176007, -1.190866, 7.558301, -30.993698, -86.804611, -635.976196
1733469202.619152, 4.886865, 7.444620, -0.321272, 0.208853, -1.007955, 8.061833, -34.512009, -87.124054, -635.930298
1733469202.629146, 3.843891, 8.423400, 0.521786, 0.197763, -0.850446, 8.693666, -38.551895, -87.022980, -635.693726
1733469202.639140, 2.149095, 9.321525, 1.453879, 0.099799, -0.762462, 9.379766, -42.723785, -86.654404, -635.506348
1733469202.649152, -0.044293, 10.479870, 2.192191, -0.093262, -0.704559, 10.075689, -46.986969, -85.579208, -635.289185
1733469202.659140, -2.760215, 11.673828, 2.800617, -0.408158, -0.555661, 10.802772, -51.570877, -83.546448, -635.496338
1733469202.669137, -5.896470, 12.059294, 3.469049, -0.917144, -0.289849, 11.461272, -56.270096, -81.084213, -635.958374
1733469202.679131, -9.467721, 12.362610, 3.966145, -1.636218, -0.048025, 11.968073, -60.714783, -77.573364, -636.782227
1733469202.689209, -13.227964, 13.267917, 2.929904, -2.503031, 0.094432, 12.249349, -64.838043, -73.132507, -637.251099
1733469202.699135, -17.190218, 13.567492, -0.825850, -3.239777, 0.246036, 12.301435, -67.821838, -68.217667, -638.403809
1733469202.709137, -22.115690, 11.313351, -5.300762, -3.621667, 0.665629, 12.119747, -70.749237, -63.046890, -639.959839
1733469202.719142, -28.838458, 5.960964, -8.185476, -3.715909, 1.115092, 11.378633, -74.093582, -57.903397, -641.405884
1733469202.729159, -36.377799, -1.965340, -11.564293, -3.523258, 1.008862, 9.590852, -75.311401, -53.577866, -642.742920
1733469202.739155, -39.368008, -8.007108, -15.631443, -2.741513, 0.623560, 6.910187, -75.499710, -50.301559, -642.978882
1733469202.749191, -36.833147, -8.895357, -15.704317, -1.477677, 0.175187, 4.317854, -75.357849, -48.354340, -642.484985
1733469202.759200, -31.840638, -6.214450, -11.817031, -0.263290, -0.630166, 2.423944, -74.870071, -47.258286, -642.109375
1733469202.769284, -27.521348, -3.202993, -8.040028, 0.537019, -1.645709, 1.298774, -74.977905, -46.965225, -640.978638
1733469202.779164, -24.881142, -2.273594, -6.193650, 0.905612, -2.527461, 0.761494, -75.293411, -46.633484, -639.188354
1733469202.789168, -24.167072, -3.157204, -6.256647, 0.929050, -3.021887, 0.579077, -75.861145, -46.439529, -638.027832
1733469202.799310, -24.898201, -5.450101, -7.923910, 0.330507, -2.116597, 0.141888, -76.869247, -46.404495, -636.517090
1733469202.809144, -25.798271, -8.129961, -10.177153, 0.330507, -2.116597, 0.141888, -77.265289, -46.584900, -636.349365
1733469202.819185, -25.780464, -9.909900, -11.545888, 0.041359, -0.877305, -0.370668, -77.876022, -46.861542, -636.226929
1733469202.829180, -24.389583, -10.342053, -11.429470, -0.188771, 0.423142, -0.960697, -77.663727, -47.375183, -636.536316
1733469202.839132, -21.948245, -9.871892, -10.316615, -0.315642, 1.415385, -1.486952, -77.379379, -48.259918, -637.419128
1733469202.849134, -19.689615, -8.584410, -8.836250, -0.260349, 1.892660, -2.166203, -77.193863, -49.258987, -637.624512
1733469202.859132, -18.183513, -7.332392, -7.539640, -0.108797, 1.536660, -2.450417, -76.563263, -50.439896, -639.150146
1733469202.869131, -17.125724, -6.676231, -7.140557, 0.097648, 1.101279, -2.726475, -76.154587, -51.357971, -639.919067
1733469202.879133, -16.340426, -6.525397, -7.308899, 0.324081, 0.723029, -3.013593, -75.870773, -52.713806, -639.970032
1733469202.889132, -15.863232, -6.479159, -7.699004, 0.543757, 0.518041, -3.299288, -75.176285, -54.271667, -640.487305
1733469202.899129, -15.493328, -6.272060, -8.129362, 0.744893, 0.519647, -3.584801, -74.744873, -55.773682, -640.581543
1733469202.909132, -15.152304, -6.003161, -8.246678, 0.911373, 0.681150, -3.871245, -74.061569, -57.433899, -640.841309
1733469202.919139, -14.631715, -5.665429, -7.985111, 1.045020, 0.927023, -4.153718, -73.350937, -59.411758, -641.123901
1733469202.929132, -13.960291, -5.197064, -7.312490, 1.150554, 1.159625, -4.421296, -72.383743, -61.421616, -641.024109
1733469202.939136, -13.182624, -4.579659, -6.353613, 1.236307, 1.326166, -4.680137, -71.107147, -63.657272, -641.371399
1733469202.949136, -12.402862, -3.958812, -5.392041, 1.326709, 1.423886, -4.932645, -69.759125, -65.857269, -640.986389
1733469202.959125, -11.601703, -3.307290, -4.566341, 1.434207, 1.469189, -5.169178, -68.339218, -68.137207, -641.968201
1733469202.969124, -10.784681, -2.721609, -3.842095, 1.566641, 1.446265, -5.422412, -66.517456, -70.081223, -641.731628
1733469202.979126, -10.014347, -2.231695, -3.141791, 1.696330, 1.369106, -5.696959, -64.661179, -72.261246, -641.827637
1733469202.989136, -9.126397, -1.672499, -2.459444, 1.797095, 1.247504, -5.970027, -62.566910, -74.455811, -641.424133
1733469202.999137, -8.055591, -1.097293, -1.935562, 1.883047, 1.108670, -6.226884, -60.200653, -76.826477, -641.317200
1733469203.009133, -6.927922, -0.674566, -1.497573, 1.959951, 0.940605, -6.440637, -57.715836, -78.711426, -641.350525
1733469203.019129, -5.964555, -0.083498, -1.002871, 2.015173, 0.750097, -6.632292, -54.892517, -80.639832, -640.188599
1733469203.029128, -5.037849, 0.422726, -0.624288, 2.059332, 0.551632, -6.821540, -52.344238, -82.374695, -639.597900
1733469203.039126, -4.287417, 0.874632, -0.302268, 2.107760, 0.358062, -7.003346, -48.876694, -84.126328, -639.018005
1733469203.049139, -3.505710, 1.318158, -0.024541, 2.148754, 0.172953, -7.169929, -45.782181, -85.539413, -637.414673
1733469203.059127, -2.728342, 1.785775, 0.243909, 2.160261, 0.010163, -7.332641, -42.787750, -86.693710, -636.901001
1733469203.069126, -2.067243, 2.313846, 0.561590, 2.116052, -0.103479, -7.476423, -39.372513, -87.281296, -636.009277
1733469203.079129, -1.435922, 3.054403, 1.040730, 1.969638, -0.191629, -7.580913, -35.844604, -88.083984, -635.556152
1733469203.089127, -0.804302, 3.887435, 1.597980, 1.674908, -0.253904, -7.658673, -32.481232, -88.097809, -634.172729
1733469203.099126, -0.329053, 4.577714, 1.934515, 1.313223, -0.246865, -7.767038, -28.620239, -87.868591, -633.748901
1733469203.109127, 0.230891, 5.093065, 1.375618, 1.037956, -0.059834, -7.859481, -25.352295, -87.265030, -632.967468
1733469203.119124, 1.425149, 5.859509, 0.815824, 0.850202, 0.072171, -7.812087, -21.571487, -86.483719, -632.403320
1733469203.129125, 3.304298, 6.921487, 0.972944, 0.701370, 0.032180, -7.572262, -18.161819, -85.483017, -632.465332
1733469203.139122, 5.112369, 7.463624, 1.028459, 0.575679, -0.006420, -7.314320, -15.321335, -84.015106, -631.966309
1733469203.149124, 6.920290, 7.417536, 0.543035, 0.490879, 0.010036, -6.984591, -12.421982, -82.476395, -631.264343
1733469203.159124, 8.987983, 7.903110, 0.175226, 0.442017, 0.068650, -6.574731, -9.878586, -80.577301, -631.758118
1733469203.169121, 10.741885, 8.187122, -0.122852, 0.403447, 0.211060, -6.190931, -8.129120, -78.942505, -631.274231
1733469203.179125, 12.819005, 8.261941, -0.461033, 0.401046, 0.409376, -5.754546, -5.805573, -77.211121, -631.118652
1733469203.189121, 14.882507, 9.184307, 0.034417, 0.351630, 0.485297, -5.215485, -4.287186, -75.421539, -631.403687
1733469203.199122, 16.453852, 10.143634, 1.083975, 0.237196, 0.420646, -4.633430, -2.603027, -73.782120, -630.818237
1733469203.209121, 17.559973, 10.043077, 1.417367, 0.171955, 0.294608, -4.070099, -1.789444, -72.216324, -630.536438
1733469203.219121, 17.981502, 9.608081, 1.067814, 0.136893, 0.245840, -3.571379, -0.724945, -70.968597, -630.636047
1733469203.229123, 18.097022, 9.342325, 0.827346, 0.076655, 0.264345, -3.174084, -0.125351, -69.752640, -630.378418
1733469203.239128, 18.667740, 9.279477, 1.053748, -0.003415, 0.313228, -2.833365, 0.517181, -68.437347, -630.401917
1733469203.249127, 19.319561, 9.683199, 1.330129, -0.105038, 0.430496, -2.560449, 0.873611, -67.562912, -629.850281
1733469203.259127, 19.937864, 10.301502, 1.578677, -0.196174, 0.530604, -2.342188, 1.321365, -66.743271, -630.089355
1733469203.269126, 21.086333, 11.005846, 1.965041, -0.227267, 0.489510, -2.116298, 1.818268, -65.769760, -629.838501
1733469203.279128, 22.522704, 11.535114, 2.123358, -0.147064, 0.313376, -1.832659, 2.130981, -64.872833, -629.956055
1733469203.289121, 23.546524, 12.203695, 1.815254, 0.026482, 0.083805, -1.438739, 2.750168, -64.063995, -630.195068
1733469203.299118, 24.771458, 12.836961, 1.744026, 0.240975, -0.376949, -0.829800, 3.099304, -63.609894, -629.771179
1733469203.309121, 25.984420, 13.175292, 2.699313, 0.417060, -1.068410, -0.023942, 3.282791, -63.670868, -629.980835
1733469203.319119, 25.942372, 13.070097, 2.783259, 0.534520, -1.594995, 0.883670, 3.211578, -64.032227, -630.485535
1733469203.329126, 24.894909, 12.600085, 1.753902, 0.537156, -1.690293, 1.799710, 2.995621, -64.517075, -631.075989
1733469203.339124, 22.986281, 11.997045, 0.738462, 0.422174, -1.373027, 2.643136, 2.137909, -65.778763, -631.608398
1733469203.349120, 20.838383, 11.376348, 0.220117, 0.195258, -0.837247, 3.366820, 1.304230, -67.092743, -631.452271
1733469203.359123, 18.772486, 10.880300, 0.396540, -0.075712, -0.353175, 3.960075, 0.149200, -68.768616, -632.065308
1733469203.369113, 16.875680, 10.383054, 0.863409, -0.343779, -0.008146, 4.414565, -1.162338, -70.463959, -632.310303
1733469203.379110, 15.384541, 9.705645, 1.160290, -0.564743, 0.171845, 4.754961, -2.439728, -72.151855, -632.215088
1733469203.389110, 14.079253, 9.119364, 1.290026, -0.707855, 0.223625, 4.996325, -3.927261, -73.788208, -632.297546
1733469203.399110, 12.932729, 8.654889, 1.178546, -0.774358, 0.191867, 5.180068, -5.633011, -75.602036, -632.741882
1733469203.409119, 12.001983, 8.171710, 1.006911, -0.776217, 0.081531, 5.330271, -7.335358, -77.100006, -633.131531
1733469203.419123, 11.279683, 7.672369, 0.885106, -0.707638, -0.119081, 5.489180, -9.255569, -78.809280, -633.083069
1733469203.429107, 10.647015, 7.271340, 0.832135, -0.544139, -0.410876, 5.666752, -11.294662, -80.090363, -633.660828
1733469203.439131, 10.076746, 6.889914, 0.877325, -0.331770, -0.758516, 5.858006, -13.916870, -81.492676, -634.026855
1733469203.449112, 9.525930, 6.490082, 1.072752, -0.130373, -1.131743, 6.085667, -16.440872, -83.195389, -633.615112
1733469203.459109, 8.698733, 6.115839, 1.233762, 0.032397, -1.415207, 6.280436, -19.479874, -84.260834, -634.257812
1733469203.469109, 7.584083, 5.681740, 1.136049, 0.147797, -1.566923, 6.461949, -22.202759, -85.253510, -634.722168
1733469203.479108, 6.764966, 5.412991, 1.130362, 0.213317, -1.658951, 6.717553, -25.228897, -86.360611, -634.339966
1733469203.489182, 5.995380, 5.361216, 1.277755, 0.223783, -1.702931, 7.046153, -28.588135, -86.955109, -634.778931
1733469203.499109, 5.071518, 5.304354, 1.429488, 0.155868, -1.678194, 7.442966, -31.776062, -87.635910, -634.570496
1733469203.509112, 4.156633, 5.391144, 1.509245, 0.014576, -1.591318, 7.920918, -35.711044, -87.677170, -634.539307
1733469203.519113, 3.173215, 5.988347, 1.529147, -0.188064, -1.454851, 8.499944, -39.317444, -87.542709, -634.706421
1733469203.529125, 1.979556, 7.214328, 1.678934, -0.450338, -1.320754, 9.177314, -43.692032, -86.580688, -634.460327
1733469203.539125, 0.109535, 8.194006, 2.136226, -0.797837, -1.208994, 9.785579, -48.787430, -85.456985, -635.102966
1733469203.549115, -2.048838, 8.176348, 2.469170, -1.203891, -1.109483, 10.189785, -53.290024, -83.658951, -634.705750
1733469203.559094, -3.890578, 8.030601, 2.268506, -1.562325, -1.042357, 10.502691, -57.477448, -81.054916, -635.909729
1733469203.569090, -5.477784, 8.515577, 1.325041, -1.809547, -0.955711, 10.823724, -61.207458, -77.852188, -636.073975
1733469203.579156, -7.261015, 9.265261, -0.458190, -1.908352, -0.712028, 11.157302, -65.162659, -73.824448, -636.531860
1733469203.589108, -10.337564, 9.914988, -2.215085, -1.972096, -0.258500, 11.388433, -68.907593, -69.655502, -637.753784
1733469203.599099, -15.197644, 9.593267, -2.651279, -2.239417, 0.021094, 11.093446, -72.479095, -65.020020, -638.057373
1733469203.608774, -20.678869, 6.793398, -2.339584, -2.517872, -0.342543, 10.051844, -75.320374, -60.937515, -638.622131
1733469203.619144, -25.707591, 2.088492, -3.809773, -2.300651, -1.033310, 8.379594, -76.790909, -56.974060, -638.328613
1733469203.629106, -29.553726, -2.782811, -7.434744, -1.442493, -1.767511, 6.413088, -77.505127, -54.207733, -637.683472
1733469203.639106, -31.849017, -5.838261, -10.495432, -0.236422, -2.396675, 4.542015, -77.822052, -52.129166, -636.386230
1733469203.649122, -32.636560, -7.042544, -10.852168, 0.697504, -2.905921, 2.935801, -77.987656, -50.893219, -633.549805
1733469203.659105, -31.979651, -6.264878, -8.527099, 1.120070, -3.277357, 1.717477, -77.878433, -50.445984, -632.635681
1733469203.669104, -30.340670, -4.727202, -6.613384, 1.250464, -3.295249, 0.990801, -77.848480, -50.250000, -630.819702
1733469203.679100, -28.524070, -4.034828, -6.038027, 1.200087, -2.883042, 0.666635, -78.163544, -50.041733, -629.173950
1733469203.689104, -27.495162, -4.597466, -6.001366, 0.987776, -2.108226, 0.460230, -78.702240, -49.980408, -628.697205
1733469203.699106, -27.543494, -6.260987, -6.381745, 0.673807, -1.030259, 0.155935, -79.364441, -50.157440, -628.353882
1733469203.709106, -27.830050, -8.444948, -7.065289, 0.337920, 0.195494, -0.344348, -79.336487, -50.419067, -628.787537
1733469203.719105, -27.638065, -10.412682, -7.446416, 0.039092, 1.333017, -0.986076, -79.303116, -51.347092, -629.619751
1733469203.729112, -26.443957, -11.435605, -7.230938, -0.162438, 2.153538, -1.641413, -78.976578, -52.385574, -630.886658
1733469203.739121, -24.263289, -11.158626, -6.414216, -0.227072, 2.527590, -2.212439, -78.542297, -53.341293, -632.455139
1733469203.749121, -21.921460, -10.026318, -5.240309, -0.178261, 2.441396, -2.681498, -78.095062, -54.761246, -632.674316
1733469203.759121, -19.793913, -8.620622, -4.287566, -0.039433, 2.063029, -3.044518, -77.489395, -56.214462, -634.143677
1733469203.769182, -17.867328, -7.513603, -4.105457, 0.175994, 1.581165, -3.319923, -76.701553, -57.796356, -634.754639
1733469203.779101, -16.230592, -6.865972, -4.442890, 0.447872, 1.144847, -3.520525, -76.178757, -59.521591, -635.263123
1733469203.789109, -15.055039, -6.620267, -5.030517, 0.726348, 0.883173, -3.701605, -75.090942, -61.261063, -635.123230
1733469203.799120, -14.197017, -6.399252, -5.437531, 0.949620, 0.833869, -3.872159, -74.588394, -63.002213, -635.328247
1733469203.809109, -13.636924, -5.885546, -5.398775, 1.090250, 0.956635, -4.035543, -73.513107, -65.089279, -635.510925
1733469203.819100, -13.339893, -5.304952, -5.087080, 1.163482, 1.235862, -4.229390, -72.206009, -67.006943, -635.852295
1733469203.829100, -12.829479, -5.132719, -4.659715, 1.199381, 1.589773, -4.458626, -70.706223, -69.116394, -636.427795
1733469203.839100, -11.874193, -4.993108, -3.937414, 1.212900, 1.847529, -4.686016, -69.131226, -71.053116, -636.930298
1733469203.848850, -10.773459, -4.758775, -3.005471, 1.228274, 1.966968, -4.907452, -69.131226, -71.053116, -636.930298
1733469203.859094, -9.733178, -4.412663, -2.172139, 1.253327, 1.946470, -5.135353, -65.360550, -75.207443, -637.279846
1733469203.869096, -8.959252, -3.883994, -1.453580, 1.296114, 1.794166, -5.379525, -65.360550, -75.207443, -637.279846
1733469203.879109, -8.255357, -3.243694, -0.946159, 1.360537, 1.614481, -5.630573, -63.129822, -77.162384, -637.648926
1733469203.889091, -7.368904, -2.676867, -0.725293, 1.443053, 1.432464, -5.882380, -60.868423, -79.163513, -637.564026
1733469203.898795, -6.494871, -2.152537, -0.444274, 1.528959, 1.251214, -6.112115, -58.492020, -81.016541, -637.625244
1733469203.909100, -5.567117, -1.519720, -0.082899, 1.595801, 1.077004, -6.324310, -55.427811, -82.629929, -636.871460
1733469203.919092, -4.691139, -0.996437, 0.289848, 1.629801, 0.882553, -6.529333, -52.745605, -84.074432, -636.219971
1733469203.929099, -4.134337, -0.457442, 0.663493, 1.644371, 0.684160, -6.730206, -49.745804, -85.557907, -635.542908
1733469203.939096, -3.580379, -0.086640, 0.762853, 1.651460, 0.548260, -6.943614, -46.691650, -86.912125, -635.275696
1733469203.949096, -2.928109, 0.302268, 0.817021, 1.655398, 0.402638, -7.136367, -43.304764, -87.908539, -634.364624
1733469203.959108, -2.335244, 1.146823, 1.245434, 1.630238, 0.152970, -7.276252, -39.858688, -88.671432, -632.762878
1733469203.969145, -1.747468, 1.983895, 1.632247, 1.556145, -0.123944, -7.408567, -36.313095, -88.986084, -633.072144
1733469203.979145, -1.112406, 2.282422, 1.646313, 1.437138, -0.366331, -7.569612, -32.646988, -88.968140, -631.954224
1733469203.989114, -0.719757, 2.551620, 1.384148, 1.293940, -0.506712, -7.754812, -29.246445, -88.973862, -631.746460
1733469203.999017, -0.181211, 3.204789, 0.875081, 1.178747, -0.541689, -7.916746, -25.558151, -88.476120, -630.706177
1733469204.008527, 0.857274, 4.310760, 0.687884, 1.065729, -0.565198, -7.962630, -21.824844, -87.396057, -630.359924
1733469204.019111, 4.266467, 6.732794, 1.172560, 0.904786, -0.635744, -7.864363, -18.169357, -86.318710, -630.000061
1733469204.029122, 6.727707, 7.682245, 1.256657, 0.710025, -0.805332, -7.569103, -15.290817, -84.837387, -629.731934
1733469204.039092, 9.220669, 7.686734, 0.987159, 0.519952, -0.999093, -7.128490, -12.529770, -83.391739, -630.138184
1733469204.049082, 11.209054, 7.578845, 0.408062, 0.351753, -1.201163, -6.585982, -9.980850, -81.491837, -629.818665
1733469204.059084, 12.614001, 7.700800, -0.920421, 0.221688, -1.310294, -6.018287, -8.212418, -79.650116, -629.358521
1733469204.069077, 14.024635, 8.068310, -2.279729, 0.183957, -1.169798, -5.422761, -6.137192, -77.989136, -629.787109
1733469204.079080, 15.332767, 8.472331, -2.741660, 0.226192, -0.866018, -4.782524, -4.827972, -76.673874, -630.857178
1733469204.089080, 16.459388, 8.615086, -2.496404, 0.235877, -0.484758, -4.149327, -3.767075, -74.848328, -630.233398
1733469204.099099, 17.275661, 8.804527, -1.987636, 0.134740, -0.055667, -3.551473, -2.758453, -73.774170, -630.717712
1733469204.109100, 17.712454, 8.784476, -1.281945, -0.031414, 0.326248, -3.013182, -2.013901, -72.499298, -630.389771
1733469204.119090, 17.870172, 8.444499, -0.859369, -0.180180, 0.526794, -2.587670, -1.628693, -71.522614, -630.251587
1733469204.129083, 17.726220, 8.495675, -0.726640, -0.275566, 0.578387, -2.299903, -1.090546, -70.720108, -630.318481
1733469204.139101, 17.395521, 8.665065, -0.673668, -0.265730, 0.422129, -2.130013, -0.400635, -70.007614, -630.508301
1733469204.149096, 17.411532, 8.674492, -0.881665, -0.131424, 0.060265, -2.069121, -0.179474, -69.113220, -630.720276
1733469204.159086, 17.942147, 8.878897, -1.460912, 0.096713, -0.388974, -2.040619, 0.542709, -68.199829, -630.886047
1733469204.169092, 18.765753, 9.133879, -2.327014, 0.347362, -0.726971, -1.924918, 0.932419, -67.327515, -630.840576
1733469204.179098, 19.494039, 9.434202, -2.929755, 0.558515, -0.804237, -1.705025, 1.325104, -66.796509, -631.050171
1733469204.189090, 20.276943, 9.834632, -2.981380, 0.673835, -0.673733, -1.381104, 1.640228, -66.207962, -631.099487
1733469204.199096, 21.130625, 10.120290, -3.062483, 0.752117, -0.483119, -0.928939, 2.056229, -65.916641, -631.152100
1733469204.209097, 22.079028, 10.294319, -2.897583, 0.832984, -0.238222, -0.348762, 2.211472, -65.802704, -631.180725
1733469204.219097, 22.542306, 10.428544, -2.437896, 0.869018, 0.007705, 0.346199, 2.064362, -66.046158, -630.480957
1733469204.228567, 22.531682, 10.425551, -1.826327, 0.840445, 0.260312, 1.097837, 2.060181, -66.495163, -630.331299
1733469204.239113, 21.960665, 10.247482, -0.899172, 0.761608, 0.449853, 1.872535, 1.530075, -67.487350, -629.783325
1733469204.249087, 20.667048, 9.837475, 0.116119, 0.641481, 0.518440, 2.599467, 1.005203, -68.371445, -629.297485
1733469204.259103, 18.732383, 9.255086, 0.581043, 0.460009, 0.520818, 3.200278, 0.276932, -69.760315, -629.115356
1733469204.269086, 16.918925, 8.778789, 0.738013, 0.243393, 0.583755, 3.619924, -0.808411, -71.112396, -629.037476
1733469204.279085, 15.662418, 8.172757, 0.896479, 0.007189, 0.657027, 3.907487, -1.987946, -72.744873, -628.766846
1733469204.289086, 14.726585, 7.604882, 0.928651, -0.206025, 0.660774, 4.109833, -3.139099, -74.301590, -628.546509
1733469204.299083, 14.028675, 7.227945, 0.759560, -0.363980, 0.581765, 4.265028, -4.419083, -75.756851, -628.367676
1733469204.309083, 13.479206, 7.008576, 0.411054, -0.444002, 0.453329, 4.422437, -5.908325, -77.265442, -628.852783
1733469204.319082, 13.094936, 6.791752, 0.247501, -0.435543, 0.311104, 4.587072, -7.274689, -78.643372, -628.821533
1733469204.329078, 12.981062, 6.654085, 0.479888, -0.354631, 0.122415, 4.788582, -9.138504, -80.001740, -628.521851
1733469204.339089, 12.763639, 6.618770, 0.798317, -0.234198, -0.148823, 5.076736, -10.757523, -81.533615, -628.974548
1733469204.349134, 12.177658, 6.369774, 1.053449, -0.135657, -0.400045, 5.410414, -13.055511, -82.992859, -628.276001
1733469204.359080, 11.247959, 6.249764, 1.252766, -0.094826, -0.587975, 5.765752, -15.364090, -84.284988, -628.792542
1733469204.369078, 10.088118, 6.205023, 1.313220, -0.100695, -0.684621, 6.131614, -18.231140, -85.470154, -629.173218
1733469204.379090, 9.103204, 6.169409, 1.342399, -0.147563, -0.656171, 6.458591, -20.825195, -86.779922, -629.315063
1733469204.389106, 8.560468, 6.202778, 1.571045, -0.223955, -0.599124, 6.793315, -24.040009, -87.704239, -629.366943
1733469204.399081, 7.852233, 6.465990, 1.668459, -0.296172, -0.655510, 7.235366, -27.042526, -88.561737, -629.763123
1733469204.409080, 6.655282, 7.134422, 1.398363, -0.314724, -0.792435, 7.774323, -30.576843, -89.107391, -629.939941
1733469204.419081, 5.169381, 7.999926, 0.951246, -0.288184, -0.867838, 8.390905, -34.484360, -89.476715, -629.466431
1733469204.429081, 3.316717, 8.935610, 0.649278, -0.278831, -0.813913, 9.065487, -38.609894, -89.339417, -629.956909
1733469204.439087, 1.027861, 9.919776, 0.537498, -0.332585, -0.617824, 9.766144, -43.258591, -88.699554, -630.085754
1733469204.449078, -1.531242, 10.583568, 0.428861, -0.485581, -0.254839, 10.418334, -47.834076, -87.347672, -629.830566
1733469204.459084, -3.989189, 11.008390, 0.402974, -0.755961, 0.221997, 10.960352, -52.807816, -85.315445, -630.800720
1733469204.469078, -6.549039, 11.054628, 0.329502, -1.130114, 0.659092, 11.342701, -57.772141, -82.877609, -631.519897
1733469204.479082, -9.469516, 10.488698, -0.187346, -1.539765, 1.029556, 11.539562, -62.172638, -79.540756, -632.159668
1733469204.489093, -12.464513, 9.223363, -1.388487, -1.913956, 1.373836, 11.449480, -66.261703, -75.770981, -633.503784
1733469204.499075, -14.832678, 7.781305, -3.405602, -2.215862, 1.803821, 11.027217, -69.675400, -71.709961, -634.960510
1733469204.509137, -16.848296, 6.003610, -5.327697, -2.424628, 2.375564, 10.373921, -72.414169, -67.449417, -636.707275
1733469204.519080, -19.151967, 4.015525, -5.874623, -2.469465, 2.623552, 9.476160, -74.017014, -63.388016, -638.050110
1733469204.529078, -21.808933, 2.010680, -6.147262, -2.225185, 2.268125, 8.372848, -74.983139, -59.380341, -639.401489
1733469204.539092, -24.374320, 0.631920, -5.835717, -1.800869, 1.528419, 7.146321, -75.108826, -56.254700, -640.263489
1733469204.549087, -26.759842, 0.151882, -4.782867, -1.525735, 0.568780, 5.887436, -75.333084, -53.439545, -639.695129
1733469204.559084, -28.590808, -0.425869, -4.534468, -1.555506, -0.430302, 4.653512, -75.258255, -51.043777, -640.021973
1733469204.569087, -29.936649, -1.501314, -5.411644, -1.615739, -1.453459, 3.541446, -75.824020, -49.072540, -639.429260
1733469204.579082, -31.650448, -3.056498, -7.844003, -1.403010, -2.649934, 2.521633, -76.394119, -47.831314, -638.181641
1733469204.589077, -32.194231, -6.374861, -12.220005, -0.853185, -3.404850, 1.507341, -76.898697, -46.985794, -636.619202
1733469204.599082, -31.641470, -9.747693, -14.842404, -0.122252, -3.399498, 0.574752, -77.465179, -46.798691, -635.496765
1733469204.609075, -30.364014, -11.299884, -15.037981, 0.473919, -2.943531, -0.261774, -78.089661, -47.042068, -633.879639
1733469204.619084, -28.462868, -11.057770, -14.206893, 0.761156, -2.174031, -0.953602, -77.880646, -47.683533, -633.217651
1733469204.629085, -26.096948, -9.942820, -13.038822, 0.787002, -1.123968, -1.441777, -78.151718, -48.585327, -632.686340
1733469204.639074, -23.620146, -8.762180, -11.641357, 0.689024, 0.045165, -1.700780, -77.979904, -49.984299, -632.894836
1733469204.649123, -21.492000, -8.214207, -10.035745, 0.587997, 1.111345, -1.787364, -77.606903, -50.923813, -632.838745
1733469204.659070, -20.274399, -8.313716, -8.019079, 0.538882, 1.821378, -1.824078, -77.790405, -51.890930, -634.349731
1733469204.669064, -19.810373, -8.558822, -6.127510, 0.518573, 2.030624, -1.979580, -77.437912, -52.959167, -635.361145
1733469204.678315, -19.354876, -8.683321, -4.840776, 0.529341, 1.799855, -2.301944, -77.237045, -54.432327, -636.394470
1733469204.689091, -18.880375, -8.392126, -4.280384, 0.587114, 1.277762, -2.727287, -76.731354, -55.775238, -636.711426
1733469204.699126, -18.360235, -7.761703, -4.278588, 0.683629, 0.661782, -3.210119, -76.302536, -57.296906, -636.641907
1733469204.709071, -17.796400, -6.852804, -4.492271, 0.819208, 0.106038, -3.688164, -75.945084, -59.304169, -636.578430
1733469204.719080, -16.992996, -6.104915, -4.890905, 0.965197, -0.267799, -4.131106, -74.872421, -61.349884, -636.182495
1733469204.729067, -16.070181, -5.430049, -5.139902, 1.088150, -0.389824, -4.531042, -74.045547, -63.454330, -635.857910
1733469204.739093, -15.060277, -4.590283, -5.078401, 1.178829, -0.281179, -4.866608, -73.064728, -65.811752, -635.386597
1733469204.749079, -14.064588, -3.851522, -4.614375, 1.226534, -0.017972, -5.158350, -71.735092, -68.218613, -634.298035
1733469204.759080, -12.978668, -3.298312, -3.832818, 1.241364, 0.280258, -5.442032, -70.464890, -70.479782, -635.182068
1733469204.769069, -11.902774, -2.625092, -2.905962, 1.248162, 0.507757, -5.724375, -68.446945, -72.954407, -634.889587
1733469204.779074, -10.846033, -1.868375, -2.094328, 1.280565, 0.589651, -6.017668, -66.599731, -75.503937, -634.841553
1733469204.789132, -9.607482, -1.404349, -1.480215, 1.336063, 0.594628, -6.343657, -64.182312, -77.663773, -634.279297
1733469204.799067, -8.425196, -0.820164, -0.733524, 1.380293, 0.551123, -6.678292, -61.913544, -80.044586, -633.854919
1733469204.809068, -7.237672, -0.062997, -0.140061, 1.393811, 0.378931, -6.981532, -59.052917, -82.231506, -633.468018
1733469204.819129, -6.112846, 0.700154, -0.030676, 1.394475, 0.156770, -7.252720, -56.093628, -84.143341, -632.865601
1733469204.829068, -5.086182, 1.482460, -0.094870, 1.389197, 0.003915, -7.467224, -52.552948, -85.782562, -632.467773
1733469204.839080, -4.138677, 2.136376, -0.087089, 1.385390, -0.095974, -7.631852, -49.045410, -87.245682, -631.715149
1733469204.849082, -3.173664, 2.753930, -0.238073, 1.378835, -0.160034, -7.759262, -45.438080, -88.583984, -630.651062
1733469204.859077, -1.843984, 3.528305, -0.269198, 1.380210, -0.167062, -7.820400, -41.937729, -89.357086, -630.494629
1733469204.869117, -0.722450, 4.094983, 0.003442, 1.402586, -0.205765, -7.792196, -38.162552, -89.953827, -630.086060
1733469204.879069, 0.223858, 4.223222, 0.266205, 1.408089, -0.267850, -7.742740, -34.694427, -90.149216, -629.245422
1733469204.889063, 1.322048, 4.479701, 0.504877, 1.370286, -0.345638, -7.712192, -30.869156, -90.042358, -628.763062
1733469204.899067, 2.333748, 4.886865, 0.778714, 1.295926, -0.450362, -7.661031, -27.530243, -89.764114, -627.826721
1733469204.909064, 3.258508, 5.390246, 1.055544, 1.197882, -0.545692, -7.551191, -24.138824, -88.918533, -626.976135
1733469204.919062, 4.179528, 5.934328, 1.404499, 1.025659, -0.601529, -7.366880, -20.634003, -88.071854, -627.342896
1733469204.929058, 5.582530, 6.571934, 1.702277, 0.789826, -0.655352, -7.122893, -17.623352, -86.925140, -626.967285
1733469204.939062, 7.608773, 6.898144, 1.890821, 0.485463, -0.664378, -6.840618, -14.650421, -85.654037, -626.747742
1733469204.949126, 9.176975, 7.079654, 2.039411, 0.127044, -0.798126, -6.428862, -12.554428, -84.200348, -626.584717
1733469204.959060, 9.959580, 6.874651, 1.018434, -0.163704, -1.048156, -5.965324, -10.338440, -82.642181, -627.709167
1733469204.969057, 10.670807, 6.722170, -0.309750, -0.323348, -1.113468, -5.543944, -8.741348, -80.975372, -628.235168
1733469204.979068, 11.292851, 6.732046, -1.136049, -0.412096, -1.042851, -5.154517, -6.644028, -79.484665, -628.652405
1733469204.989084, 12.032809, 6.932561, -1.762432, -0.463859, -0.841634, -4.788942, -5.561615, -77.917526, -629.033142
1733469204.999072, 13.043760, 7.371597, -1.950377, -0.524333, -0.491884, -4.461565, -4.793274, -76.658524, -629.603760
1733469205.009068, 14.349797, 8.112752, -1.422305, -0.604656, -0.183265, -4.148627, -3.340057, -75.072952, -629.611633
1733469205.019072, 15.679477, 8.609848, -0.933290, -0.671803, -0.090856, -3.842335, -2.402573, -73.543671, -629.725159
1733469205.029059, 16.922517, 8.787468, -0.822259, -0.679351, -0.176910, -3.541966, -1.655151, -72.280548, -629.883057
1733469205.039074, 17.659931, 8.930073, -0.730381, -0.632292, -0.413839, -3.255519, -1.048325, -71.064453, -630.101074
1733469205.049063, 17.961002, 8.928427, -0.985364, -0.553029, -0.744546, -2.997402, -0.380890, -69.717499, -630.461975
1733469205.059061, 18.373852, 8.977059, -1.522413, -0.506414, -0.934511, -2.762084, 0.203888, -68.556671, -631.532227
1733469205.069074, 18.952800, 9.353847, -1.724424, -0.541045, -0.944782, -2.515687, 0.461441, -67.587845, -632.252930
1733469205.079072, 19.666421, 9.631724, -2.264017, -0.600735, -0.899886, -2.229662, 0.891724, -66.681534, -632.501831
1733469205.089059, 20.759823, 10.262895, -3.499275, -0.620136, -0.755015, -1.910632, 0.914505, -65.965073, -632.968018
1733469205.099066, 22.520010, 11.044602, -4.524742, -0.543805, -0.430758, -1.498193, 1.299408, -65.585663, -632.911865
1733469205.109058, 24.143578, 11.485734, -4.598663, -0.345360, -0.149290, -0.918101, 1.242645, -65.469162, -632.968628
1733469205.119060, 24.708909, 12.095806, -3.893720, -0.077606, -0.034325, -0.216641, 1.224686, -65.595154, -633.216797
1733469205.129063, 24.700380, 12.012608, -2.802114, 0.179418, -0.149970, 0.492098, 1.201248, -66.077499, -633.646484
1733469205.139068, 24.169765, 11.791892, -2.193987, 0.393189, -0.456423, 1.182144, 0.591278, -66.811554, -633.180908
1733469205.149057, 23.050027, 11.701062, -2.267010, 0.568266, -0.718962, 1.892536, 0.163559, -67.931824, -632.643677
1733469205.159073, 21.590162, 11.337143, -2.378340, 0.645073, -0.734519, 2.589026, -0.684906, -69.241760, -633.285828
1733469205.169065, 20.136283, 10.953922, -2.263418, 0.584177, -0.546016, 3.227089, -1.734283, -70.669144, -633.210999
1733469205.179052, 18.864214, 10.577733, -2.114080, 0.424623, -0.236553, 3.827390, -2.734039, -72.215652, -633.613892
1733469205.189068, 17.701829, 10.228927, -1.834108, 0.204886, 0.104323, 4.393041, -4.532150, -74.119354, -633.039307
1733469205.199065, 16.541390, 9.859622, -1.684919, -0.047763, 0.393481, 4.919849, -5.958649, -75.791168, -632.822205
1733469205.208407, 15.249419, 9.469217, -1.821987, -0.254776, 0.619943, 5.412729, -7.836594, -77.704941, -632.796326
1733469205.219060, 13.770550, 8.983643, -1.848922, -0.393143, 0.770290, 6.194868, -9.862045, -79.358810, -632.682251
1733469205.229057, 12.198906, 8.447043, -1.687164, -0.279880, 0.596590, 6.480459, -12.222961, -81.185867, -632.923828
1733469205.238652, 10.533290, 7.906103, -1.483806, -0.279880, 0.596590, 6.480459, -14.957611, -82.779343, -632.785828
1733469205.249053, 8.825476, 7.155221, -1.245733, -0.081690, 0.309035, 6.694091, -17.818802, -84.328888, -631.822998
1733469205.258976, 7.326556, 6.235848, -1.188123, 0.318193, -0.125361, 6.807091, -20.431824, -85.773941, -632.643372
1733469205.269050, 6.598569, 5.590611, -0.905607, 0.432054, -0.235263, 6.910554, -23.211700, -86.746948, -632.233521
1733469205.279069, 6.247370, 5.581932, -0.443376, 0.486480, -0.286993, 7.149605, -26.211288, -87.808792, -632.017090
1733469205.289066, 5.814468, 5.761946, -0.122104, 0.488980, -0.262233, 7.499465, -29.629745, -88.479401, -631.604370
1733469205.299057, 5.121347, 5.971438, 0.288501, 0.430280, -0.193400, 7.934379, -33.468613, -88.741425, -631.492188
1733469205.309057, 3.847931, 6.399551, 0.843657, 0.282994, -0.046077, 8.396814, -37.384857, -88.770508, -631.220581
1733469205.319059, 2.185158, 6.565500, 1.369334, 0.004052, 0.176104, 8.809627, -41.443939, -88.438919, -631.412659
1733469205.329074, 0.558747, 6.459107, 1.898602, -0.400628, 0.408833, 9.175792, -45.485855, -87.784210, -631.806885
1733469205.339062, -1.075894, 6.591686, 2.311751, -0.903274, 0.672616, 9.534246, -49.416855, -86.419937, -632.328369
1733469205.349045, -2.666093, 6.702568, 2.265064, -1.478466, 1.005974, 9.844375, -53.675217, -84.527420, -632.533997
1733469205.359054, -4.227412, 6.435315, 1.755249, -2.079722, 1.311293, 10.077150, -53.675217, -84.527420, -632.533997
1733469205.369053, -5.908590, 6.223727, 0.934487, -2.605959, 1.539967, 10.241214, -57.462082, -81.884308, -634.001282
1733469205.379048, -8.079234, 5.801600, -0.611270, -2.995239, 1.860145, 10.271131, -60.879456, -78.637100, -635.627686
1733469205.389064, -10.734702, 4.948067, -2.881721, -3.245010, 2.280271, 10.098918, -64.406937, -75.065445, -637.619629
1733469205.399049, -13.653534, 4.317195, -5.001787, -3.408601, 2.538222, 9.741758, -66.788559, -71.064407, -639.573425
1733469205.409047, -16.966211, 3.534141, -5.970840, -3.433464, 2.275301, 9.090673, -68.914673, -67.079422, -641.378540
1733469205.419049, -21.232080, 1.984793, -6.575974, -3.233874, 1.508068, 8.009042, -70.299286, -63.036209, -642.734558
1733469205.429055, -26.038589, -0.687286, -8.180538, -2.818532, 0.675752, 6.495548, -71.476517, -59.213623, -644.095764
1733469205.439049, -29.442545, -3.893421, -10.467599, -2.353083, 0.064051, 4.834745, -72.391815, -55.902832, -644.479919
1733469205.449053, -31.168316, -5.616199, -12.035053, -1.949571, -0.488464, 3.273515, -72.506668, -53.240616, -644.565979
1733469205.459053, -32.035166, -5.494094, -11.683854, -1.530888, -1.335119, 1.824800, -72.607529, -51.607285, -643.465698
1733469205.469047, -31.849616, -5.030218, -11.463138, -0.948854, -2.277573, 0.585373, -72.781265, -50.633728, -643.636230
1733469205.479109, -30.613160, -5.370344, -13.186215, -0.241661, -2.789639, -0.357941, -73.430634, -50.096985, -642.538513
1733469205.489050, -28.970588, -6.405238, -15.525350, 0.438089, -2.637771, -1.018284, -73.743439, -50.209137, -641.318420
1733469205.499047, -27.152940, -7.281216, -16.874184, 0.976262, -1.910922, -1.487946, -74.167603, -50.805679, -640.316040
1733469205.509050, -25.038411, -7.660847, -16.740258, 1.300761, -0.867909, -1.805062, -74.813843, -51.849014, -639.348511
1733469205.519047, -22.471678, -7.795970, -15.229966, 1.416817, 0.190690, -2.002526, -74.788315, -52.956787, -638.878601
1733469205.529049, -19.997719, -7.839963, -12.954576, 1.371467, 1.018350, -2.138375, -74.597549, -54.085495, -639.438232
1733469205.539049, -18.280478, -7.609072, -10.412233, 1.272250, 1.482928, -2.293100, -74.676895, -55.417511, -639.783875
1733469205.549046, -17.102531, -7.370251, -8.388983, 1.200305, 1.615297, -2.524694, -74.182266, -56.956223, -640.218506
1733469205.559045, -16.166248, -7.349750, -6.984186, 1.169130, 1.468183, -2.822522, -73.480621, -58.508682, -640.514954
1733469205.569036, -15.397709, -7.340024, -6.271162, 1.208124, 1.188844, -3.150412, -72.628036, -60.173355, -641.202209
1733469205.579043, -14.752023, -7.035362, -6.095338, 1.331084, 0.905548, -3.469301, -71.672882, -61.680267, -641.611816
1733469205.589042, -13.962535, -6.699425, -6.232257, 1.496060, 0.730342, -3.767308, -71.045578, -63.304657, -641.514954
1733469205.599038, -13.089699, -6.480505, -6.255750, 1.671312, 0.646302, -4.047246, -69.970795, -65.086594, -641.572998
1733469205.609038, -12.383709, -6.185570, -5.762694, 1.821271, 0.577104, -4.326022, -68.986710, -67.333969, -641.352295
1733469205.619039, -11.681609, -5.834669, -5.021090, 1.928234, 0.512704, -4.616942, -67.728851, -69.280426, -641.097656
1733469205.629056, -10.961852, -5.317073, -4.307767, 1.991392, 0.443024, -4.903113, -66.382812, -71.188110, -640.763916
1733469205.639061, -10.232818, -4.511574, -3.577237, 2.008277, 0.364647, -5.189046, -64.964432, -73.452133, -639.968628
1733469205.649042, -9.538051, -3.901352, -2.867655, 1.992940, 0.280526, -5.497169, -63.250046, -75.661407, -639.174866
1733469205.659045, -8.755895, -3.532944, -2.280178, 1.957154, 0.201257, -5.820314, -61.237015, -77.744308, -638.771973
1733469205.669039, -7.822904, -3.120842, -1.880496, 1.930254, 0.132586, -6.131594, -58.935654, -79.637299, -638.360352
1733469205.679041, -6.996007, -2.414702, -1.481113, 1.923399, 0.063894, -6.410710, -56.714661, -81.587341, -637.492554
1733469205.689032, -5.881057, -1.499518, -1.108964, 1.926972, -0.020842, -6.651918, -53.867157, -83.248138, -636.590393
1733469205.699059, -4.403835, -0.631321, -0.660949, 1.940949, -0.209651, -6.827861, -51.127792, -84.915634, -635.812744
1733469205.709034, -2.937536, 0.161758, -0.018405, 1.949182, -0.509917, -6.923872, -48.236359, -86.472839, -634.640747
1733469205.719089, -1.766173, 0.788291, 0.489914, 1.921968, -0.837598, -6.988538, -45.253265, -87.443161, -633.904907
1733469205.729034, -0.976834, 1.110760, 0.697611, 1.843325, -1.096198, -7.064567, -42.285706, -88.566116, -633.113892
1733469205.738305, -0.395043, 1.391480, 0.600795, 1.718475, -1.223296, -7.145615, -38.988419, -89.131332, -631.960693
1733469205.749030, 0.403124, 1.832612, 0.579546, 1.565678, -1.257258, -7.188012, -35.910583, -89.567459, -631.638916
1733469205.759075, 1.738041, 2.462736, 0.987608, 1.384992, -1.372256, -7.130488, -32.491089, -89.537170, -630.666748
1733469205.769037, 3.220650, 3.361459, 1.714099, 1.168657, -1.556605, -6.951389, -29.184738, -89.445572, -630.056274
1733469205.779047, 4.348319, 4.136582, 1.909226, 0.873224, -1.664329, -6.712820, -26.334854, -88.916061, -629.319763
1733469205.789045, 5.086182, 4.465485, 1.688511, 0.523808, -1.662716, -6.491414, -23.763611, -88.227921, -629.396240
1733469205.799126, 5.656301, 4.445883, 1.065569, 0.188740, -1.522527, -6.304765, -21.094193, -87.194061, -629.219482
1733469205.809036, 6.764218, 4.401141, 0.395343, -0.050746, -1.351586, -6.072611, -18.565979, -86.166550, -629.615723
1733469205.819034, 8.832659, 4.895993, 0.175675, -0.271957, -1.166450, -5.708221, -16.247116, -84.962555, -629.960205
1733469205.829043, 10.608408, 5.531653, 0.214580, -0.503327, -1.092339, -5.259332, -14.234848, -83.676834, -630.530334
1733469205.839033, 11.806407, 5.920113, 0.209642, -0.668240, -1.029890, -4.821995, -12.512604, -82.389191, -630.940674
1733469205.849029, 12.463765, 5.798607, -0.683545, -0.786230, -0.760819, -4.473061, -11.252014, -81.009628, -631.079895
1733469205.859029, 12.855067, 5.397877, -1.827225, -0.884778, -0.285361, -4.183433, -9.662918, -79.769058, -631.821533
1733469205.869074, 13.697078, 5.615600, -2.404227, -0.987145, 0.225455, -3.884645, -8.357697, -78.328491, -632.403076
1733469205.879030, 14.685285, 6.064064, -2.273145, -1.074175, 0.581499, -3.558750, -7.009125, -76.862839, -632.888062
1733469205.889031, 15.275306, 6.214450, -1.881094, -1.098409, 0.738869, -3.260763, -6.191086, -75.656357, -632.950378
1733469205.899031, 15.764322, 6.317101, -1.735048, -1.049087, 0.686870, -2.978179, -5.197037, -74.374893, -633.756714
1733469205.909078, 16.025738, 6.273108, -1.721581, -0.927825, 0.482965, -2.759110, -4.260605, -73.373749, -633.017334
1733469205.919044, 16.051476, 5.952734, -1.943792, -0.743969, 0.204417, -2.633733, -3.679916, -72.220993, -633.482361
1733469205.929055, 16.081104, 5.937770, -2.044499, -0.525811, -0.171032, -2.555536, -2.735580, -71.321381, -633.917114
1733469205.938958, 16.144251, 6.127810, -2.064251, -0.311232, -0.499447, -2.537573, -2.349869, -70.267532, -633.986206
1733469205.949092, 16.336386, 6.129306, -2.290054, -0.141872, -0.773758, -2.551109, -1.621140, -69.241119, -633.895935
1733469205.959026, 16.746393, 6.692542, -2.053028, -0.033108, -1.072774, -2.524448, -1.109039, -68.133881, -634.932983
1733469205.969028, 17.265636, 7.404518, -2.047791, 0.060897, -1.353261, -2.410884, -0.729446, -67.398590, -635.206116
1733469205.979030, 17.906085, 7.757662, -2.627936, 0.153920, -1.520595, -2.234581, -0.400009, -66.349808, -635.249634
1733469205.989033, 18.559103, 8.382100, -3.281553, 0.242107, -1.590645, -1.937114, 0.109985, -65.607086, -635.915466
1733469205.999035, 19.722386, 9.052177, -3.391237, 0.276065, -1.673983, -1.474919, 0.218613, -64.941742, -636.286926
1733469206.009038, 20.944925, 9.477148, -3.103933, 0.236948, -1.757463, -0.869960, 0.240891, -64.481384, -636.934265
1733469206.019039, 21.176564, 9.679907, -3.442263, 0.158382, -1.630718, -0.197318, 0.034653, -64.447021, -637.364929
1733469206.029037, 21.012112, 9.684995, -4.592228, 0.058393, -1.159583, 0.515187, 0.025421, -64.580643, -638.455017
1733469206.039034, 20.647296, 9.709386, -5.613655, -0.067421, -0.485770, 1.204515, -0.569412, -64.920059, -638.097778
1733469206.049030, 19.898659, 9.796026, -6.059874, -0.194334, 0.248265, 1.829577, -0.900269, -65.500870, -637.618530
1733469206.059031, 18.913744, 9.753080, -6.217592, -0.288809, 0.940199, 2.393294, -1.161575, -66.414688, -638.386414
1733469206.069034, 17.995718, 9.852140, -6.002413, -0.330293, 1.479101, 2.921033, -1.709808, -67.515076, -638.114746
1733469206.079040, 17.537677, 10.114604, -5.140351, -0.271570, 1.553806, 3.451464, -2.470505, -68.836395, -637.349731
1733469206.089037, 17.548600, 10.296115, -3.184438, -0.171921, 1.122954, 3.961708, -3.265793, -70.099670, -636.705933
1733469206.099025, 16.755970, 10.223091, -1.733103, -0.072721, 0.533285, 4.383598, -4.320786, -71.629089, -636.775452
1733469206.109037, 15.151855, 9.828048, -1.643470, 0.029526, 0.163491, 4.637845, -5.706161, -73.260376, -636.929688
1733469206.119019, 13.553426, 9.214235, -2.059163, 0.139002, -0.029442, 4.795014, -7.229614, -75.068817, -637.077148
1733469206.129093, 12.254721, 8.752453, -2.308459, 0.275974, -0.068049, 4.857328, -8.906616, -76.410660, -636.679626
1733469206.138110, 11.280580, 8.266729, -2.472013, 0.396079, -0.038946, 4.922897, -10.446121, -77.887833, -636.224609
1733469206.149033, 10.907384, 8.128913, -2.374749, 0.495618, 0.021159, 5.102741, -11.876312, -79.311676, -635.472595
1733469206.159017, 10.376919, 8.183082, -2.619107, 0.602098, 0.187254, 5.391133, -13.575027, -80.784439, -635.607483
1733469206.169072, 9.643994, 8.167819, -2.816180, 0.681731, 0.392690, 5.802722, -15.567947, -82.368393, -635.556580
1733469206.179019, 9.171588, 8.358457, -2.356194, 0.774368, 0.356752, 6.327900, -18.028900, -83.702240, -634.734619
1733469206.189016, 9.061006, 8.633641, -0.857872, 0.842594, -0.077840, 6.958969, -20.910461, -85.093002, -634.722961
1733469206.199071, 8.095394, 8.758738, 0.182708, 0.918130, -0.535250, 7.595818, -24.009705, -86.543488, -634.519531
1733469206.209017, 5.966500, 9.009830, -0.024840, 1.013936, -0.710392, 8.200225, -27.743942, -87.398560, -633.739868
1733469206.219016, 3.640084, 9.220968, -0.691475, 1.065823, -0.555301, 8.770230, -31.615311, -88.156586, -633.368408
1733469206.229022, 1.520617, 9.660005, -0.966509, 1.033804, -0.162685, 9.379757, -35.706421, -88.361069, -632.766357
1733469206.239023, -0.607828, 10.328436, -0.734870, 0.869947, 0.371391, 9.965326, -40.524033, -88.245346, -632.291138
1733469206.249020, -2.649633, 10.661380, -0.021099, 0.532449, 0.907316, 10.436862, -45.093597, -87.369675, -631.378967
1733469206.259096, -4.452916, 10.677840, 0.998831, 0.012522, 1.314799, 10.771482, -50.076813, -85.919312, -632.421570
1733469206.269015, -6.207417, 10.570400, 2.164358, -0.622584, 1.494866, 10.997736, -54.383347, -83.800507, -633.080872
1733469206.279024, -8.595184, 10.298060, 3.495834, -1.294424, 1.352475, 11.057108, -58.836304, -81.192963, -634.132263
1733469206.289018, -11.421838, 9.556755, 4.819378, -1.967156, 0.872400, 10.881889, -62.697388, -77.759689, -634.830322
1733469206.299029, -13.480702, 8.418013, 4.682610, -2.492666, 0.329960, 10.612373, -65.579239, -74.038940, -635.939758
1733469206.309025, -14.700099, 7.738509, 2.153884, -2.724089, 0.164928, 10.488231, -68.695648, -69.730484, -636.787659
1733469206.319015, -16.696564, 7.207445, -0.979528, -2.779504, 0.236217, 10.255679, -71.797943, -65.371475, -637.739746
1733469206.329077, -21.001937, 4.913051, -1.656339, -2.776435, -0.326331, 9.461093, -74.128647, -61.357910, -638.396851
1733469206.338378, -26.120890, 1.427692, -2.001104, -2.457654, -1.420872, 8.143355, -75.920319, -57.328781, -637.649780
1733469206.349023, -30.588620, -2.492214, -5.161749, -1.643211, -2.307708, 6.502554, -76.648026, -54.154968, -636.112183
1733469206.359028, -33.767820, -6.405687, -9.466673, -0.604404, -2.572910, 4.816857, -77.185349, -51.899673, -635.486450
1733469206.369021, -35.138800, -8.960150, -11.787852, 0.265832, -2.398832, 3.277901, -77.431137, -50.402679, -634.134644
1733469206.379024, -34.843715, -9.829694, -11.723358, 0.750952, -1.928417, 2.018659, -77.634003, -49.707581, -633.537903
1733469206.389037, -33.442957, -8.854955, -9.952846, 0.794525, -1.313190, 1.079300, -77.690109, -49.376862, -632.422363
1733469206.399042, -31.167418, -7.449409, -8.096292, 0.552928, -0.627505, 0.462230, -77.816650, -49.301651, -632.235596
1733469206.409039, -28.468404, -7.097012, -7.142502, 0.233094, 0.011004, 0.084007, -77.969223, -49.404602, -632.480774
1733469206.419024, -26.439618, -7.815572, -6.846070, -0.016968, 0.506649, -0.246423, -78.345337, -49.625381, -633.171326
1733469206.429013, -25.344869, -8.956559, -7.228544, -0.115668, 0.949725, -0.660475, -78.460632, -50.050430, -633.658081
1733469206.439052, -24.249223, -10.127623, -8.039430, -0.084395, 1.353085, -1.148467, -77.993774, -50.713257, -634.555786
1733469206.449085, -22.617724, -10.759991, -8.268824, 0.015479, 1.600070, -1.611596, -77.761734, -51.755630, -634.790527
1733469206.459166, -20.859183, -10.271873, -7.653215, 0.127041, 1.623358, -2.010307, -77.342941, -52.543243, -636.028564
1733469206.469009, -19.465009, -8.998607, -6.783521, 0.236044, 1.505422, -2.361985, -76.984421, -53.987167, -636.411011
1733469206.479012, -17.370681, -6.975058, -5.873575, 0.355706, 1.330760, -2.684325, -76.181992, -55.311539, -637.111816
1733469206.489014, -16.371551, -6.615030, -5.905747, 0.496448, 1.138193, -2.996990, -75.878159, -56.797943, -637.475464
1733469206.499009, -15.472828, -6.323236, -6.062418, 0.659759, 0.998843, -3.289489, -75.021194, -58.191162, -637.616028
1733469206.509017, -14.778060, -5.883302, -6.125715, 0.839446, 0.960818, -3.575041, -74.247147, -60.055481, -638.023376
1733469206.519007, -13.971813, -5.473444, -5.909788, 1.014007, 1.049650, -3.858319, -73.373749, -61.897171, -638.325745
1733469206.529014, -13.173945, -5.090971, -5.257966, 1.164899, 1.192997, -4.116209, -72.439896, -63.902267, -638.749390
1733469206.539017, -12.353931, -4.834342, -4.508431, 1.267605, 1.286428, -4.357374, -71.250580, -66.073822, -638.847839
1733469206.549015, -11.496208, -4.639215, -3.896862, 1.357267, 1.297313, -4.631692, -70.120789, -68.214996, -638.730164
1733469206.559018, -10.600328, -4.246566, -3.302502, 1.463953, 1.233599, -4.919383, -68.215576, -70.402359, -639.399658
1733469206.569013, -9.682750, -3.675548, -2.792387, 1.597626, 1.117368, -5.215086, -66.469803, -72.772888, -639.011902
1733469206.579014, -8.792257, -2.914492, -2.299631, 1.736927, 0.962711, -5.504897, -64.930481, -75.062698, -638.496704
1733469206.589023, -7.844602, -2.314894, -1.944690, 1.876016, 0.783450, -5.763657, -62.670364, -77.038788, -638.267212
1733469206.599007, -6.909367, -1.977012, -1.684171, 2.022284, 0.628861, -5.987915, -60.389145, -79.105591, -637.606812
1733469206.609007, -6.049250, -1.592144, -1.175254, 2.160695, 0.520706, -6.190357, -57.917191, -81.113312, -636.618896
1733469206.619008, -5.203498, -1.216554, -0.415095, 2.239033, 0.430397, -6.377514, -55.308899, -82.975494, -635.928345
1733469206.629005, -4.447230, -1.098789, 0.301370, 2.228218, 0.287276, -6.580030, -52.595749, -84.715118, -635.075867
1733469206.639007, -3.554641, -0.962469, 0.723947, 2.141131, 0.128751, -6.818938, -49.781616, -86.338669, -634.134766
1733469206.649003, -2.777274, -0.524480, 0.965312, 2.003446, -0.012205, -7.040799, -46.238129, -87.755585, -632.940063
1733469206.659007, -2.169296, -0.051326, 0.865055, 1.831104, -0.112903, -7.228176, -43.053711, -88.371140, -631.942871
1733469206.669003, -1.686416, 0.459537, 0.421828, 1.680132, -0.166127, -7.422096, -39.662720, -89.088303, -631.454834
1733469206.678323, -1.259051, 1.170316, 0.237325, 1.590774, -0.121538, -7.608253, -35.615173, -89.496536, -630.853394
1733469206.689003, -0.824354, 1.964293, 0.400131, 1.537234, -0.024388, -7.781405, -31.971664, -89.652283, -630.184814
1733469206.699022, -0.005088, 2.910900, 0.502932, 1.466530, 0.052652, -7.947097, -28.448486, -89.282135, -629.463135
1733469206.709008, 1.376666, 3.998466, 0.650774, 1.403186, 0.074880, -8.035708, -24.356949, -88.597702, -628.509460
1733469206.719005, 2.972252, 4.915296, 1.217601, 1.381410, 0.013975, -8.020196, -20.585953, -87.608276, -627.752441
1733469206.729006, 4.592528, 5.615899, 2.070984, 1.354158, -0.181941, -7.899044, -17.367416, -86.420532, -627.164429
1733469206.739020, 6.060922, 6.102371, 2.882768, 1.202857, -0.506824, -7.682857, -14.221817, -84.908066, -627.138000
1733469206.749007, 7.233332, 6.470031, 3.095254, 0.929543, -0.913934, -7.420286, -11.118484, -83.297714, -626.435730
1733469206.759004, 8.327782, 6.824373, 2.656666, 0.623113, -1.255991, -7.115884, -8.360001, -81.471207, -627.057739
1733469206.769002, 9.915137, 7.380725, 1.963994, 0.352407, -1.452847, -6.755990, -6.274277, -79.257782, -627.575500
1733469206.779000, 11.726052, 7.791181, 1.011700, 0.089088, -1.496578, -6.265035, -4.710007, -77.597748, -628.416016
1733469206.788501, 13.530681, 7.932140, -0.230292, -0.167887, -1.344273, -5.666666, -4.710007, -77.597748, -628.416016
1733469206.799018, 15.206024, 8.123826, -1.439514, -0.404230, -0.877887, -5.053806, -1.422485, -73.856827, -628.591858
1733469206.809006, 16.684294, 8.800038, -2.020108, -0.609638, -0.143442, -4.414479, -0.785599, -72.241852, -628.879639
1733469206.819010, 18.020108, 9.604340, -1.526603, -0.759193, 0.634173, -3.770555, 0.104446, -70.716507, -628.830811
1733469206.829001, 19.046173, 10.001179, -0.413748, -0.836347, 1.154049, -3.151996, 0.780243, -69.687637, -628.665771
1733469206.839001, 19.819501, 10.153211, 0.496647, -0.847394, 1.331233, -2.579799, 1.133591, -68.889648, -628.287476
1733469206.849002, 20.258388, 10.424803, 1.235857, -0.796006, 1.267186, -2.082790, 1.470123, -68.152161, -627.579163
1733469206.859006, 20.457406, 10.570400, 2.030133, -0.702632, 0.964798, -1.652045, 1.674606, -67.451508, -628.072876
1733469206.869001, 20.218285, 10.623821, 2.287510, -0.591222, 0.493454, -1.324826, 1.674606, -67.451508, -628.072876
1733469206.879000, 20.221577, 10.841394, 2.226009, -0.460098, 0.036935, -1.112257, 2.202515, -66.819382, -628.169067
1733469206.888999, 20.356101, 11.034277, 2.061258, -0.336350, -0.401959, -0.892804, 2.039993, -66.396347, -628.456726
1733469206.898999, 20.371514, 11.217134, 1.635539, -0.202184, -0.763797, -0.672616, 2.191513, -66.079773, -628.889038
1733469206.908999, 20.920684, 11.179126, 1.269525, -0.088694, -1.030831, -0.412177, 2.414444, -65.792435, -629.142578
1733469206.918996, 21.428404, 11.025598, 0.820313, -0.004831, -1.243792, -0.018171, 2.608109, -65.811020, -629.942810
1733469206.929009, 21.359870, 10.852766, 0.344615, 0.059437, -1.375388, 0.511852, 2.518326, -65.730988, -630.385193
1733469206.939000, 20.709994, 10.523264, -0.115221, 0.093078, -1.391873, 1.136387, 2.162201, -66.056015, -630.812988
1733469206.948997, 19.538332, 10.109068, -0.451606, 0.085632, -1.267749, 1.771806, 1.772903, -66.698715, -631.326050
1733469206.959008, 18.224962, 9.782558, -0.576554, 0.021474, -1.007134, 2.371779, 1.348221, -67.831787, -630.806946
1733469206.968992, 16.832734, 9.423877, -0.483928, -0.076767, -0.703859, 2.898724, 0.636215, -68.769455, -631.566956
1733469206.979041, 15.661820, 8.990676, -0.268599, -0.183723, -0.411228, 3.332881, -0.642349, -69.817490, -632.203674
1733469206.989003, 14.753370, 8.575881, 0.207248, -0.310946, -0.199746, 3.687897, -1.568756, -71.347092, -632.294189
1733469206.998988, 13.926173, 8.330176, 0.389207, -0.430397, -0.132195, 4.006887, -2.879517, -72.877090, -632.458862
1733469207.008991, 13.104812, 8.022820, 0.478242, -0.499483, -0.156102, 4.299138, -4.358658, -74.526337, -632.873840
1733469207.019041, 12.415282, 7.685836, 0.637157, -0.520724, -0.285123, 4.577948, -5.716125, -75.624802, -632.725952
1733469207.029003, 11.689540, 7.468712, 0.633266, -0.484117, -0.505535, 4.856049, -7.335281, -77.325531, -633.097778
1733469207.038995, 10.931326, 7.250092, 0.456245, -0.395765, -0.757877, 5.148532, -9.261139, -78.568726, -633.565857
1733469207.049005, 9.973795, 6.961740, 0.139313, -0.274773, -0.958520, 5.449619, -11.375412, -79.856094, -633.872192
1733469207.058999, 9.103204, 6.664410, 0.034417, -0.150242, -1.033795, 5.730235, -13.451080, -81.493317, -633.576965
1733469207.068991, 8.285434, 6.389526, 0.190339, -0.067264, -1.080549, 6.025452, -15.908081, -82.924942, -634.491943
1733469207.078992, 7.413047, 6.166566, 0.193781, -0.016144, -1.107916, 6.320142, -18.813156, -84.228500, -635.084656
1733469207.088997, 6.572084, 6.098780, 0.223110, 0.033205, -1.120141, 6.628580, -22.043182, -85.238937, -635.075500
1733469207.098996, 5.832275, 6.092196, 0.356586, 0.084400, -1.157208, 6.952817, -25.154175, -86.250412, -635.184875
1733469207.108985, 5.105635, 6.178088, 0.534356, 0.152065, -1.256480, 7.323447, -28.373047, -86.946365, -635.104370
1733469207.118986, 4.279785, 6.492776, 0.426617, 0.241968, -1.366146, 7.761017, -31.761078, -87.504501, -635.053467
1733469207.129051, 3.407099, 7.134122, 0.211887, 0.315773, -1.372380, 8.279175, -35.726288, -87.680527, -634.881653
1733469207.139001, 2.214337, 8.423250, 0.227449, 0.338004, -1.259197, 8.920141, -39.523407, -87.618683, -634.443298
1733469207.148992, 0.259172, 9.884462, 0.708085, 0.294430, -1.057041, 9.713665, -43.767456, -86.880676, -634.044312
1733469207.158983, -2.093430, 9.909152, 1.521814, 0.112271, -0.716671, 10.491160, -48.668793, -85.494202, -634.089905
1733469207.169006, -4.240131, 9.293543, 2.364573, -0.300295, -0.330480, 11.093743, -53.623825, -83.384491, -634.507568
1733469207.179007, -6.505944, 9.818771, 2.578854, -0.969942, 0.055715, 11.570681, -58.100525, -80.537216, -634.706177
1733469207.189001, -9.319729, 10.975170, 1.853561, -1.795594, 0.548303, 12.003062, -62.268295, -77.023376, -635.363708
1733469207.198988, -12.866140, 11.916540, 0.808492, -2.639822, 1.095968, 12.330390, -66.049683, -72.489502, -636.170410
1733469207.209004, -16.820763, 11.472565, -0.622941, -3.372566, 1.399007, 12.398082, -69.413086, -67.509140, -637.856140
1733469207.218994, -21.820155, 9.574263, -3.427150, -3.834593, 1.299527, 12.075044, -71.828461, -61.908478, -639.798767
1733469207.228997, -28.407652, 5.077054, -7.550414, -3.902663, 0.956897, 11.233184, -74.278137, -56.522568, -640.730835
1733469207.238996, -35.884444, -2.251747, -12.631209, -3.575325, 0.662662, 9.544433, -75.837769, -51.836029, -642.315552
1733469207.248985, -40.133404, -7.828441, -17.039084, -2.777179, 0.324288, 7.008184, -75.950607, -48.264893, -642.079956
1733469207.258999, -38.813899, -9.315988, -17.943045, -1.603173, 0.013422, 4.423146, -75.927017, -46.256317, -641.558228
1733469207.268994, -34.301278, -7.701099, -15.605257, -0.420310, -0.545062, 2.326804, -75.282181, -45.074615, -641.542175
1733469207.278994, -29.192202, -4.736629, -12.391041, 0.586074, -1.391501, 0.983293, -75.432724, -44.641769, -639.769592
1733469207.288999, -25.739164, -2.699462, -10.171466, 1.299400, -2.215972, 0.334613, -75.407303, -44.760590, -639.177246
1733469207.298998, -24.314465, -2.870947, -9.326164, 1.660382, -2.653184, 0.119443, -75.582870, -44.977417, -636.818359
1733469207.308993, -24.371626, -4.903924, -9.608530, 1.678779, -2.494618, 0.040800, -76.455505, -45.716263, -636.224487
1733469207.318995, -25.032575, -7.390302, -10.383802, 1.402792, -1.720946, -0.133223, -77.383362, -45.781738, -636.278137
1733469207.328996, -25.310752, -9.064896, -10.878504, 0.999844, -0.516766, -0.498276, -77.349304, -46.490067, -635.417969
1733469207.338281, -24.394221, -9.740211, -10.488100, 0.665338, 0.713755, -1.008987, -77.592987, -47.041718, -636.499390
1733469207.348904, -22.517916, -9.603292, -9.317335, 0.468339, 1.634428, -1.536061, -77.447754, -48.141052, -636.243835
1733469207.358973, -20.581455, -8.594136, -7.827543, 0.394059, 2.045805, -1.994325, -76.862564, -49.357819, -637.725647
1733469207.368638, -18.936489, -7.221062, -6.767660, 0.431985, 1.966374, -2.387303, -76.635269, -50.581711, -639.079041
1733469207.378980, -17.463157, -6.187665, -6.436512, 0.589752, 1.598605, -2.739433, -76.117294, -52.054230, -638.963257
1733469207.388980, -16.228348, -5.478382, -6.420800, 0.841069, 1.105836, -3.037593, -75.662399, -53.535324, -640.143433
1733469207.398996, -15.247922, -5.196465, -6.686556, 1.136126, 0.663909, -3.298153, -75.023651, -55.399933, -639.752930
1733469207.408993, -14.561983, -4.868609, -6.780678, 1.412861, 0.403319, -3.549452, -74.208771, -57.431870, -639.520142
1733469207.418995, -13.986627, -4.546589, -6.588843, 1.628275, 0.321038, -3.774989, -73.700470, -59.212204, -640.394165
1733469207.428985, -13.469629, -4.252551, -6.125415, 1.783066, 0.386055, -4.007006, -72.944626, -61.409866, -639.547119
1733469207.438984, -13.041965, -3.870975, -5.438728, 1.870128, 0.538867, -4.248747, -72.267426, -63.646332, -640.153564
1733469207.448994, -12.355577, -3.768473, -4.636820, 1.903997, 0.725335, -4.535178, -71.157593, -66.015427, -639.779541
1733469207.458986, -11.457901, -3.542521, -3.777751, 1.915678, 0.863975, -4.852177, -69.498566, -68.237228, -639.013855
1733469207.468984, -10.570849, -2.972850, -2.910302, 1.921690, 0.903720, -5.163336, -68.151932, -70.478073, -639.361938
1733469207.478981, -9.600599, -2.315343, -2.328062, 1.937792, 0.856246, -5.458166, -66.140442, -72.861221, -639.561584
1733469207.488989, -8.489091, -1.772906, -2.116474, 1.997249, 0.772983, -5.733479, -64.253937, -75.382446, -638.541748
1733469207.498972, -7.386112, -1.260547, -1.898153, 2.114914, 0.698614, -5.989951, -61.957916, -77.601883, -638.424805
1733469207.509004, -6.277447, -0.783203, -1.485602, 2.269283, 0.645703, -6.232152, -59.567505, -79.786896, -637.685608
1733469207.518993, -5.248090, -0.317531, -0.869843, 2.409346, 0.582872, -6.461293, -56.996201, -81.931580, -636.872437
1733469207.529020, -4.190152, 0.065392, -0.186448, 2.490359, 0.465390, -6.650667, -54.135025, -83.722702, -635.888550
1733469207.539002, -3.334524, 0.292542, 0.506673, 2.501372, 0.334882, -6.834636, -51.340607, -85.273529, -634.904419
1733469207.548988, -2.749292, 0.710180, 1.169568, 2.438770, 0.146937, -7.024410, -47.818649, -86.856720, -633.574768
1733469207.559000, -2.194136, 1.293467, 1.635838, 2.311773, -0.125776, -7.211895, -44.709625, -88.099365, -633.138428
1733469207.568982, -1.601871, 1.903241, 1.756895, 2.164019, -0.394813, -7.380070, -41.108368, -89.051331, -631.734741
1733469207.578977, -0.972794, 2.415301, 1.867477, 2.024345, -0.595556, -7.519693, -37.729431, -89.629608, -630.839844
1733469207.588981, -0.103699, 2.893542, 1.775749, 1.851909, -0.775705, -7.653210, -34.136002, -89.861237, -629.164856
1733469207.598972, 1.055843, 3.482666, 1.699584, 1.697018, -0.910808, -7.730896, -30.535416, -89.698318, -629.430176
1733469207.608478, 2.163012, 3.986645, 1.834557, 1.531109, -1.021534, -7.739664, -26.924377, -89.146149, -628.363525
1733469207.619043, 3.282450, 4.568436, 1.899200, 1.314759, -1.139115, -7.686665, -23.484604, -88.645462, -627.662292
1733469207.628987, 4.190451, 4.990713, 1.682824, 1.050190, -1.230115, -7.576552, -20.112778, -87.551773, -626.725586
1733469207.638419, 4.786308, 5.175067, 1.101482, 0.786344, -1.196461, -7.451839, -17.102875, -86.172379, -627.404480
1733469207.648975, 5.647473, 5.446659, 0.774973, 0.546120, -1.044692, -7.324657, -14.108063, -84.752823, -627.663452
1733469207.658980, 7.329998, 6.058527, 1.160290, 0.372311, -0.942821, -7.148548, -11.428131, -83.057892, -627.597412
1733469207.668982, 9.494057, 6.850410, 1.590199, 0.232532, -0.997748, -6.857755, -9.006744, -81.333557, -627.770935
1733469207.678246, 11.637316, 7.530213, 1.460762, 0.062851, -1.096508, -6.458824, -6.801224, -79.419418, -627.397827
1733469207.688988, 13.602657, 7.909096, 0.906505, -0.355519, -0.942513, -5.419875, -5.224442, -77.465714, -628.881592
1733469207.698989, 15.356110, 8.140136, 0.173430, -0.493028, -0.738493, -4.805352, -3.492050, -75.781464, -629.222839
1733469207.708982, 16.631621, 8.070106, -0.743849, -0.547006, -0.457606, -4.187645, -2.450378, -74.056900, -629.684387
1733469207.718029, 17.608156, 8.195502, -1.426495, -0.547006, -0.457606, -4.187645, -1.574631, -72.646286, -629.796753
1733469207.728249, 18.352454, 8.467992, -1.677288, -0.570519, -0.024998, -3.597541, -0.736374, -71.230362, -629.135254
1733469207.738978, 19.033754, 8.893112, -0.875380, -0.713041, 0.729829, -2.586703, -0.399643, -70.026108, -629.546387
1733469207.748148, 19.582325, 9.313594, 0.370652, -0.713041, 0.729829, -2.586703, 0.069672, -68.997772, -629.916199
1733469207.758963, 19.888334, 9.924415, 0.804152, -0.730955, 0.665530, -1.932156, 0.654861, -68.255676, -628.765564
1733469207.768956, 20.661960, 10.491242, 1.098789, -0.620239, 0.354979, -1.634009, 1.151230, -67.556274, -629.896179
1733469207.778954, 21.422269, 10.609905, 1.199944, -0.431620, -0.080226, -1.340253, 1.274078, -66.795685, -629.140198
1733469207.789001, 21.679346, 10.660632, 0.877026, -0.431620, -0.080226, -1.340253, 1.786362, -66.380707, -629.446655
1733469207.798969, 21.644182, 10.711509, 0.504129, 0.053706, -0.973937, -0.669156, 1.906219, -66.100143, -630.818848
1733469207.808984, 21.518636, 10.599580, 0.121506, 0.245832, -1.277136, -0.228130, 2.163330, -65.883011, -630.501953
1733469207.818971, 20.990265, 10.429591, -0.275932, 0.359349, -1.396088, 0.245709, 1.933487, -65.887543, -631.227661
1733469207.828981, 20.169802, 10.107571, -0.607229, 0.369927, -1.326258, 0.736510, 1.901199, -66.078506, -631.014648
1733469207.838973, 19.398720, 9.803508, -0.753874, 0.281794, -1.115853, 1.234863, 1.481918, -66.563538, -631.174683
1733469207.848969, 18.553866, 9.587431, -0.674566, 0.131763, -0.877522, 1.711149, 1.142776, -67.019211, -632.313599
1733469207.858960, 17.665318, 9.220819, -0.456095, -0.035754, -0.689653, 2.159419, 0.702896, -68.255371, -632.231812
1733469207.868952, 16.757466, 8.853010, -0.395492, -0.185337, -0.550372, 2.566530, -0.045242, -69.107407, -632.618713
1733469207.878970, 15.880740, 8.579173, -0.375890, -0.304338, -0.496689, 2.949453, -0.808228, -70.109055, -632.628418
1733469207.888971, 15.038878, 8.343045, -0.413598, -0.304338, -0.496689, 2.949453, -1.628357, -71.258194, -632.779480
1733469207.898971, 14.204798, 8.079383, -0.653916, -0.376146, -0.537878, 3.666635, -2.977951, -72.438110, -633.745544
1733469207.908966, 13.452869, 7.918972, -0.651522, -0.343672, -0.636250, 3.998063, -4.427856, -74.130371, -634.479980
1733469207.918242, 12.634202, 7.805546, -0.627580, -0.283499, -0.734901, 4.302453, -5.762039, -75.288712, -634.529480
1733469207.928961, 11.867609, 7.553257, -0.789039, -0.196160, -0.809860, 4.598298, -7.413574, -76.411118, -634.683472
1733469207.938964, 11.073931, 7.261464, -0.966659, -0.090731, -0.832100, 4.868613, -9.178680, -77.980515, -634.618835
1733469207.949011, 10.321703, 6.938845, -1.045817, 0.014414, -0.850125, 5.134592, -11.069290, -79.287155, -635.405884
1733469207.958965, 9.703999, 6.599018, -0.904859, 0.117433, -0.917619, 5.418511, -13.495163, -80.967987, -634.857910
1733469207.968969, 9.049933, 6.425439, -0.770484, 0.220399, -1.011932, 5.729416, -15.863556, -82.094086, -635.627380
1733469207.978962, 8.393772, 6.375609, -0.638803, 0.331895, -1.137169, 6.075718, -18.375137, -83.291931, -635.505615
1733469207.988537, 7.610269, 6.246622, -0.645088, 0.469333, -1.255410, 6.439895, -21.103226, -84.643860, -635.303162
1733469207.998965, 6.699425, 6.113594, -0.720056, 0.631751, -1.352880, 6.828219, -24.422287, -85.838638, -635.628540
1733469208.008962, 5.695207, 6.016180, -0.792032, 0.818807, -1.423360, 7.234886, -28.165131, -86.762131, -634.483765
1733469208.018959, 4.651335, 6.151452, -0.853234, 1.010269, -1.428034, 7.655376, -31.628433, -87.448135, -634.820862
1733469208.028959, 3.792266, 6.420800, -0.864157, 1.161967, -1.355873, 8.111216, -35.073578, -87.909378, -633.591187
1733469208.038968, 3.057396, 6.853402, -0.759860, 1.283914, -1.274094, 8.666751, -38.902603, -87.814590, -633.210449
1733469208.048955, 2.209250, 7.848343, -0.561740, 1.391001, -1.138157, 9.340406, -43.097366, -87.593094, -632.529358
1733469208.058971, 0.666636, 9.097368, -0.178218, 1.420531, -0.907364, 10.079307, -48.022934, -86.773590, -632.150879
1733469208.068630, -1.639430, 9.814880, 0.710779, 1.276362, -0.531941, 10.709405, -52.778671, -85.154770, -631.529419
1733469208.078549, -3.969437, 9.267955, 1.838747, 0.825158, -0.125887, 11.125568, -57.415359, -82.946640, -630.680176
1733469208.088968, -6.517017, 8.263587, 3.453187, 0.025956, 0.305037, 11.370755, -61.556686, -79.818497, -631.317810
1733469208.098959, -9.275586, 8.115895, 4.261380, -0.957465, 0.858675, 11.527426, -65.254669, -75.900375, -632.041626
1733469208.108956, -12.005724, 8.428937, 3.436876, -1.924918, 1.520535, 11.658200, -68.531891, -71.546188, -633.121704
1733469208.118958, -15.417013, 8.161385, 1.658733, -2.725277, 2.076723, 11.608538, -71.473160, -66.805450, -633.921631
1733469208.128957, -19.642779, 6.970718, -0.283563, -3.340503, 2.464819, 11.202063, -73.410843, -61.531128, -636.241760
1733469208.138956, -25.030331, 4.675427, -2.873341, -3.809133, 2.772567, 10.244840, -74.864014, -56.549500, -638.423462
1733469208.148968, -31.322891, 0.353594, -6.708254, -4.108788, 3.191051, 8.537766, -75.968674, -52.121414, -639.982666
1733469208.158954, -36.767755, -5.868787, -11.089344, -3.963786, 3.223494, 6.163651, -75.446777, -48.596802, -642.515564
1733469208.168967, -39.076663, -10.300604, -14.522030, -3.065879, 2.461972, 3.726997, -75.263397, -46.538498, -643.359131
1733469208.178981, -37.445913, -11.212346, -15.859491, -1.640745, 0.923858, 1.729335, -74.931870, -45.377808, -643.296509
1733469208.188956, -33.523761, -9.242965, -14.660595, -0.198413, -1.091095, 0.301675, -74.691315, -45.039719, -641.834412
1733469208.198955, -29.835045, -6.510732, -12.580333, 0.943527, -2.938418, -0.630381, -74.742203, -45.516510, -640.865784
1733469208.208981, -26.966641, -5.158457, -11.740716, 1.655812, -3.990720, -1.152482, -75.206070, -46.361786, -638.699707
1733469208.218961, -25.050382, -5.619191, -12.115409, 1.980442, -4.072242, -1.403081, -76.181427, -47.348267, -636.478088
1733469208.228941, -23.876775, -7.088633, -13.028647, 1.979268, -3.189905, -1.553679, -77.051865, -48.592316, -635.486450
1733469208.238970, -22.903083, -8.266580, -13.669545, 1.782025, -1.701969, -1.692065, -77.536240, -49.619537, -634.894897
1733469208.248964, -21.588816, -8.794052, -13.161675, 1.530216, -0.158545, -1.820931, -77.332291, -51.068008, -635.005005
1733469208.258950, -19.963751, -8.599075, -11.632229, 1.294498, 1.107613, -1.924553, -77.215393, -52.216721, -635.433716
1733469208.269007, -18.433258, -7.876175, -9.723451, 1.101716, 1.949081, -1.990525, -76.847870, -53.518494, -636.203674
1733469208.278949, -17.237504, -7.164200, -7.666533, 0.974223, 2.277843, -2.094871, -76.393661, -54.644791, -637.294434
1733469208.288949, -16.472856, -6.686556, -6.007351, 0.942376, 2.172882, -2.275870, -75.919846, -55.999939, -638.305298
1733469208.298945, -15.977256, -6.355408, -5.148880, 1.022734, 1.775472, -2.532853, -75.093216, -57.314346, -638.461670
1733469208.308950, -15.603311, -6.243779, -4.825214, 1.194238, 1.248756, -2.863924, -74.616592, -58.898605, -639.293884
1733469208.318946, -15.374067, -6.169558, -4.832696, 1.396010, 0.754185, -3.258867, -73.744080, -60.760513, -639.485352
1733469208.328968, -15.051298, -6.046706, -4.991462, 1.565197, 0.405891, -3.692737, -73.343857, -62.602417, -639.229858
1733469208.338940, -14.510358, -5.842301, -5.026776, 1.674887, 0.196361, -4.136001, -72.437454, -64.761917, -638.827637
1733469208.348648, -13.778331, -5.623980, -4.911705, 1.744787, 0.106191, -4.554782, -72.437454, -64.761917, -638.827637
1733469208.358949, -12.841001, -4.887463, -4.667197, 1.788507, 0.100245, -4.916364, -71.145508, -66.930145, -638.615295
1733469208.368955, -11.853543, -3.875015, -4.325724, 1.841568, 0.144195, -5.228553, -70.124084, -69.260590, -637.938965
1733469208.378960, -10.828525, -3.032556, -3.973028, 1.930907, 0.241436, -5.489183, -68.214432, -71.830841, -636.879883
1733469208.388969, -9.818322, -2.262371, -3.511396, 2.048875, 0.352640, -5.699199, -66.510834, -73.890930, -637.110474
1733469208.398951, -8.906580, -1.533037, -2.876484, 2.167003, 0.440052, -5.894216, -64.310379, -76.212234, -636.515381
1733469208.408944, -8.004864, -1.095946, -2.227655, 2.266593, 0.537930, -6.100868, -62.331726, -78.623764, -635.904297
1733469208.418939, -7.048380, -0.823605, -1.472284, 2.318090, 0.585997, -6.306823, -59.869110, -80.555634, -635.072510
1733469208.428946, -6.282236, -0.496348, -0.585682, 2.322462, 0.566274, -6.534822, -57.360138, -82.624161, -634.335693
1733469208.438994, -5.540183, -0.289249, 0.240917, 2.284816, 0.496498, -6.791929, -54.846954, -84.496613, -633.586670
1733469208.448943, -4.736629, 0.190489, 0.953192, 2.218150, 0.366799, -7.041472, -51.680420, -86.274597, -632.014648
1733469208.458939, -3.918560, 0.855628, 1.559972, 2.137693, 0.182751, -7.258551, -48.470352, -87.510376, -631.801941
1733469208.468939, -3.180547, 1.521216, 1.952172, 2.031091, 0.007056, -7.450492, -44.806534, -88.718338, -630.476379
1733469208.478942, -2.584541, 2.296039, 2.131588, 1.907496, -0.199366, -7.642050, -41.427414, -89.698639, -629.353210
1733469208.488960, -2.060659, 3.164237, 1.927781, 1.855930, -0.316554, -7.801378, -37.615265, -90.235580, -628.483643
1733469208.498947, -1.032350, 4.151995, 1.741034, 1.851694, -0.509248, -7.862216, -33.902771, -90.311615, -627.585449
1733469208.508943, 0.364218, 4.954202, 2.258331, 1.806659, -0.894491, -7.822927, -30.360245, -90.048798, -626.566467
1733469208.518945, 1.666364, 5.174319, 2.969858, 1.665520, -1.351396, -7.790270, -26.726959, -89.778931, -625.849487
1733469208.528954, 2.681506, 5.284003, 3.463063, 1.394297, -1.742874, -7.757492, -22.856400, -88.838226, -625.459167
1733469208.538944, 3.357120, 5.738452, 3.392434, 1.005012, -1.974777, -7.695186, -19.343735, -87.992157, -624.580444
1733469208.548989, 4.108899, 6.427384, 2.783559, 0.614573, -2.023934, -7.605846, -16.334778, -86.473877, -625.084351
1733469208.558939, 5.273080, 6.832303, 1.783680, 0.315782, -1.905861, -7.461261, -13.169785, -84.759140, -625.585327
1733469208.568953, 7.424868, 7.493402, 1.194557, 0.066990, -1.827085, -7.119831, -10.424500, -82.804291, -625.336792
1733469208.578950, 10.222493, 8.687211, 1.179144, -0.231925, -1.822218, -6.564250, -7.774628, -80.807129, -626.013672
1733469208.588943, 13.094787, 9.555259, 0.507720, -0.510493, -1.620658, -5.867491, -6.250214, -78.991760, -626.771179
1733469208.598939, 16.137368, 9.802759, -1.112406, -0.711493, -1.093452, -5.070421, -4.817017, -77.219498, -628.297607
1733469208.608938, 18.597111, 10.122535, -2.457049, -0.814307, -0.378068, -4.226338, -3.522659, -75.443069, -628.098267
1733469208.618939, 20.202274, 10.523713, -2.769493, -0.912591, 0.317470, -3.449004, -2.672256, -73.983551, -628.361694
1733469208.628948, 21.207689, 10.887931, -2.222567, -1.042558, 0.878385, -2.836432, -2.433319, -72.721390, -628.506470
1733469208.638941, 22.035933, 11.228806, -1.582867, -1.122613, 1.296174, -2.369955, -1.861740, -71.959473, -627.979370
1733469208.648942, 23.666983, 11.606491, -1.114800, -1.079157, 1.419957, -1.889195, -1.283386, -70.825363, -628.433777
1733469208.658939, 25.629031, 12.042984, -0.313790, -0.897447, 1.137155, -1.365824, -1.000275, -70.171829, -628.237610
1733469208.668941, 26.989087, 12.695105, 0.860267, -0.644382, 0.485993, -0.829779, -0.688675, -69.883484, -628.426880
1733469208.678943, 27.650635, 13.036278, 1.625064, -0.399341, -0.274507, -0.270123, -0.510803, -69.523697, -628.438904
1733469208.688945, 27.636419, 12.819154, 1.285088, -0.174897, -0.834451, 0.346577, -0.293961, -69.621811, -628.389648
1733469208.698949, 26.678888, 12.420520, 0.281019, 0.014556, -1.107751, 1.003207, -0.242859, -69.652710, -628.636108
1733469208.708956, 25.085846, 11.617714, -0.493804, 0.108216, -1.139798, 1.669146, -0.253860, -70.083389, -629.264954
1733469208.718943, 23.231537, 10.666617, -0.761506, 0.088879, -1.030996, 2.336936, -0.795547, -70.895691, -629.301880
1733469208.728520, 21.104738, 9.744401, -0.878822, -0.013060, -0.795047, 2.916093, -1.896057, -71.897736, -630.005249
1733469208.738958, 18.722657, 8.719982, -0.997784, -0.168357, -0.488369, 3.366772, -2.793823, -73.183044, -629.609558
1733469208.748945, 16.490513, 7.794623, -0.951546, -0.354009, -0.161751, 3.672673, -3.800064, -74.399826, -630.214172
1733469208.759000, 14.626926, 6.998102, -0.751779, -0.545592, 0.083838, 3.836191, -5.195908, -75.704071, -630.806396
1733469208.768934, 13.299192, 6.262633, -0.451457, -0.695850, 0.185610, 3.921026, -6.467560, -76.795807, -630.844238
1733469208.778935, 12.275670, 5.739350, -0.253187, -0.771371, 0.144950, 3.967918, -7.757950, -78.265640, -631.176514
1733469208.788931, 11.417050, 5.323956, -0.225654, -0.762514, -0.003472, 4.007532, -8.765259, -79.432098, -631.697876
