SamplingTime, AccelerationX, AccelerationY, AccelerationZ, GyroX, GyroY, GyroZ, MagneticFieldX, MagneticFieldY, MagneticFieldZ
1733468678.456440, 5.436633, -8.765322, -1.138593, -0.500002, 0.178509, -0.083124, , , 
1733468678.466427, 5.620987, -8.734197, -1.498022, -0.305746, -0.065841, -0.094649, -33.685089, -82.231003, -643.780212
1733468678.476438, 5.530456, -8.998457, -1.951274, -0.074735, -0.250909, -0.092775, -33.677277, -82.204025, -642.873413
1733468678.486462, 5.358373, -9.184756, -2.091784, 0.090924, -0.290312, -0.070500, -33.677277, -82.204025, -642.873413
1733468678.496456, 5.268441, -8.942493, -1.659032, 0.070323, -0.158021, -0.040329, -33.767624, -82.202454, -643.780151
1733468678.506469, 5.148431, -8.839692, -1.185279, -0.058652, 0.027069, -0.012516, -33.686279, -82.002579, -642.745422
1733468678.516471, 5.076605, -8.906729, -1.037288, -0.193906, 0.220921, 0.000569, -33.564362, -81.890564, -643.601685
1733468678.526460, 5.029769, -8.719533, -0.673070, -0.331482, 0.314831, 0.014817, -33.569427, -82.025253, -643.094238
1733468678.536440, 5.064934, -8.698135, -0.605284, -0.450272, 0.342647, 0.009020, -33.903839, -81.993057, -643.118286
1733468678.546460, 5.077952, -8.769961, -0.621894, -0.513414, 0.248191, -0.017746, -33.814499, -81.812759, -643.829224
1733468678.556454, 5.085434, -8.815002, -0.887052, -0.499428, 0.057001, -0.053594, -33.552902, -81.655716, -643.482910
1733468678.566445, 4.962731, -8.841338, -1.539172, -0.422407, -0.087187, -0.092572, -33.546555, -81.630325, -644.140564
1733468678.576448, 4.910059, -8.912865, -2.080112, -0.313093, -0.171669, -0.141032, -33.621353, -81.638687, -643.750305
1733468678.586443, 4.952406, -9.131635, -2.232294, -0.176892, -0.290302, -0.194815, -33.935623, -81.391357, -643.771484
1733468678.596436, 5.134814, -9.306112, -2.498499, -0.021774, -0.410663, -0.232949, -33.778046, -81.442368, -644.285461
1733468678.606524, 5.367052, -9.443330, -2.716970, 0.155593, -0.531946, -0.266711, -33.756409, -81.607361, -643.921936
1733468678.616442, 5.676951, -9.785401, -2.483835, 0.356206, -0.774631, -0.313298, -33.985397, -81.650620, -644.358398
1733468678.626449, 5.964555, -10.147674, -1.743428, 0.586536, -1.284402, -0.374238, -34.101486, -81.989212, -644.108276
1733468678.636507, 6.161179, -10.321553, -1.077690, 0.831446, -1.996188, -0.438930, -34.661407, -82.088699, -643.562744
1733468678.646435, 6.130204, -10.453982, -0.970101, 1.044343, -2.696654, -0.493790, -35.016220, -82.262848, -643.875000
1733468678.656443, 5.923554, -10.657789, -1.146523, 1.160685, -3.213446, -0.535466, -35.335556, -82.697250, -643.026855
1733468678.666440, 5.323657, -10.723629, -1.750161, 1.152214, -3.488210, -0.595186, -35.814957, -82.835892, -642.941772
1733468678.676045, 4.609137, -10.835857, -3.164835, 1.117896, -3.401578, -0.653747, -36.331451, -83.121063, -642.131592
1733468678.686439, 4.299986, -10.976966, -4.316746, 1.094816, -3.098045, -0.752052, -36.731018, -83.270844, -642.282166
1733468678.696437, 4.549582, -10.834960, -4.770447, 1.113802, -2.791573, -0.807426, -37.130585, -83.560303, -641.791382
1733468678.706433, 4.897489, -10.525210, -4.628740, 1.190648, -2.635634, -0.791216, -37.185974, -83.901443, -640.630005
1733468678.716452, 4.928015, -10.284144, -4.247164, 1.272326, -2.625461, -0.750165, -37.478073, -84.376114, -641.135986
1733468678.726436, 4.922928, -10.489596, -4.213196, 1.284367, -2.647324, -0.773563, -37.893372, -84.519257, -640.129761
1733468678.736448, 4.687099, -10.177003, -3.904195, 1.262985, -2.829694, -0.777260, -38.223389, -84.917053, -639.363220
1733468678.746441, 3.935619, -9.875034, -3.847482, 1.264937, -3.127219, -0.803515, -38.362686, -85.148331, -639.202637
1733468678.756439, 2.728492, -9.754875, -4.062661, 1.298191, -3.611016, -0.930262, -38.661819, -85.380219, -637.699219
1733468678.766432, 1.534234, -9.520693, -4.853496, 1.410373, -4.180700, -1.144574, -38.647903, -85.749573, -637.900146
1733468678.776438, 0.530166, -9.054122, -6.373215, 1.596689, -4.563231, -1.377100, -38.906754, -86.043854, -637.145203
1733468678.786430, 0.056713, -8.561815, -7.724143, 1.783536, -4.710597, -1.556023, -38.724945, -86.425110, -635.516968
1733468678.796438, -0.155174, -8.204779, -9.110835, 1.897797, -4.554986, -1.670328, -38.527161, -86.630951, -634.739014
1733468678.806443, -0.251990, -7.922264, -10.267683, 1.927300, -4.154996, -1.758817, -38.085846, -86.955429, -633.304932
1733468678.816451, -0.132280, -7.853879, -10.525659, 1.890785, -3.812946, -1.808069, -37.753906, -87.255646, -633.301880
1733468678.826434, -0.725892, -7.410503, -10.799645, 1.776742, -3.356634, -1.855113, -37.566452, -87.516205, -631.865662
1733468678.836480, -1.593491, -6.745514, -10.855610, 1.599817, -2.740037, -1.936326, -36.783905, -87.773605, -630.554688
1733468678.846438, -1.813308, -6.186617, -10.487950, 1.331157, -2.061888, -2.026808, -35.932190, -87.758270, -630.548096
1733468678.856440, -1.679532, -5.710620, -10.067019, 1.012834, -1.508832, -2.106538, -34.878693, -87.915436, -629.367371
1733468678.866443, -1.531840, -5.267543, -10.132710, 0.817553, -1.115507, -2.157809, -34.052490, -87.893646, -629.464722
1733468678.876444, -1.158494, -4.484190, -10.613047, 0.838010, -0.838974, -2.143626, -33.274902, -87.964111, -629.378357
1733468678.886467, -0.697162, -3.859154, -11.029339, 1.042505, -0.672716, -2.082096, -31.891815, -88.165741, -628.127319
1733468678.896427, -0.520290, -3.522619, -11.173290, 1.361784, -0.585608, -2.001753, -31.239166, -87.949402, -627.788452
1733468678.906429, -0.780360, -2.959233, -10.771962, 1.713181, -0.482973, -1.941917, -30.403793, -88.054733, -626.174744
1733468678.916433, -1.341501, -2.550423, -9.766846, 1.992251, -0.310581, -1.961924, -29.522705, -87.920593, -625.688232
1733468678.926450, -1.797148, -2.457947, -8.372673, 2.138233, -0.156142, -2.061184, -28.569901, -88.015274, -625.171570
1733468678.936484, -2.085649, -2.292149, -7.077709, 2.194992, -0.023750, -2.219203, -27.586700, -87.895523, -623.443359
1733468678.946430, -2.120066, -2.089091, -5.991041, 2.234141, 0.123023, -2.425781, -26.489120, -87.489426, -622.831177
1733468678.956429, -2.028637, -1.632546, -4.785710, 2.264570, 0.224744, -2.648727, -25.227371, -87.278702, -620.874084
1733468678.966430, -1.634192, -1.151761, -3.862895, 2.269684, 0.332093, -2.862807, -23.961960, -87.076279, -619.697876
1733468678.976105, -1.063175, -0.692523, -2.992154, 2.270231, 0.408336, -3.059258, -22.689178, -86.142471, -619.010010
1733468678.986428, -0.193481, -0.358532, -2.291999, 2.299591, 0.458143, -3.214258, -21.249405, -85.733627, -617.255493
1733468678.996435, 0.411354, 0.082001, -1.526304, 2.330812, 0.424151, -3.328146, -19.746552, -84.865509, -616.607117
1733468679.006433, 1.002871, 0.783802, -0.810288, 2.370796, 0.443719, -3.377301, -18.449112, -84.155777, -615.000977
1733468679.016436, 1.523460, 1.560271, 0.222511, 2.367259, 0.554873, -3.390807, -16.964722, -83.561722, -614.222229
1733468679.026417, 2.093580, 2.048688, 1.536180, 2.271119, 0.760685, -3.428081, -15.880035, -82.358093, -612.351624
1733468679.036425, 2.888155, 2.377442, 3.018340, 1.914745, 1.165801, -3.471372, -14.518890, -81.352798, -611.855103
1733468679.046429, 4.808305, 2.351256, 5.931784, 1.739282, 1.207751, -3.519515, -13.916840, -80.626541, -610.685059
1733468679.056428, 5.658546, 2.826205, 7.404667, 1.546404, 1.100104, -3.616757, -12.965714, -79.275284, -609.712830
1733468679.066420, 7.186645, 3.777751, 8.596231, 1.291715, 0.871404, -3.698592, -11.905304, -78.170288, -608.768311
1733468679.076435, 9.053225, 4.065205, 9.252392, 0.985228, 0.513644, -3.840499, -11.081345, -77.210419, -607.937927
1733468679.086459, 11.150695, 4.256292, 9.462783, 0.717429, 0.065308, -4.003110, -10.206726, -75.702896, -608.027954
1733468679.096438, 13.401544, 5.160402, 9.286510, 0.495455, -0.340567, -4.100377, -8.928772, -74.199066, -608.140137
1733468679.106435, 15.804724, 6.058677, 8.866926, 0.236439, -0.570000, -4.102100, -7.765564, -72.815689, -607.964844
1733468679.116424, 18.529475, 7.143550, 8.164078, -0.076647, -0.536981, -3.961158, -7.057510, -71.465836, -608.310303
1733468679.126432, 21.727679, 8.756044, 7.191284, -0.402466, -0.204988, -3.562319, -5.746490, -70.161636, -608.302002
1733468679.136421, 24.754848, 9.942820, 6.741773, -0.669493, 0.222937, -3.006752, -5.364517, -68.780151, -608.697571
1733468679.146433, 27.184963, 10.586262, 6.856245, -0.889455, 0.474159, -2.394939, -5.376526, -67.953705, -607.660767
1733468679.156434, 28.901605, 11.147104, 6.570138, -1.009183, 0.561232, -1.753781, -4.925888, -67.190430, -608.483704
1733468679.166428, 29.971365, 11.333253, 6.057779, -0.973124, 0.571924, -1.102801, -4.765717, -66.825577, -608.893555
1733468679.176168, 30.438384, 11.175684, 5.869834, -0.973124, 0.571924, -1.102801, -4.702087, -66.698288, -608.813293
1733468679.186419, 30.160357, 10.902446, 6.161927, -0.672856, 0.160838, 0.137459, -4.740463, -66.702682, -608.139343
1733468679.196441, 29.138482, 10.508001, 6.531831, -0.464170, -0.268415, 0.651310, -4.853668, -66.922531, -609.077026
1733468679.206424, 27.567586, 9.892542, 6.510732, -0.272799, -0.646963, 1.063273, -5.112976, -67.324112, -609.410278
1733468679.216422, 25.842414, 9.157971, 6.456713, -0.138670, -0.890059, 1.405011, -5.038132, -67.856262, -609.703430
1733468679.226429, 24.227974, 8.565855, 6.699874, -0.092423, -1.076240, 1.714850, -5.030182, -68.377106, -610.342773
1733468679.236424, 22.522854, 7.923311, 6.753893, -0.094798, -1.212457, 2.001025, -5.036133, -68.989349, -610.059448
1733468679.246435, 20.795138, 7.289596, 6.594679, -0.110324, -1.312834, 2.264100, -5.203888, -69.635971, -611.231323
1733468679.256418, 19.019688, 6.708852, 6.426935, -0.122842, -1.419437, 2.479378, -5.625626, -70.666122, -611.865662
1733468679.266191, 17.424102, 6.096835, 6.133945, -0.114488, -1.566372, 2.652453, -6.153427, -71.580200, -612.206055
1733468679.276423, 15.954212, 5.405060, 5.695506, -0.074109, -1.743467, 2.770736, -6.860092, -72.708755, -612.881104
1733468679.286421, 14.556297, 4.717475, 5.210531, 0.002293, -1.923396, 2.833700, -7.163101, -73.566467, -613.584595
1733468679.296421, 13.322386, 4.255993, 4.755034, 0.102849, -2.109471, 2.883087, -7.779175, -74.738708, -613.392944
1733468679.306421, 12.169727, 3.847183, 4.365228, 0.218299, -2.294486, 2.942342, -8.451767, -75.635910, -614.692200
1733468679.316439, 11.102661, 3.347244, 3.857059, 0.329180, -2.420552, 3.010789, -8.980194, -76.601105, -615.108093
1733468679.326422, 10.117896, 2.855534, 3.315969, 0.413111, -2.459640, 3.096130, -9.916626, -77.539383, -616.131531
1733468679.336418, 9.168446, 2.424578, 2.896086, 0.462562, -2.388764, 3.191685, -10.775314, -78.755630, -617.311768
1733468679.346430, 8.225429, 2.025046, 2.732383, 0.449456, -2.257550, 3.283626, -11.918686, -79.598816, -617.250183
1733468679.356424, 7.398382, 1.633294, 2.656816, 0.382219, -2.130938, 3.347821, -13.211960, -80.557053, -617.332275
1733468679.366419, 6.748955, 1.263390, 2.477699, 0.287241, -2.044299, 3.391298, -13.992828, -81.684052, -617.399414
1733468679.376431, 6.121824, 0.970998, 2.246958, 0.209977, -2.039179, 3.434424, -15.562698, -82.452148, -618.554688
1733468679.386420, 5.417330, 0.561141, 1.842937, 0.172768, -2.073030, 3.472426, -16.761765, -83.343796, -619.443848
1733468679.396425, 4.706103, -0.014814, 1.427243, 0.178256, -2.115922, 3.486723, -18.005600, -84.480347, -620.076233
1733468679.406415, 4.080169, -0.714220, 1.148469, 0.200997, -2.174081, 3.477160, -19.696060, -85.286194, -620.315369
1733468679.416416, 3.453486, -1.374721, 0.752378, 0.222405, -2.219542, 3.456847, -21.128586, -86.029648, -620.636902
1733468679.426416, 2.823213, -1.875408, 0.405817, 0.231667, -2.201414, 3.407916, -22.821152, -86.671112, -621.002319
1733468679.436415, 2.276287, -2.278382, 0.111181, 0.216920, -2.103283, 3.334618, -24.194717, -87.541107, -620.764648
1733468679.446427, 1.879897, -2.530372, -0.047734, 0.170668, -1.961832, 3.250420, -26.070419, -88.042206, -621.645752
1733468679.456477, 1.647360, -2.723404, -0.020051, 0.097613, -1.838808, 3.155945, -27.637558, -88.576141, -621.966003
1733468679.466415, 1.429488, -2.834136, 0.114323, 0.035135, -1.822214, 3.071438, -29.321350, -88.907104, -622.436218
1733468679.476419, 1.167473, -2.845958, 0.081552, 0.019169, -1.916787, 3.020197, -30.877792, -89.245728, -622.348267
1733468679.486423, 0.945111, -2.962675, -0.196025, 0.053414, -2.048855, 2.991056, -32.392349, -89.725327, -622.639038
1733468679.496415, 0.841263, -3.138349, -0.445172, 0.100485, -2.130611, 2.999123, -33.703674, -90.099274, -622.729980
1733468679.506415, 0.745644, -3.065775, -0.428562, 0.092974, -2.176299, 3.070437, -35.428207, -90.254105, -622.896118
1733468679.516418, 0.440683, -2.935441, -0.484527, 0.011105, -2.149157, 3.177508, -37.126831, -90.378586, -622.885498
1733468679.526415, 0.070479, -2.915838, -0.640898, -0.135463, -2.041324, 3.304182, -38.745392, -90.531784, -622.309143
1733468679.536490, -0.510863, -2.785354, -0.783652, -0.319573, -1.929365, 3.416926, -40.775055, -90.401962, -623.123169
1733468679.546420, -1.388936, -2.900126, -1.064372, -0.478297, -1.859555, 3.463312, -42.823929, -90.275177, -623.279419
1733468679.556412, -2.121861, -3.492542, -1.610998, -0.564633, -1.859632, 3.412768, -44.597778, -90.227875, -623.138794
1733468679.566420, -2.610278, -4.153491, -2.282273, -0.604377, -1.877063, 3.300091, -46.602371, -89.794128, -623.343872
1733468679.576420, -2.878878, -4.611532, -3.013552, -0.627116, -1.870892, 3.203656, -48.157730, -89.607666, -624.024353
1733468679.586418, -3.188029, -4.636072, -3.574543, -0.632493, -1.816522, 3.116710, -49.878662, -89.248199, -624.093262
1733468679.596419, -3.376423, -4.533421, -3.879355, -0.598564, -1.712897, 3.018847, -51.550110, -88.864853, -623.921631
1733468679.606409, -3.322853, -4.414908, -3.969437, -0.549566, -1.618834, 2.950618, -52.828629, -88.540329, -624.150757
1733468679.616453, -3.349338, -4.111293, -3.826383, -0.520290, -1.583723, 2.941166, -54.348495, -87.808884, -624.632263
1733468679.626410, -3.520075, -3.854515, -3.660734, -0.503121, -1.632521, 2.959943, -55.959000, -87.334839, -623.950623
1733468679.636415, -3.798551, -3.729867, -3.648464, -0.465230, -1.769622, 2.976243, -57.125763, -86.819656, -624.063477
1733468679.646414, -4.047099, -3.780145, -3.818452, -0.402774, -1.921072, 3.011106, -58.749878, -86.171600, -623.733582
1733468679.656424, -4.289512, -3.941903, -4.172196, -0.352951, -2.002751, 3.061519, -60.142883, -85.377365, -623.633423
1733468679.666414, -4.540005, -4.184616, -4.570232, -0.338722, -1.978617, 3.115666, -61.662125, -84.307480, -623.356995
1733468679.676405, -4.880281, -4.403386, -4.751742, -0.388040, -1.865415, 3.165240, -62.989792, -83.634750, -623.335938
1733468679.686469, -5.531204, -4.138976, -4.701314, -0.514312, -1.728928, 3.232070, -64.254822, -82.665466, -622.698242
1733468679.696411, -6.681020, -3.682881, -4.927267, -0.648058, -1.611477, 3.320631, -65.563522, -81.572525, -622.473511
1733468679.706412, -8.017134, -3.951331, -5.701043, -0.750164, -1.465084, 3.376171, -67.085663, -80.268417, -622.249878
1733468679.716453, -9.373299, -4.397999, -6.790704, -0.824819, -1.284647, 3.388338, -67.765976, -79.203049, -622.434753
1733468679.726409, -10.505607, -4.779874, -8.232612, -0.829704, -1.040640, 3.408178, -69.030640, -77.953415, -621.807617
1733468679.736407, -11.612177, -5.279664, -9.537452, -0.787213, -0.790252, 3.425681, -70.213684, -76.656204, -622.455017
1733468679.746461, -13.252505, -5.729923, -10.424354, -0.704270, -0.625681, 3.385529, -71.476257, -75.403748, -622.002502
1733468679.756405, -15.408633, -6.288221, -11.176882, -0.544496, -0.540939, 3.234023, -72.195496, -74.164597, -622.005432
1733468679.766405, -17.858350, -7.224803, -11.680562, -0.319702, -0.563108, 2.906161, -73.056412, -72.961761, -621.981323
1733468679.776405, -20.215591, -8.258350, -11.952753, -0.077443, -0.631325, 2.385522, -73.731567, -71.972290, -621.706482
1733468679.785883, -21.851579, -8.820239, -12.222848, 0.129185, -0.709040, 1.774791, -73.816254, -71.217010, -621.234680
1733468679.796433, -22.679375, -9.136423, -12.729821, 0.313862, -0.712646, 1.193777, -74.102585, -71.021179, -620.853271
1733468679.806413, -22.952463, -9.537901, -13.344382, 0.485967, -0.611611, 0.669781, -74.284042, -70.506973, -620.485352
1733468679.816427, -22.984186, -9.851691, -13.790751, 0.650940, -0.419266, 0.198767, -73.999298, -70.773621, -620.050354
1733468679.826423, -22.752098, -10.106973, -14.008175, 0.809009, -0.128438, -0.239908, -74.094589, -71.027420, -619.264282
1733468679.836418, -22.177939, -10.026168, -13.657274, 0.953694, 0.177520, -0.637312, -73.991486, -71.278458, -619.334961
1733468679.846426, -21.387403, -9.655067, -12.907141, 1.080053, 0.443870, -0.986718, -73.693329, -71.810913, -619.095642
1733468679.856416, -20.483143, -9.344270, -12.034604, 1.199929, 0.670267, -1.297856, -73.330261, -72.378510, -619.661743
1733468679.866406, -19.531299, -9.046491, -11.006444, 1.313457, 0.846705, -1.595313, -72.945374, -73.094193, -619.557373
1733468679.876404, -18.455404, -8.761132, -9.922320, 1.416869, 0.974239, -1.883688, -72.537872, -74.054749, -619.478821
1733468679.886414, -17.268030, -8.356362, -8.861389, 1.500895, 1.071050, -2.149667, -71.720444, -75.085052, -619.667969
1733468679.896405, -16.031574, -7.798214, -7.845948, 1.555148, 1.162148, -2.374530, -71.204025, -75.884811, -619.108521
1733468679.906402, -14.858565, -7.082049, -6.727557, 1.559173, 1.247467, -2.551569, -70.341690, -76.907318, -619.263062
1733468679.916401, -13.730148, -6.565200, -5.734562, 1.531802, 1.321652, -2.700717, -69.293655, -78.014969, -618.891602
1733468679.926403, -12.606070, -6.250063, -5.060893, 1.497210, 1.414507, -2.821532, -68.370224, -79.280838, -618.602295
1733468679.936400, -11.554866, -6.054786, -4.586841, 1.459500, 1.593160, -2.903163, -67.115540, -80.256912, -618.966187
1733468679.946402, -10.644621, -5.988347, -4.033781, 1.411772, 1.834718, -2.958786, -65.795685, -81.327591, -619.172668
1733468679.956395, -9.711780, -5.961412, -3.302352, 1.366639, 2.081158, -3.012966, -64.622543, -82.265457, -619.105713
1733468679.965935, -8.840889, -5.749825, -2.304120, 1.317356, 2.236678, -3.065414, -64.622543, -82.265457, -619.105713
1733468679.976414, -8.099285, -5.462371, -1.373673, 1.284638, 2.294410, -3.129549, -63.476334, -83.164871, -619.112427
1733468679.986446, -7.376835, -5.253627, -0.571017, 1.267869, 2.263461, -3.208333, -62.305939, -84.418259, -619.043335
1733468679.996404, -6.671144, -4.860529, 0.061351, 1.248616, 2.158028, -3.292554, -60.887894, -85.145050, -619.203857
1733468680.006410, -5.990143, -4.400692, 0.405668, 1.224638, 2.013058, -3.370035, -59.438766, -85.997711, -619.084961
1733468680.016397, -5.389348, -4.072836, 0.418686, 1.195601, 1.923886, -3.444768, -57.549805, -86.864380, -618.650146
1733468680.026458, -4.647445, -4.254496, 0.144700, 1.172193, 1.963238, -3.529178, -56.055893, -87.807938, -618.509033
1733468680.036402, -3.843591, -4.226215, 0.235380, 1.145426, 2.017063, -3.589749, -54.522614, -88.110474, -618.210266
1733468680.046412, -3.175759, -3.947141, 0.407164, 1.126303, 2.082784, -3.637105, -52.497025, -88.775177, -618.260437
1733468680.056471, -2.511817, -3.526809, 0.527024, 1.125620, 2.186727, -3.664973, -50.653854, -89.425186, -617.903198
1733468680.066422, -1.993023, -2.907010, 1.009306, 1.119807, 2.259677, -3.684184, -48.912598, -89.836731, -617.586792
1733468680.076406, -1.463605, -2.445527, 1.701978, 1.073101, 2.250293, -3.721463, -47.398071, -90.067719, -617.165283
1733468680.086410, -0.950049, -2.047791, 2.221370, 0.994736, 2.134465, -3.768065, -45.391708, -90.501526, -616.715820
1733468680.095562, -0.417938, -1.635838, 2.383877, 0.916364, 1.969694, -3.819649, -43.625870, -90.621109, -616.262390
1733468680.106413, 0.131382, -1.467197, 2.147449, 0.855098, 1.804184, -3.885897, -41.737350, -90.812912, -615.439148
1733468680.116407, 0.694318, -1.533785, 1.638232, 0.835565, 1.666305, -3.985594, -39.869171, -90.811401, -615.348816
1733468680.126400, 1.360056, -1.518223, 1.019780, 0.888222, 1.549072, -4.104321, -37.767273, -90.667007, -614.882568
1733468680.136393, 2.066645, -1.123629, 0.600795, 1.006148, 1.439548, -4.204709, -35.942001, -90.657043, -614.833557
1733468680.146410, 2.780416, -0.621295, 0.400580, 1.134259, 1.362630, -4.267847, -33.806183, -90.218781, -613.639221
1733468680.156406, 3.598036, -0.143652, 0.345214, 1.221771, 1.356023, -4.265773, -31.425323, -90.071548, -613.317017
1733468680.166416, 4.353257, 0.282217, 0.487968, 1.270576, 1.423820, -4.194947, -29.264923, -89.408920, -612.449646
1733468680.176408, 5.137508, 0.530316, 0.953940, 1.255872, 1.560392, -4.072490, -27.456589, -88.840469, -611.307007
1733468680.186413, 5.989544, 0.528670, 1.384447, 1.208700, 1.742753, -3.944350, -26.078751, -88.289841, -610.704651
1733468680.196404, 7.076811, 0.744447, 1.815254, 1.183482, 1.962961, -3.801224, -24.624725, -87.595551, -609.467773
1733468680.206418, 8.458116, 1.459416, 2.660557, 1.151895, 2.084827, -3.566647, -23.228012, -86.837982, -608.939819
1733468680.216414, 9.783755, 1.872116, 3.652804, 1.089587, 2.094691, -3.275638, -22.227158, -86.026978, -607.864502
1733468680.226414, 10.823438, 1.762881, 4.578013, 0.993214, 2.012660, -2.992644, -21.212326, -85.524719, -607.386353
1733468680.236413, 11.436054, 1.815254, 5.293879, 0.834596, 1.894538, -2.700699, -20.302765, -84.742249, -606.422058
1733468680.246410, 11.538556, 1.560271, 5.455637, 0.608704, 1.876988, -2.480768, -19.821762, -84.022537, -605.857727
1733468680.256419, 11.738920, 0.789488, 5.009717, 0.368879, 2.023758, -2.351144, -18.998840, -83.425629, -605.237244
1733468680.266421, 12.450746, 0.689380, 4.873996, 0.184919, 2.192591, -2.186378, -18.656479, -82.902985, -605.036743
1733468680.276406, 13.315951, 0.781856, 5.255722, 0.075897, 2.255409, -2.029655, -18.424042, -82.326782, -604.476746
1733468680.286406, 14.281563, 0.912789, 5.731270, 0.055794, 2.089705, -1.852512, -18.168304, -82.134018, -604.510132
1733468680.296396, 14.961516, 0.719907, 5.836764, 0.138839, 1.813093, -1.708012, -18.238708, -81.942413, -603.928528
1733468680.306414, 15.447838, 0.086042, 6.126912, 0.255754, 1.519352, -1.716781, -18.707565, -81.338211, -603.716187
1733468680.316408, 16.297480, -0.097713, 7.037457, 0.300141, 1.138893, -1.841108, -18.180481, -80.910019, -603.242676
1733468680.326395, 17.550546, 0.231040, 8.167819, 0.279522, 0.640380, -1.972529, -17.773376, -80.392944, -601.933350
1733468680.336401, 19.036597, 0.538695, 8.376713, 0.222701, 0.235416, -2.038999, -17.002853, -79.809753, -602.329651
1733468680.346412, 20.555718, 1.186626, 8.297854, 0.141515, -0.004415, -1.983193, -16.080322, -79.168243, -602.537354
1733468680.356403, 22.088456, 1.892317, 8.333468, 0.036640, -0.117384, -1.799653, -15.560608, -78.600433, -602.570923
1733468680.366404, 23.654263, 2.610129, 8.331822, -0.054822, -0.214220, -1.456632, -14.830765, -78.271896, -602.550415
1733468680.376410, 24.774600, 3.317316, 8.314165, -0.101846, -0.346787, -0.978132, -14.579483, -78.045685, -602.954407
1733468680.386392, 25.115325, 3.603273, 8.151209, -0.124882, -0.468603, -0.454177, -14.259247, -77.934341, -602.638428
1733468680.396395, 24.715493, 3.288286, 8.085518, -0.140283, -0.600469, 0.024493, -14.147018, -77.949844, -603.055176
1733468680.406393, 23.932889, 2.895787, 7.896825, -0.171944, -0.712856, 0.444630, -14.070236, -77.783905, -603.142395
1733468680.416406, 22.879290, 2.550423, 7.529166, -0.205384, -0.780150, 0.802812, -14.144730, -78.127686, -603.128601
1733468680.426405, 21.757308, 2.326266, 7.407959, -0.227394, -0.863950, 1.103693, -14.226257, -78.498795, -603.251404
1733468680.436406, 20.508432, 2.083704, 7.424719, -0.246910, -1.031065, 1.350407, -14.310226, -78.741699, -604.383179
1733468680.446394, 19.106029, 1.767819, 7.199364, -0.250348, -1.239251, 1.544796, -14.715942, -79.334045, -604.801514
1733468680.456397, 17.770064, 1.577779, 6.923882, -0.219248, -1.479742, 1.718103, -14.667267, -79.696274, -605.055054
1733468680.466388, 16.380230, 1.416918, 6.740875, -0.168775, -1.756789, 1.871814, -15.077530, -80.365326, -605.878967
1733468680.476407, 14.896124, 1.111957, 6.426187, -0.111781, -2.027794, 1.990622, -15.363647, -80.969360, -606.410706
1733468680.486417, 13.463344, 0.787094, 6.108656, -0.065250, -2.273149, 2.075297, -15.674164, -81.623215, -607.148804
1733468680.496448, 12.305748, 0.586280, 5.588067, -0.047555, -2.437868, 2.154458, -15.826035, -81.973724, -607.532043
1733468680.506387, 11.302128, 0.404620, 5.028871, -0.062287, -2.523273, 2.248422, -16.117325, -82.529678, -607.487122
1733468680.516396, 10.349236, 0.270694, 4.484040, -0.102460, -2.547975, 2.344053, -16.719299, -83.177139, -608.091675
1733468680.526391, 9.515006, 0.198419, 3.960458, -0.160218, -2.549055, 2.447925, -17.368652, -83.796600, -608.362671
1733468680.536436, 8.730157, 0.132878, 3.409343, -0.210433, -2.550887, 2.564491, -18.174408, -84.416611, -609.402100
1733468680.546404, 7.915530, 0.048333, 2.814683, -0.246701, -2.544432, 2.667253, -18.935501, -84.935577, -610.041687
1733468680.556384, 7.141455, -0.132280, 2.265214, -0.267973, -2.550241, 2.755744, -19.624313, -85.699081, -610.735779
1733468680.566413, 6.366930, -0.364068, 1.693000, -0.240447, -2.568451, 2.840714, -20.721329, -86.376526, -611.452515
1733468680.576399, 5.520281, -0.650175, 1.152958, -0.162744, -2.596433, 2.898339, -21.835022, -86.921631, -612.316956
1733468680.586395, 4.792144, -1.111358, 0.713921, -0.048384, -2.640713, 2.916153, -22.821045, -87.544678, -612.739319
1733468680.596388, 4.201525, -1.567604, 0.410905, 0.081099, -2.676591, 2.910347, -24.227783, -88.257599, -613.155090
1733468680.606438, 3.776105, -1.742081, 0.323516, 0.174860, -2.675533, 2.900900, -25.153763, -88.499115, -613.381836
1733468680.616383, 3.418471, -1.820042, 0.358083, 0.217906, -2.689488, 2.895111, -26.648895, -88.970612, -613.384033
1733468680.626385, 3.174262, -1.961749, 0.200365, 0.250003, -2.675483, 2.906955, -27.913345, -89.559052, -613.162231
1733468680.636426, 2.967463, -2.004396, 0.003292, 0.278653, -2.599493, 2.955900, -29.282410, -89.661011, -613.786987
1733468680.646395, 2.784008, -2.156128, -0.045340, 0.294666, -2.494016, 3.006195, -30.764282, -90.027710, -614.175537
1733468680.656381, 2.543540, -2.292298, 0.013467, 0.295283, -2.404171, 3.057848, -32.015945, -90.397354, -614.160767
1733468680.666396, 2.344821, -2.342876, 0.168193, 0.283087, -2.322149, 3.128244, -33.671738, -90.635941, -614.323486
1733468680.676392, 2.041955, -2.329708, 0.379032, 0.237796, -2.245020, 3.230770, -34.954010, -90.830856, -613.873657
1733468680.686386, 1.650503, -2.375048, 0.399383, 0.150696, -2.142174, 3.347600, -36.602737, -90.968338, -614.359497
1733468680.696402, 1.328034, -2.614019, 0.315286, 0.015881, -1.987592, 3.465569, -38.458069, -91.032303, -614.311340
1733468680.706427, 1.023671, -2.661903, 0.296282, -0.156318, -1.829628, 3.610445, -40.117416, -90.936996, -614.241760
1733468680.716397, 0.522535, -2.657265, 0.260519, -0.341570, -1.690166, 3.767304, -42.102783, -90.806396, -614.447266
1733468680.726384, -0.277578, -2.969259, 0.110433, -0.501686, -1.621151, 3.864721, -44.118958, -90.739883, -614.379700
1733468680.736380, -1.160290, -3.261800, -0.304363, -0.611430, -1.615019, 3.904846, -46.075256, -90.522476, -615.359802
1733468680.746398, -1.941847, -3.490147, -0.797718, -0.651664, -1.625338, 3.912824, -47.825089, -90.197403, -615.433594
1733468680.756398, -2.800767, -3.827431, -1.261894, -0.687123, -1.584868, 3.891747, -49.622559, -89.805939, -615.907227
1733468680.766392, -3.564667, -3.868431, -1.694496, -0.766218, -1.460394, 3.888638, -51.455917, -89.043518, -615.591248
1733468680.776395, -4.143316, -3.810970, -2.027141, -0.892411, -1.321789, 3.919656, -53.498947, -88.407013, -616.067810
1733468680.786390, -5.325004, -3.826682, -2.549376, -1.029170, -1.186184, 3.894041, -55.232559, -87.747726, -616.337097
1733468680.796440, -6.517167, -3.963900, -3.561974, -1.139335, -0.961533, 3.787663, -56.972076, -86.929260, -616.863770
1733468680.806399, -7.405116, -3.946991, -4.482993, -1.177566, -0.754843, 3.652304, -58.727341, -86.171143, -616.570435
1733468680.816399, -8.218546, -4.129549, -5.094113, -1.150708, -0.656485, 3.499848, -59.966919, -85.412857, -617.447021
1733468680.826400, -9.162610, -4.405032, -5.491251, -1.085846, -0.681554, 3.329351, -61.616013, -84.759079, -617.202881
1733468680.836392, -10.002825, -4.969315, -6.296451, -0.944683, -0.766980, 3.112898, -62.642990, -83.650879, -617.916199
1733468680.846202, -10.667814, -5.577442, -7.300519, -0.753673, -0.812655, 2.883250, -63.733826, -83.011215, -617.834473
1733468680.856383, -11.296741, -6.540959, -8.344541, -0.524026, -0.821420, 2.623455, -64.954147, -82.186661, -617.462036
1733468680.866387, -12.251429, -7.342867, -8.941146, -0.229648, -0.933562, 2.334952, -65.749161, -81.460922, -617.605103
1733468680.876428, -13.460501, -7.911340, -9.328109, 0.130658, -1.113180, 1.990982, -66.078720, -80.841125, -617.235962
1733468680.886382, -14.295030, -8.405294, -9.494057, 0.500789, -1.236651, 1.676202, -66.396622, -80.145920, -616.585144
1733468680.896376, -14.940567, -8.977358, -8.826524, 0.744983, -1.299075, 1.425132, -66.829651, -79.630890, -615.430115
1733468680.906382, -15.379154, -9.663896, -7.918672, 0.766845, -1.281333, 1.266793, -67.082062, -78.994431, -615.135193
1733468680.916387, -15.747113, -10.334272, -7.602638, 0.604490, -1.122688, 1.180006, -67.072510, -78.821396, -614.748962
1733468680.926394, -16.080805, -10.951827, -8.031050, 0.396507, -0.813424, 1.164421, -67.421234, -78.462799, -613.880432
1733468680.936400, -16.470910, -11.523143, -8.651597, 0.228538, -0.423945, 1.187783, -68.011322, -77.945770, -613.850708
1733468680.946389, -17.045668, -12.199804, -8.882039, 0.078955, -0.077806, 1.170884, -68.462830, -77.514908, -613.762939
1733468680.956449, -17.705570, -12.791920, -9.208848, -0.011852, 0.204928, 1.089529, -68.899734, -77.349625, -613.959106
1733468680.966378, -18.319982, -13.223325, -9.515156, -0.021149, 0.427398, 0.917154, -69.120880, -76.936234, -614.209656
1733468680.976376, -18.756475, -13.517513, -9.495703, 0.021385, 0.559725, 0.659926, -69.307159, -76.886139, -614.298889
1733468680.986173, -19.161544, -13.659818, -9.306860, 0.105207, 0.639720, 0.317481, -69.721313, -76.939102, -614.807007
1733468680.996383, -19.314474, -13.893103, -9.143606, 0.209683, 0.732501, -0.100368, -69.859863, -76.996246, -615.179749
1733468681.006383, -19.035699, -13.828610, -8.913463, 0.313943, 0.861191, -0.557613, -69.632996, -77.217255, -615.045593
1733468681.016376, -18.352454, -13.411869, -8.528595, 0.423654, 1.026720, -1.002997, -69.335983, -77.689621, -615.447083
1733468681.026375, -17.314717, -12.904897, -7.830386, 0.527980, 1.193776, -1.422598, -68.889038, -78.479034, -614.780212
1733468681.036383, -16.011373, -12.164789, -6.830059, 0.608853, 1.297476, -1.794784, -68.114319, -79.138443, -615.871216
1733468681.045544, -14.640543, -11.279383, -5.853973, 0.663325, 1.369999, -2.102459, -67.370026, -79.965302, -615.723267
1733468681.056369, -13.287670, -10.499622, -5.119851, 0.693641, 1.453460, -2.344956, -66.610992, -80.794296, -615.669250
1733468681.066399, -11.935544, -9.849297, -4.416704, 0.696436, 1.543642, -2.526869, -65.501083, -81.631989, -616.442017
1733468681.076379, -10.613646, -9.258827, -3.697096, 0.690098, 1.597847, -2.666614, -64.409714, -82.494919, -616.801453
1733468681.086421, -9.457246, -8.653393, -3.047370, 0.676946, 1.597138, -2.770320, -63.346954, -83.311310, -617.017151
1733468681.096384, -8.492533, -7.903709, -2.617311, 0.662618, 1.584746, -2.833890, -62.302963, -84.252853, -616.984314
1733468681.106380, -7.567024, -7.331345, -2.396446, 0.647799, 1.582993, -2.873217, -60.891953, -85.069580, -616.988342
1733468681.116379, -6.712743, -6.948572, -2.237980, 0.634282, 1.572587, -2.898803, -59.595688, -85.816360, -617.144348
1733468681.126374, -5.872827, -6.647950, -2.101062, 0.629138, 1.580970, -2.905128, -58.186234, -86.537033, -616.297363
1733468681.136374, -5.388749, -6.305729, -1.975216, 0.615524, 1.666944, -2.905207, -56.881058, -87.046188, -616.740723
1733468681.146397, -5.075708, -5.984307, -1.788768, 0.574633, 1.835618, -2.913452, -55.751175, -87.533661, -617.237122
1733468681.156390, -4.695927, -5.715109, -1.384597, 0.510862, 1.976450, -2.946462, -54.204712, -88.301605, -617.169495
1733468681.166390, -4.293252, -5.297919, -0.991648, 0.448763, 2.031698, -2.997514, -52.960770, -88.690872, -617.446167
1733468681.176375, -3.807529, -4.845715, -0.864606, 0.425421, 2.036735, -3.056035, -51.476974, -89.423264, -617.476624
1733468681.186368, -3.266290, -4.563797, -0.898424, 0.445340, 2.008825, -3.117743, -50.004578, -89.751511, -617.411621
1733468681.196374, -2.636465, -4.328866, -1.005714, 0.492242, 1.955089, -3.173412, -48.415115, -90.009781, -617.590576
1733468681.206373, -2.083105, -3.998616, -1.164031, 0.571601, 1.882368, -3.220830, -46.677933, -90.340485, -617.066528
1733468681.216371, -1.641973, -3.586065, -1.322497, 0.680022, 1.836259, -3.264009, -45.024200, -90.594345, -617.113403
1733468681.226368, -1.123479, -3.161693, -1.368586, 0.791577, 1.830740, -3.294047, -43.205826, -90.971390, -616.067871
1733468681.236367, -0.756418, -2.813486, -1.091457, 0.892576, 1.804753, -3.339468, -41.691650, -90.876953, -616.337280
1733468681.246372, -0.352696, -2.401534, -0.667833, 0.961022, 1.768919, -3.380077, -39.995529, -91.001175, -615.907837
1733468681.256372, 0.136320, -2.118420, -0.307505, 0.985692, 1.740333, -3.425531, -38.253448, -90.952133, -615.259521
1733468681.266374, 0.727239, -1.846079, -0.067038, 0.985853, 1.735797, -3.465411, -36.461609, -90.742508, -614.574829
1733468681.276390, 1.530194, -1.371878, 0.050428, 0.966809, 1.779049, -3.456528, -34.891525, -90.618576, -614.001099
1733468681.286384, 2.350657, -0.888249, 0.196175, 0.924032, 1.839922, -3.408752, -33.759201, -90.271576, -613.598999
1733468681.296371, 3.073407, -0.520440, 0.360327, 0.883300, 1.860972, -3.351420, -32.126007, -90.056030, -613.280884
1733468681.306375, 3.747674, -0.183306, 0.463128, 0.878284, 1.785509, -3.281638, -30.722351, -89.858475, -612.481445
1733468681.316375, 4.375852, 0.113725, 0.550816, 0.911500, 1.653224, -3.221464, -29.313034, -89.160065, -611.767822
1733468681.326381, 4.928464, 0.386664, 0.718560, 0.937903, 1.511401, -3.160977, -27.869263, -88.850677, -610.362793
1733468681.336378, 5.446061, 0.433650, 0.926257, 0.897906, 1.419392, -3.115094, -27.019363, -88.389206, -610.152283
1733468681.346379, 5.966051, 0.305560, 0.828992, 0.785884, 1.430492, -3.091725, -25.573868, -87.826492, -609.468384
1733468681.356384, 6.677578, 0.077363, 0.119860, 0.706240, 1.636036, -3.060277, -24.502167, -87.263107, -608.973633
1733468681.366387, 7.589619, 0.275483, -0.219369, 0.717000, 1.943749, -2.966793, -23.582794, -86.513779, -608.519043
1733468681.376379, 8.832958, 0.476596, 0.168342, 0.780820, 2.186421, -2.857358, -22.863892, -86.094650, -607.808105
1733468681.386402, 10.333225, 0.396540, 1.077840, 0.916099, 2.196299, -2.732759, -22.055023, -85.372055, -606.513428
1733468681.396372, 11.713033, 0.848744, 2.398691, 1.091952, 1.947838, -2.539981, -21.506821, -85.012573, -606.054749
1733468681.406374, 12.765285, 1.083676, 3.690811, 1.193001, 1.628542, -2.319116, -20.866928, -84.227753, -605.058594
1733468681.416375, 13.497013, 0.661997, 4.570381, 1.192129, 1.374690, -2.130618, -20.546448, -83.737442, -604.427246
1733468681.426365, 14.048128, 0.302867, 5.153818, 1.124761, 1.238115, -1.967182, -20.197205, -83.405731, -603.128906
1733468681.436388, 14.532206, 0.092326, 5.556194, 0.972628, 1.264705, -1.818868, -20.197205, -83.405731, -603.128906
1733468681.446381, 15.219940, -0.502184, 5.882553, 0.744161, 1.452761, -1.743244, -20.045425, -82.722076, -603.242676
1733468681.456381, 16.380230, -0.796072, 6.697480, 0.509051, 1.572321, -1.701575, -19.868805, -82.249313, -602.400452
1733468681.466429, 17.639281, -0.752528, 7.538892, 0.343796, 1.503281, -1.642667, -19.667862, -81.973877, -602.541199
1733468681.476385, 18.688390, -0.826748, 8.212860, 0.240140, 1.264457, -1.604113, -19.609772, -81.691345, -602.327637
1733468681.486381, 19.908385, -0.620846, 8.892514, 0.191955, 0.842251, -1.565283, -19.126572, -81.474091, -602.521179
1733468681.496417, 21.213225, -0.257526, 9.549573, 0.207855, 0.222754, -1.467305, -18.543747, -81.013260, -602.341248
1733468681.506534, 23.072323, 0.691924, 9.072528, 0.220921, -0.402019, -1.255018, -17.706604, -80.420105, -601.823364
1733468681.516490, 23.202508, 0.902464, 8.173954, 0.174477, -0.775072, -0.916526, -17.275482, -80.251068, -602.066406
1733468681.526510, 23.041647, 0.957531, 7.625383, -0.093881, -0.706174, -0.054127, -16.840622, -80.108841, -602.381470
1733468681.536450, 23.041647, 0.957531, 7.625383, -0.093881, -0.706174, -0.054127, -16.806351, -80.058014, -602.071899
1733468681.546435, 21.742493, 0.837522, 6.999000, -0.220922, -0.596011, 0.386764, -16.667938, -80.215485, -602.635437
1733468681.556365, 20.630536, 0.604386, 6.830059, -0.307150, -0.551987, 0.798969, -16.686844, -80.284546, -602.934875
1733468681.566389, 19.288287, 0.306757, 6.750152, -0.373109, -0.551686, 1.168282, -16.925369, -80.828995, -603.611206
1733468681.576372, 17.888427, -0.106841, 6.556372, -0.519168, -0.715668, 1.695573, -17.663864, -81.323395, -604.115540
1733468681.586371, 16.463279, -0.446968, 6.196344, -0.559353, -0.834140, 1.869510, -18.024033, -81.751938, -604.092651
1733468681.596379, 15.087211, -0.782305, 5.777807, -0.571231, -0.967550, 1.979369, -18.279602, -82.248276, -604.326782
1733468681.606373, 13.829507, -1.078887, 5.593304, -0.565245, -1.163489, 2.040827, -18.754974, -82.740784, -604.806030
1733468681.616375, 12.629713, -1.201590, 5.338022, -0.531296, -1.420366, 2.074138, -19.161362, -83.261353, -605.233887
1733468681.626365, 11.481843, -1.392079, 4.872500, -0.473456, -1.663662, 2.095825, -19.924133, -83.848511, -605.677307
1733468681.636364, 10.354174, -1.584812, 4.442890, -0.415946, -1.869818, 2.098136, -20.336411, -84.139801, -606.503418
1733468681.646367, 9.291148, -1.846827, 3.992331, -0.379999, -2.018830, 2.080633, -20.953384, -84.811844, -606.780151
1733468681.656365, 8.572439, -2.046294, 3.456778, -0.383924, -2.068704, 2.073700, -21.309341, -85.333786, -607.364197
1733468681.666363, 8.010550, -2.033126, 3.101239, -0.418704, -2.059747, 2.096680, -21.544998, -85.696564, -608.032410
1733468681.676365, 7.362769, -2.059762, 2.809446, -0.471745, -2.051091, 2.134997, -22.527145, -86.353546, -608.270447
1733468681.686361, 6.796989, -2.112584, 2.422034, -0.529315, -2.019140, 2.182443, -23.175003, -86.705566, -609.217896
1733468681.696365, 6.131401, -2.198775, 2.004096, -0.576351, -1.995593, 2.218740, -23.688110, -87.150482, -609.597656
1733468681.706360, 5.460575, -2.338985, 1.529147, -0.587566, -1.993268, 2.227098, -24.494843, -87.637573, -610.445312
1733468681.716358, 4.913800, -2.357241, 1.154304, -0.581740, -1.978888, 2.213386, -25.131195, -88.085114, -611.174316
1733468681.726358, 4.482993, -2.259827, 0.869544, -0.590069, -1.986228, 2.181263, -26.416046, -88.561218, -611.686646
1733468681.736367, 4.100669, -2.151041, 0.620398, -0.620099, -2.041814, 2.155493, -27.001007, -88.868576, -612.099670
1733468681.746372, 3.897910, -2.134580, 0.060005, -0.646688, -2.076826, 2.150838, -27.798462, -89.269333, -612.686401
1733468681.756361, 3.833416, -2.332701, -0.858022, -0.636833, -2.013589, 2.183826, -28.422684, -89.630753, -613.261353
1733468681.766355, 3.752163, -2.474707, -1.674146, -0.567586, -1.850452, 2.268717, -29.777466, -89.731995, -613.183838
1733468681.776357, 3.522918, -2.454805, -2.029535, -0.481563, -1.645574, 2.374006, -30.723419, -90.163925, -613.806763
1733468681.786355, 3.160197, -2.402731, -1.930924, -0.420076, -1.503446, 2.456195, -31.793915, -90.261826, -614.521851
1733468681.796357, 2.812588, -2.487426, -1.553238, -0.402209, -1.516125, 2.499623, -33.339722, -90.602219, -614.688538
1733468681.806354, 2.517653, -2.548628, -1.345092, -0.388444, -1.671203, 2.534382, -34.450989, -90.912811, -615.010864
1733468681.816376, 2.262221, -2.740463, -1.608305, -0.335159, -1.864558, 2.563922, -35.770142, -90.962341, -615.526489
1733468681.826362, 1.975965, -3.041235, -1.996615, -0.245182, -2.047856, 2.590199, -36.989822, -91.313141, -615.038940
1733468681.836368, 1.673248, -3.229179, -2.192789, -0.136478, -2.220751, 2.636170, -38.186646, -91.300171, -616.056152
1733468681.846362, 1.262343, -3.422511, -2.312500, -0.037618, -2.355738, 2.679635, -39.566727, -91.182663, -615.947632
1733468681.856357, 0.916830, -3.759046, -2.568230, 0.047660, -2.423159, 2.715120, -40.739182, -91.122269, -616.109802
1733468681.866357, 0.663792, -3.943250, -2.899677, 0.113694, -2.401341, 2.798277, -41.989136, -91.109879, -615.815552
1733468681.876356, 0.366612, -3.939659, -3.055301, 0.175715, -2.305611, 2.940564, -43.572922, -90.841080, -615.381714
1733468681.886355, 0.098462, -3.908833, -3.095403, 0.216575, -2.152685, 3.107298, -44.935455, -90.767410, -615.261841
1733468681.896355, -0.279373, -3.819350, -2.894590, 0.223110, -2.003786, 3.309743, -46.457687, -90.499008, -615.149841
1733468681.906373, -0.850839, -3.591602, -2.487426, 0.187383, -1.861444, 3.543972, -47.989365, -89.991852, -614.648682
1733468681.916374, -1.626261, -3.537882, -1.961150, 0.098565, -1.720235, 3.778877, -49.650543, -89.675308, -614.353271
1733468681.926368, -2.495057, -3.690811, -1.546654, -0.060545, -1.609130, 3.970326, -51.791168, -89.114243, -613.655334
1733468681.936359, -3.443161, -3.920655, -1.342848, -0.273313, -1.558215, 4.121568, -53.585968, -88.304932, -614.303772
1733468681.946370, -4.576816, -4.174740, -1.694945, -0.467974, -1.527300, 4.245643, -55.144943, -87.648392, -613.929077
1733468681.956363, -5.816863, -4.523096, -2.561347, -0.611690, -1.417319, 4.338889, -57.047455, -86.601974, -613.886047
1733468681.966362, -7.144896, -4.928614, -3.567809, -0.703006, -1.217711, 4.401923, -59.258759, -85.719391, -614.058472
1733468681.976353, -8.474576, -5.332336, -4.416554, -0.784718, -0.898070, 4.444269, -60.824539, -84.562515, -614.096069
1733468681.986389, -9.788693, -5.884948, -4.883274, -0.928765, -0.512021, 4.452920, -62.539871, -83.362198, -614.215271
1733468681.995392, -11.355549, -6.390573, -4.901380, -1.152019, -0.285237, 4.378759, -64.491989, -82.366409, -614.815247
1733468682.006355, -13.433866, -7.020248, -5.391443, -1.311720, -0.270520, 4.175523, -66.175842, -80.840286, -615.212952
1733468682.016350, -15.349975, -7.985860, -6.733543, -1.308475, -0.322533, 3.863983, -67.524948, -79.746216, -615.654968
1733468682.026357, -16.900670, -9.056367, -8.143578, -1.176369, -0.414862, 3.476094, -68.764099, -78.340317, -614.975830
1733468682.036357, -18.198327, -9.775675, -9.529521, -0.985967, -0.440332, 3.082580, -69.419510, -77.268692, -616.382568
1733468682.046361, -19.534890, -10.286687, -10.632650, -0.800454, -0.316017, 2.695693, -70.320465, -76.304474, -616.327759
1733468682.056348, -21.160852, -11.031883, -10.895862, -0.654774, -0.197845, 2.230748, -71.007446, -75.340881, -616.630981
1733468682.066366, -22.705112, -11.856685, -11.009437, -0.527309, -0.191820, 1.640971, -71.919907, -74.603043, -616.556396
1733468682.076368, -23.723246, -12.725481, -11.641506, -0.334616, -0.219664, 0.943080, -72.570282, -74.176102, -616.501709
1733468682.086369, -23.957130, -13.283480, -12.465561, -0.048683, -0.205329, 0.219561, -72.142090, -74.026321, -616.880127
1733468682.096360, -23.502082, -13.197887, -12.720543, 0.287814, -0.132865, -0.447982, -72.513977, -74.294235, -616.613892
1733468682.106366, -22.568343, -12.687024, -12.198757, 0.572478, -0.080792, -1.026656, -71.932449, -74.538193, -616.021851
1733468682.116360, -21.407605, -11.915792, -11.445780, 0.773623, -0.022402, -1.490644, -71.465500, -75.061737, -615.785767
1733468682.126351, -20.234595, -11.418247, -10.895563, 0.896854, 0.156726, -1.866683, -70.699112, -75.796707, -615.329590
1733468682.136367, -18.931401, -11.054927, -10.239402, 0.964979, 0.410744, -2.180207, -70.018936, -76.443085, -615.254883
1733468682.146365, -17.598729, -10.551845, -9.448717, 1.003861, 0.685398, -2.441502, -69.324707, -77.454910, -615.062012
1733468682.156350, -16.212486, -9.812935, -8.540417, 1.036992, 0.949155, -2.634564, -68.548996, -78.366348, -615.166138
1733468682.166409, -14.829087, -9.052626, -7.328352, 1.061909, 1.141662, -2.782300, -67.711136, -79.430649, -615.251404
1733468682.176351, -13.505392, -8.316409, -6.021118, 1.058731, 1.210367, -2.889839, -66.730164, -80.348495, -615.322876
1733468682.186368, -12.214169, -7.880964, -5.079598, 1.020840, 1.225742, -2.959428, -65.782272, -81.294815, -615.039795
1733468682.196369, -11.060613, -7.612364, -4.521001, 0.967019, 1.268752, -2.988495, -64.405914, -82.233688, -615.236145
1733468682.206359, -9.947908, -7.361123, -4.128651, 0.911500, 1.360859, -2.978747, -63.221802, -83.386551, -615.140198
1733468682.216355, -8.949227, -7.051373, -3.725527, 0.855742, 1.464182, -2.935065, -62.066177, -84.206161, -614.580994
1733468682.226357, -8.141034, -6.701520, -3.339163, 0.815185, 1.583591, -2.866382, -60.942902, -84.978790, -614.705383
1733468682.236362, -7.414244, -6.423493, -2.949956, 0.781693, 1.753069, -2.777971, -59.851028, -85.373230, -614.949341
1733468682.246349, -6.859238, -6.209961, -2.362628, 0.725237, 1.934923, -2.699923, -58.673965, -86.222061, -615.305542
1733468682.256361, -6.514174, -5.914726, -1.634791, 0.635334, 2.114148, -2.645625, -57.472321, -86.837448, -615.550415
1733468682.266348, -6.197092, -5.655404, -0.915034, 0.528748, 2.263441, -2.639236, -56.429443, -87.350571, -615.420349
1733468682.276364, -5.875371, -5.349694, -0.163853, 0.418350, 2.300136, -2.681791, -55.298798, -88.073547, -615.979065
1733468682.286352, -5.578490, -4.948964, 0.329801, 0.320977, 2.225625, -2.760464, -53.940887, -88.443436, -616.244690
1733468682.296344, -5.096058, -4.758925, 0.336535, 0.274136, 2.107289, -2.854933, -52.542221, -89.029053, -616.031311
1733468682.306356, -4.580257, -4.474913, 0.109385, 0.284587, 1.988836, -2.941396, -51.241638, -89.400742, -616.389893
1733468682.316364, -4.137180, -4.313753, -0.266056, 0.351561, 1.912369, -3.031271, -49.625702, -89.860779, -616.715149
1733468682.326362, -3.714305, -4.122516, -0.590021, 0.461674, 1.897560, -3.141319, -48.263626, -90.271255, -616.239136
1733468682.336361, -3.224541, -3.791667, -0.651821, 0.586311, 1.907657, -3.259641, -46.619171, -90.585251, -616.303345
1733468682.346409, -2.696320, -3.435679, -0.522983, 0.706095, 1.925617, -3.379080, -45.006134, -90.630646, -616.053406
1733468682.355612, -2.155230, -2.816479, -0.251391, 0.801696, 1.943542, -3.478235, -43.061432, -90.914368, -615.250183
1733468682.366348, -1.635090, -2.144157, -0.010175, 0.851465, 1.999226, -3.549750, -41.387054, -90.901306, -615.064453
1733468682.376349, -1.112855, -1.458518, 0.288352, 0.847891, 2.069493, -3.591543, -39.579315, -90.967392, -614.568909
1733468682.386349, -0.579696, -0.971896, 0.522385, 0.792949, 2.169183, -3.621187, -37.657043, -90.973206, -614.342102
1733468682.396360, 0.012270, -0.578499, 0.521337, 0.736391, 2.300684, -3.626274, -35.997635, -90.782852, -613.665039
1733468682.406360, 0.828843, -0.159514, 0.390704, 0.714029, 2.456184, -3.586811, -34.167877, -90.664078, -613.246521
1733468682.416355, 1.575983, 0.364816, 0.463577, 0.726248, 2.568332, -3.508516, -32.482712, -90.293396, -612.690735
1733468682.426354, 2.187702, 0.813879, 0.720206, 0.792719, 2.564371, -3.417733, -31.237122, -90.188614, -611.654175
1733468682.436354, 2.869900, 0.803554, 1.025616, 0.942519, 2.384754, -3.357215, -29.864471, -89.548599, -611.386536
1733468682.446343, 3.541024, 0.836923, 1.330727, 1.119731, 2.037184, -3.307579, -28.778366, -89.050812, -610.352051
1733468682.456346, 3.973627, 0.955436, 1.301099, 1.249966, 1.704213, -3.261819, -27.427658, -88.395309, -609.801514
1733468682.466398, 4.204966, 0.730082, 0.874033, 1.326494, 1.594284, -3.253188, -25.805847, -87.818527, -608.921265
1733468682.476341, 4.531176, 0.928801, 0.729483, 1.334939, 1.681586, -3.240971, -24.702591, -87.216354, -608.151489
1733468682.486338, 5.294029, 1.198298, 0.624138, 1.346364, 1.937122, -3.209626, -23.675751, -86.468658, -607.340332
1733468682.496406, 6.513725, 1.152060, 0.790835, 1.504421, 2.235866, -3.174802, -23.043365, -85.932983, -606.192749
1733468682.506341, 8.077139, 1.338359, 2.593369, 1.667893, 2.308476, -3.155713, -22.241913, -85.108032, -605.272888
1733468682.516346, 9.763854, 1.572990, 5.053561, 1.663417, 2.131858, -3.117417, -21.380386, -84.151642, -604.024414
1733468682.526404, 11.425130, 1.759738, 7.107637, 1.416403, 1.892654, -3.056298, -20.581345, -83.446533, -602.576416
1733468682.536348, 12.980464, 2.170493, 8.539968, 0.977471, 1.726871, -2.948107, -19.954575, -82.584595, -602.055969
1733468682.546358, 14.606276, 2.551022, 9.097817, 0.482906, 1.619975, -2.761549, -19.434219, -82.040512, -602.059937
1733468682.556339, 16.229994, 2.748244, 8.475474, 0.095704, 1.595638, -2.500678, -19.027298, -81.578522, -602.221252
1733468682.566361, 17.604864, 2.655918, 7.287202, -0.067789, 1.668061, -2.224829, -18.948151, -81.241165, -602.184326
1733468682.576351, 18.833239, 2.177377, 6.706458, -0.035979, 1.691798, -2.030363, -18.770218, -80.766632, -601.656860
1733468682.586341, 20.136882, 2.150592, 7.318326, 0.088671, 1.449514, -1.891279, -18.649231, -80.186050, -601.050537
1733468682.596340, 21.264701, 2.055272, 8.023568, 0.247466, 1.034043, -1.796277, -18.565247, -79.666626, -600.842407
1733468682.606407, 22.292262, 1.693000, 8.591443, 0.361583, 0.586282, -1.756707, -18.043396, -79.319992, -600.594727
1733468682.616342, 23.319973, 1.779640, 9.146599, 0.376232, 0.170251, -1.710873, -17.579819, -78.760315, -600.495361
1733468682.626342, 24.406192, 2.300229, 9.604190, 0.314448, -0.167958, -1.589670, -16.892365, -78.338547, -599.685608
1733468682.636387, 25.465627, 2.989011, 10.030059, 0.189141, -0.476449, -1.344633, -16.292664, -78.007095, -600.356567
1733468682.646341, 26.084378, 3.390489, 10.066421, 0.038613, -0.742740, -1.004929, -15.793030, -77.808578, -600.447571
1733468682.656338, 26.358215, 3.551948, 9.743204, -0.116014, -0.973700, -0.589171, -15.156174, -77.422562, -601.218079
1733468682.666336, 26.076747, 3.626916, 8.901043, -0.230148, -1.126570, -0.126569, -14.880432, -77.364365, -601.129944
1733468682.676348, 25.260623, 3.498677, 7.992593, -0.301558, -1.173302, 0.344820, -14.728760, -77.539673, -601.680725
1733468682.686417, 24.097191, 3.220501, 7.289147, -0.362225, -1.193708, 0.790690, -14.489777, -77.896835, -602.024658
1733468682.696521, 22.763022, 2.959233, 6.739378, -0.387813, -1.233507, 1.207211, -14.762527, -78.367599, -602.209351
1733468682.706361, 21.281460, 2.644246, 6.135740, -0.376414, -1.251010, 1.599260, -14.684586, -78.749985, -602.836548
1733468682.716395, 19.777752, 2.225410, 5.699696, -0.334402, -1.246818, 1.945943, -15.238464, -79.272537, -603.231018
1733468682.726345, 18.351705, 1.880945, 5.700145, -0.293751, -1.288520, 2.251698, -15.667404, -80.205307, -603.009033
1733468682.736344, 16.835727, 1.603068, 5.732018, -0.262615, -1.395792, 2.500170, -16.357452, -80.876877, -604.589478
1733468682.746336, 15.281890, 1.173159, 5.796063, -0.230984, -1.565207, 2.680585, -17.198929, -81.613785, -604.490662
1733468682.756335, 13.833248, 0.882263, 5.656601, -0.203809, -1.783290, 2.808097, -17.803558, -82.159500, -605.208740
1733468682.766336, 12.423064, 0.475997, 5.275025, -0.156883, -2.025667, 2.882880, -18.445557, -82.781967, -605.600830
1733468682.776334, 11.096377, 0.147094, 4.831798, -0.098719, -2.250256, 2.928421, -19.084015, -83.745621, -606.330566
1733468682.786332, 9.895535, -0.212635, 4.239533, -0.030166, -2.423263, 2.961243, -20.104431, -84.314484, -606.649475
1733468682.796336, 8.758887, -0.690428, 3.684976, 0.037965, -2.533415, 2.980312, -20.698883, -84.970871, -606.738770
1733468682.806345, 7.725341, -1.026664, 3.230227, 0.078748, -2.578879, 2.988093, -21.725708, -85.547379, -607.480591
1733468682.816351, 6.773945, -1.349133, 2.824110, 0.113490, -2.599688, 2.977789, -22.462738, -86.175385, -607.845703
1733468682.826352, 5.907543, -1.594987, 2.454206, 0.157055, -2.606830, 2.948665, -23.319626, -86.838684, -607.589783
1733468682.836337, 5.287145, -1.832462, 2.237381, 0.206969, -2.623685, 2.909268, -24.267181, -87.326019, -608.775513
1733468682.846335, 4.768651, -2.070386, 2.163909, 0.258805, -2.650401, 2.877136, -25.414368, -87.666229, -608.944214
1733468682.856344, 4.264372, -2.285265, 2.173187, 0.309584, -2.699693, 2.847307, -26.332916, -88.271988, -609.233398
1733468682.866340, 3.924545, -2.547431, 1.918953, 0.362435, -2.716754, 2.839955, -27.208099, -88.564484, -609.169556
1733468682.876332, 3.720140, -2.738069, 1.604564, 0.416608, -2.635659, 2.870851, -28.746689, -88.987106, -609.406982
1733468682.886334, 3.445705, -2.940379, 1.738639, 0.433254, -2.507009, 2.917555, -29.945251, -89.465332, -609.196350
1733468682.896331, 3.084330, -3.030311, 2.348562, 0.370151, -2.427994, 2.957083, -31.154022, -89.672623, -609.372253
1733468682.906344, 2.743306, -3.019238, 2.807501, 0.231350, -2.387749, 3.005852, -32.253769, -89.968018, -609.676575
1733468682.916340, 2.326865, -3.112163, 2.918083, 0.045359, -2.385634, 3.045471, -33.851257, -90.162674, -610.058899
1733468682.926336, 1.956063, -3.203741, 2.828300, -0.116204, -2.462786, 3.060964, -35.273727, -90.451248, -609.550171
1733468682.936337, 1.738789, -3.412186, 2.297835, -0.203126, -2.546303, 3.077932, -35.273727, -90.451248, -609.550171
1733468682.946345, 1.473631, -3.593996, 1.590348, -0.249378, -2.556477, 3.104471, -36.566833, -90.567932, -610.355103
1733468682.956333, 1.243189, -3.515885, 1.151461, -0.302035, -2.498877, 3.166773, -37.926605, -90.631699, -610.469238
1733468682.966383, 1.017985, -3.507356, 0.795922, -0.371593, -2.360826, 3.261878, -39.443787, -90.662354, -610.906494
1733468682.976330, 0.777068, -3.488352, 0.667833, -0.454228, -2.232685, 3.398123, -40.714081, -90.801575, -610.862793
1733468682.986327, 0.334889, -3.398719, 0.653617, -0.561351, -2.139065, 3.534784, -42.568451, -90.776062, -610.781006
1733468682.996383, -0.292392, -3.301454, 0.602441, -0.699688, -2.080014, 3.662886, -43.996643, -90.772018, -611.316650
1733468683.006327, -1.023072, -3.244443, 0.274286, -0.839188, -2.009438, 3.770906, -45.932236, -90.472092, -611.394470
1733468683.016324, -1.727416, -3.088221, -0.106991, -0.976619, -1.927697, 3.858920, -47.583328, -90.136780, -612.064270
1733468683.026331, -2.644994, -2.927660, -0.477194, -1.080052, -1.912120, 3.917838, -49.479919, -89.779526, -612.028442
1733468683.036337, -3.719093, -3.078644, -1.110012, -1.091872, -1.967473, 3.931227, -51.190659, -89.267731, -612.280273
1733468683.045960, -4.638167, -3.373281, -2.153734, -0.997272, -1.992217, 3.932326, -52.915833, -88.740433, -612.498352
1733468683.056340, -5.458032, -3.634398, -3.062483, -0.844846, -1.931530, 3.909243, -54.944092, -87.914047, -612.723755
1733468683.066348, -6.121525, -3.740641, -3.489998, -0.718135, -1.808021, 3.874506, -56.591568, -87.204437, -612.582886
1733468683.076339, -6.717531, -3.719692, -3.527108, -0.678152, -1.676114, 3.847784, -58.004013, -86.395096, -612.787720
1733468683.086344, -7.595006, -3.270180, -3.490447, -0.697748, -1.587094, 3.843357, -59.553741, -85.576965, -612.231628
1733468683.096331, -8.751855, -3.137003, -3.782240, -0.716482, -1.483612, 3.784647, -61.295090, -84.612091, -612.569336
1733468683.106333, -9.865458, -3.671359, -4.506037, -0.696119, -1.388090, 3.661101, -62.744415, -83.693924, -612.722961
1733468683.116347, -10.827627, -4.374955, -5.637447, -0.587127, -1.215887, 3.541790, -64.230453, -82.628326, -612.616577
1733468683.126374, -11.705551, -5.231929, -6.551733, -0.459183, -0.906641, 3.409870, -65.525360, -81.587326, -612.766113
1733468683.136333, -12.525116, -5.913977, -6.684461, -0.362734, -0.624591, 3.235218, -66.616272, -80.575958, -612.647217
1733468683.146338, -13.232004, -6.271462, -6.335207, -0.254342, -0.511075, 3.071270, -67.759705, -79.509781, -612.241089
1733468683.156332, -14.217967, -6.735039, -5.907094, -0.140971, -0.629292, 2.865875, -68.605057, -78.539581, -612.054016
1733468683.166328, -15.481357, -7.475745, -6.039523, -0.015334, -0.835811, 2.580997, -69.708145, -77.643509, -612.080200
1733468683.176334, -16.523882, -8.251915, -6.719177, 0.137932, -0.895693, 2.273603, -70.370834, -76.937210, -611.667175
1733468683.186329, -17.369334, -8.760982, -6.844125, 0.251401, -0.804702, 2.009792, -70.863068, -76.007080, -610.980896
1733468683.196323, -18.158523, -9.021651, -6.336554, 0.238290, -0.657301, 1.795874, -71.123489, -75.208817, -610.439453
1733468683.206339, -19.072061, -9.264214, -5.980117, 0.105078, -0.432113, 1.602803, -71.635010, -74.503265, -610.551392
1733468683.216323, -20.011785, -9.771934, -6.042516, -0.089546, -0.156095, 1.385455, -71.884003, -74.040024, -610.320374
1733468683.226338, -20.814890, -10.291775, -6.504298, -0.275962, 0.137067, 1.132193, -72.143875, -73.676392, -610.171204
1733468683.236327, -21.339370, -10.695198, -7.206098, -0.391790, 0.431849, 0.832316, -72.696014, -73.440964, -610.662903
1733468683.246318, -21.568914, -10.941352, -7.766790, -0.424299, 0.646657, 0.492484, -72.767044, -73.254486, -610.864990
1733468683.256337, -21.598991, -11.079916, -8.111854, -0.380324, 0.796631, 0.109211, -72.987701, -73.314194, -611.820007
1733468683.266341, -21.319169, -11.080964, -8.357709, -0.289152, 0.914871, -0.282732, -73.161621, -73.395859, -612.230103
1733468683.276145, -20.777929, -10.804134, -8.426243, -0.164034, 1.010058, -0.657195, -72.981354, -73.664902, -612.719910
1733468683.286332, -20.037672, -10.330382, -8.300099, -0.016919, 1.114180, -1.010026, -72.708771, -74.140472, -613.281738
1733468683.296329, -19.090317, -9.738415, -8.028656, 0.130828, 1.233554, -1.325575, -72.384262, -74.620163, -613.220947
1733468683.306332, -17.940052, -9.143905, -7.564031, 0.259675, 1.352131, -1.599419, -72.072144, -75.314560, -613.958862
1733468683.316345, -16.760609, -8.527099, -6.928371, 0.361651, 1.456011, -1.830642, -71.530060, -76.101532, -613.840210
1733468683.326329, -15.521011, -7.889493, -6.244377, 0.452850, 1.539238, -2.034205, -71.046387, -77.045563, -613.716492
1733468683.336328, -14.134768, -7.344812, -5.592705, 0.529436, 1.601926, -2.184663, -70.481079, -77.737335, -615.259094
1733468683.346330, -12.848483, -6.951116, -5.020491, 0.561842, 1.694155, -2.285928, -69.574493, -78.596649, -615.539307
1733468683.356329, -11.743559, -6.551434, -4.524293, 0.551648, 1.835781, -2.346063, -68.465027, -79.604050, -615.791565
1733468683.366321, -10.799196, -6.024111, -3.972130, 0.519344, 2.005927, -2.382924, -67.815292, -80.406631, -616.407532
1733468683.376333, -9.945663, -5.573851, -3.327641, 0.466545, 2.143185, -2.411993, -66.962967, -81.212219, -616.786743
1733468683.386337, -9.217676, -5.151574, -2.815282, 0.393083, 2.232651, -2.444089, -65.967636, -81.878845, -617.107544
1733468683.396321, -8.641272, -4.862025, -2.639907, 0.340084, 2.319367, -2.489301, -64.885315, -82.753387, -618.112610
1733468683.406338, -8.065616, -4.607940, -2.489222, 0.316559, 2.391751, -2.551929, -63.673599, -83.480103, -618.529175
1733468683.416321, -7.470508, -4.402638, -2.220023, 0.321135, 2.393358, -2.630409, -62.651520, -84.399841, -619.005493
1733468683.426341, -6.916400, -4.173393, -2.224513, 0.356843, 2.358098, -2.713802, -61.350037, -85.282654, -618.898438
1733468683.436323, -6.317550, -3.922451, -2.394950, 0.426373, 2.344502, -2.802366, -60.044220, -86.134720, -619.911621
1733468683.446326, -5.706580, -3.724929, -2.425925, 0.513848, 2.327675, -2.899781, -58.620651, -86.543350, -620.205200
1733468683.456325, -5.048473, -3.571700, -2.307412, 0.589802, 2.295140, -2.999599, -57.107834, -87.492859, -620.145630
1733468683.466326, -4.350115, -3.471293, -2.144606, 0.646479, 2.272912, -3.092143, -55.564804, -88.039368, -620.424805
1733468683.476303, -3.602675, -3.364302, -1.957409, 0.696491, 2.290690, -3.161029, -54.115891, -88.519882, -620.438965
1733468683.486382, -2.709488, -3.320458, -1.731756, 0.760033, 2.348492, -3.201653, -52.523605, -89.348358, -620.344849
1733468683.496340, -1.728464, -3.281553, -1.208473, 0.828109, 2.379978, -3.216180, -50.735596, -89.785095, -620.236084
1733468683.506328, -0.908600, -2.836680, -0.337134, 0.865330, 2.313604, -3.189214, -48.986328, -89.948639, -620.270020
1733468683.516326, -0.256928, -2.354847, 0.375141, 0.831812, 2.198284, -3.130464, -47.384903, -90.425461, -619.727905
1733468683.526331, 0.251242, -2.053178, 0.555156, 0.717014, 2.165886, -3.037150, -45.973114, -90.793884, -619.442566
1733468683.536321, 0.631920, -2.116774, 0.458939, 0.539110, 2.240730, -2.959338, -44.411774, -90.764877, -619.972168
1733468683.546332, 1.094001, -2.506879, 0.118214, 0.353499, 2.369919, -2.934745, -43.097534, -91.024139, -619.582520
1733468683.556376, 1.844882, -3.101090, -0.452205, 0.249581, 2.571633, -2.944682, -41.521790, -91.029175, -619.517822
1733468683.566335, 2.667739, -3.003376, -0.299425, 0.219067, 2.683460, -2.931343, -40.100266, -90.986069, -619.276062
1733468683.576318, 3.626617, -2.494608, 0.076614, 0.232875, 2.630078, -2.854499, -38.475952, -90.893967, -619.165039
1733468683.586320, 4.515764, -1.933767, 0.243311, 0.275175, 2.526922, -2.682225, -37.063461, -90.809235, -619.163818
1733468683.596318, 4.996998, -1.595286, 0.112228, 0.309803, 2.474526, -2.453606, -35.897690, -90.665421, -618.517822
1733468683.606317, 5.126285, -1.601272, -0.099060, 0.333608, 2.475998, -2.240568, -34.814148, -90.488022, -618.679688
1733468683.616313, 5.098004, -1.838448, -0.400879, 0.375720, 2.477111, -2.086336, -34.013962, -90.327194, -617.940186
1733468683.626327, 4.803068, -2.343175, -0.849792, 0.465516, 2.485215, -2.035665, -33.359558, -90.082550, -617.221436
1733468683.636319, 4.494365, -2.880823, -1.310825, 0.613599, 2.523171, -2.117216, -32.112106, -89.842789, -617.649841
1733468683.646324, 4.587141, -3.000234, -1.257106, 0.805436, 2.528189, -2.276759, -31.142700, -89.463928, -616.645142
1733468683.656319, 5.059397, -2.624644, -0.656610, 1.014893, 2.456179, -2.429299, -30.291275, -89.153198, -615.740356
1733468683.666314, 5.954080, -2.444630, 0.035763, 1.230983, 2.377870, -2.551614, -28.937149, -88.736420, -615.104126
1733468683.676328, 6.877195, -1.937508, 1.159991, 1.413142, 2.280618, -2.604277, -28.099167, -88.485001, -613.547302
1733468683.686321, 7.934684, -1.309628, 2.699911, 1.495956, 2.148481, -2.613763, -27.106232, -87.967453, -613.274597
1733468683.696321, 9.381679, -1.611747, 3.879804, 1.475767, 2.022598, -2.633791, -26.297989, -87.438370, -612.456787
1733468683.706327, 11.062558, -1.814206, 4.952556, 1.361651, 1.936535, -2.629725, -25.509125, -86.968643, -611.433960
1733468683.715524, 12.805537, -1.422904, 6.104017, 1.139000, 1.888465, -2.542620, -25.136047, -86.659149, -610.492310
1733468683.726321, 14.461876, -1.640776, 6.957700, 0.862984, 1.886027, -2.443777, -24.249191, -86.401932, -609.206299
1733468683.736342, 16.068834, -1.831564, 7.858518, 0.572562, 1.759132, -2.334057, -23.896118, -85.699677, -609.899536
1733468683.746327, 17.678037, -1.867627, 8.400206, 0.338178, 1.472163, -2.213019, -23.399567, -85.373978, -609.677979
1733468683.756308, 19.187581, -2.337788, 8.384644, 0.195208, 1.068828, -2.129025, -22.869370, -84.975998, -609.359436
1733468683.766310, 20.661212, -2.519598, 8.188768, 0.101873, 0.585013, -2.041220, -21.923157, -84.555786, -609.168091
1733468683.776320, 21.863700, -2.199822, 7.630321, 0.074776, 0.137577, -1.882162, -21.386246, -83.986557, -609.143860
1733468683.786319, 22.787263, -1.852364, 6.894553, 0.116388, -0.180665, -1.623006, -20.400833, -83.773743, -609.138123
1733468683.796328, 23.353642, -1.437419, 6.628198, 0.171042, -0.414974, -1.278047, -19.937103, -83.479019, -609.136963
1733468683.806327, 23.552061, -1.307683, 6.565799, 0.180389, -0.559439, -0.886220, -19.452347, -83.309082, -609.154480
1733468683.816328, 23.422325, -1.337012, 6.573580, 0.117651, -0.595508, -0.465409, -19.135956, -83.206421, -609.343628
1733468683.826319, 22.867768, -1.273715, 6.637774, -0.015158, -0.582426, -0.066804, -19.164825, -83.205963, -608.553040
1733468683.836319, 22.082021, -1.416320, 6.663362, -0.163524, -0.622327, 0.277517, -19.263412, -83.315552, -609.952637
1733468683.846320, 21.106384, -1.380108, 6.622960, -0.308271, -0.726878, 0.580225, -19.193909, -83.560349, -609.974487
1733468683.856313, 19.740791, -1.486201, 6.317550, -0.440483, -0.852271, 0.832149, -19.470551, -83.727997, -610.221130
1733468683.866309, 18.383578, -1.765424, 5.716605, -0.510986, -0.969125, 1.027499, -19.498703, -84.092148, -610.992310
1733468683.876307, 17.013347, -1.887080, 5.237466, -0.514878, -1.122802, 1.182679, -19.942917, -84.335953, -610.893494
1733468683.886316, 15.783326, -2.103905, 4.950461, -0.473648, -1.298404, 1.302591, -19.866547, -84.629883, -611.859924
1733468683.896308, 14.886248, -2.113332, 4.781071, -0.420406, -1.484448, 1.429017, -20.378235, -85.132233, -612.097900
1733468683.906341, 14.066084, -2.032079, 4.641459, -0.369785, -1.676196, 1.571747, -21.106949, -85.470337, -612.217041
1733468683.916318, 13.172149, -2.119617, 4.344578, -0.337777, -1.831262, 1.711297, -21.650986, -85.827362, -612.900940
1733468683.926307, 12.233622, -2.226159, 4.058920, -0.340678, -1.957206, 1.834935, -21.986450, -86.291779, -613.186340
1733468683.936350, 11.206061, -2.380435, 3.727922, -0.376010, -2.067320, 1.910042, -22.775894, -86.494492, -614.282959
1733468683.946315, 10.248081, -2.498798, 3.297564, -0.407937, -2.186577, 1.953456, -23.315994, -87.057755, -614.856018
1733468683.956323, 9.302371, -2.443732, 2.820070, -0.425064, -2.386842, 2.012203, -24.042007, -87.391525, -615.097107
1733468683.966316, 8.391826, -2.485630, 2.052280, -0.377472, -2.373654, 2.060749, -24.913910, -87.859924, -615.796997
1733468683.976309, 7.347805, -2.739715, -0.066289, -0.297690, -2.237956, 2.160641, -25.713745, -88.191284, -616.674438
1733468683.986302, 7.116166, -2.617461, -0.538995, -0.189143, -2.077302, 2.308881, -26.516083, -88.526230, -616.825073
1733468683.996316, 6.765565, -2.440739, -0.562338, -0.074452, -1.965711, 2.476616, -27.370605, -89.061554, -617.151062
1733468684.005535, 6.765565, -2.440739, -0.562338, -0.074452, -1.965711, 2.476616, -28.926117, -89.380844, -616.989563
1733468684.016321, 5.414786, -2.195034, -0.281768, 0.073749, -1.906880, 2.779690, -29.997101, -89.735214, -617.598389
1733468684.026318, 4.596718, -2.465280, -0.267702, 0.112937, -1.914132, 2.853468, -31.634796, -90.184677, -617.130066
1733468684.036320, 3.882497, -2.879776, -0.316184, 0.145531, -1.944914, 2.882522, -32.933075, -90.149414, -617.806458
1733468684.046308, 3.273023, -3.115156, -0.227898, 0.169499, -1.983799, 2.890122, -34.307877, -90.510422, -617.739746
1733468684.056306, 2.792986, -3.231723, -0.077512, 0.175230, -2.048984, 2.897580, -35.772049, -90.548935, -617.598694
1733468684.066327, 2.382829, -3.282151, -0.060154, 0.158092, -2.119692, 2.928456, -36.951309, -90.917038, -617.769470
1733468684.076303, 1.920150, -3.338714, -0.338630, 0.119940, -2.113487, 2.972738, -38.391174, -90.945450, -618.128906
1733468684.086307, 1.457171, -3.468749, -0.730381, 0.079435, -2.011787, 3.021715, -39.959183, -90.901657, -617.914246
1733468684.096315, 1.109114, -3.631705, -1.039532, 0.060701, -1.859017, 3.087951, -41.692810, -90.975357, -617.993408
1733468684.106310, 0.816123, -4.222773, -1.112855, 0.036462, -1.710312, 3.156528, -43.205490, -90.748123, -617.776367
1733468684.116316, 0.449661, -5.259163, -1.056292, -0.050789, -1.607756, 3.194052, -44.983231, -90.698929, -617.951660
1733468684.126322, -0.323217, -5.870283, -0.934487, -0.161013, -1.626848, 3.154464, -46.680893, -90.510849, -617.274963
1733468684.136303, -1.278204, -5.998223, -1.260846, -0.187706, -1.669345, 3.030949, -48.192398, -90.234375, -617.853210
1733468684.146317, -1.944690, -6.135591, -1.683872, -0.110912, -1.675917, 2.855861, -49.761627, -90.061066, -617.772400
1733468684.156303, -2.233940, -6.131700, -1.638681, 0.029060, -1.717226, 2.712296, -51.046600, -89.765656, -617.467590
1733468684.166302, -2.261323, -5.879112, -0.981323, 0.191641, -1.844904, 2.622592, -52.251129, -89.399200, -617.495728
1733468684.176308, -2.552668, -6.050896, 0.171036, 0.310828, -2.147558, 2.537840, -53.655319, -89.093231, -616.715576
1733468684.186301, -3.391686, -6.489484, 1.467197, 0.321022, -2.695110, 2.384147, -54.528610, -88.722321, -616.391968
1733468684.196302, -4.987721, -6.734141, 2.118270, 0.221030, -3.383346, 2.114275, -55.471634, -88.262329, -615.545288
1733468684.206303, -6.402993, -6.731448, 1.289128, 0.091233, -3.881486, 1.799359, -55.915054, -87.817764, -614.621887
1733468684.216299, -6.824223, -6.042217, -0.905308, -0.005216, -3.848247, 1.659033, -55.925507, -87.248260, -613.441589
1733468684.226302, -6.361693, -4.934150, -2.783858, -0.105726, -3.362722, 1.862956, -56.233429, -87.042313, -612.347046
1733468684.236301, -6.017826, -4.195090, -3.952827, -0.273402, -2.673795, 2.382016, -56.841782, -86.330154, -612.683411
1733468684.246304, -7.014562, -3.982455, -5.016451, -0.486827, -1.923935, 3.019216, -58.114273, -85.531677, -612.120605
1733468684.256299, -9.505430, -4.471920, -6.215647, -0.645294, -1.226684, 3.518249, -59.704971, -84.817322, -612.481018
1733468684.266299, -12.618640, -6.133047, -7.462577, -0.681129, -0.697252, 3.708884, -61.230316, -83.787552, -612.899536
1733468684.276306, -15.726164, -8.367884, -8.519318, -0.582244, -0.414725, 3.549785, -63.234146, -82.671509, -612.875427
1733468684.286306, -18.447623, -10.221296, -9.276783, -0.368805, -0.284232, 3.108726, -64.515884, -81.960129, -612.832520
1733468684.296299, -20.422690, -11.432313, -9.430162, -0.149736, -0.245351, 2.431159, -65.719360, -81.267120, -613.257019
1733468684.306315, -21.738453, -12.426056, -9.164854, 0.026686, -0.365620, 1.572760, -65.981033, -80.779358, -613.022583
1733468684.316303, -22.066309, -12.928689, -9.195829, 0.170225, -0.545742, 0.676912, -66.374023, -80.679596, -612.677368
1733468684.326304, -21.401320, -12.756007, -9.662399, 0.323442, -0.661908, -0.157800, -65.889435, -80.671951, -611.716797
1733468684.336303, -19.781792, -12.183494, -10.104578, 0.509127, -0.692076, -0.808032, -65.617462, -80.845032, -611.705444
1733468684.346307, -17.550995, -11.681609, -10.205584, 0.686052, -0.641677, -1.217056, -64.937805, -81.277847, -611.324768
1733468684.356298, -15.395764, -11.473613, -10.188974, 0.799694, -0.449788, -1.417849, -64.488495, -81.802658, -611.122131
1733468684.366297, -13.724312, -11.198729, -9.876680, 0.855885, -0.079367, -1.482249, -63.969009, -81.859650, -610.673645
1733468684.376310, -12.291083, -10.862493, -8.949675, 0.893329, 0.324542, -1.469535, -63.228043, -82.449554, -610.552002
1733468684.386293, -11.135731, -10.456526, -7.536199, 0.906684, 0.615218, -1.406383, -63.006500, -82.895111, -610.040649
1733468684.396305, -10.278308, -10.206332, -6.221483, 0.904280, 0.798953, -1.332814, -62.721970, -83.158066, -610.101196
1733468684.406305, -9.711780, -10.030957, -5.110723, 0.860171, 0.940089, -1.276288, -62.721970, -83.158066, -610.101196
1733468684.416308, -9.357139, -9.891046, -4.224419, 0.777629, 1.104543, -1.246634, -62.080414, -83.613998, -610.092773
1733468684.426306, -9.174132, -9.783606, -3.501520, 0.668415, 1.313895, -1.253797, -61.932022, -83.893280, -610.031860
1733468684.436304, -8.825177, -9.733028, -2.816928, 0.547690, 1.542361, -1.298654, -61.486450, -84.304520, -609.703735
1733468684.446307, -8.410531, -9.519346, -2.115427, 0.429120, 1.701251, -1.371240, -60.912964, -84.464951, -610.146057
1733468684.456351, -7.943512, -9.099912, -1.639878, 0.345892, 1.796667, -1.462512, -60.802689, -84.834000, -610.800415
1733468684.466292, -7.331195, -8.827870, -1.351228, 0.290963, 1.843788, -1.558698, -60.172867, -85.128830, -610.995728
1733468684.476289, -6.775291, -8.747365, -1.161936, 0.223648, 1.835066, -1.647498, -59.504425, -85.597580, -611.310791
1733468684.486334, -6.192603, -8.738836, -1.285686, 0.164582, 1.819580, -1.734550, -59.103607, -86.016281, -611.358521
1733468684.496296, -5.748927, -8.454525, -1.434725, 0.112695, 1.804933, -1.815587, -58.205841, -86.459702, -611.766479
1733468684.506309, -5.564274, -8.120833, -1.608754, 0.069458, 1.811980, -1.917050, -57.578094, -86.765869, -612.137573
1733468684.516297, -5.410896, -7.975086, -1.775749, 0.058303, 1.789835, -2.055645, -56.934509, -87.134399, -612.471741
1733468684.526303, -5.113267, -7.796867, -2.030133, 0.104962, 1.718781, -2.223423, -55.866470, -87.610077, -613.052246
1733468684.536307, -4.773888, -7.736563, -2.296189, 0.214205, 1.599685, -2.405477, -54.984680, -87.991882, -612.593079
1733468684.546291, -4.188805, -7.128586, -2.218976, 0.348589, 1.415703, -2.547568, -53.558853, -88.419418, -612.965698
1733468684.556337, -3.738247, -6.102521, -1.799392, 0.471390, 1.166186, -2.627222, -52.268463, -88.816467, -612.833801
1733468684.566321, -3.638588, -4.991162, -1.306336, 0.554970, 0.861463, -2.674290, -50.941040, -89.162308, -612.120789
1733468684.576298, -3.645920, -4.731242, -1.516577, 0.550140, 0.735746, -2.731302, -49.551239, -89.303680, -612.057007
1733468684.586357, -3.546262, -5.695506, -2.263568, 0.456013, 0.870727, -2.834519, -48.412094, -89.676376, -612.330750
1733468684.596296, -3.269133, -6.391471, -2.880374, 0.347026, 1.142421, -2.997736, -47.086319, -89.822586, -612.226807
1733468684.606289, -2.838027, -6.503550, -3.386898, 0.366323, 1.435950, -3.200926, -45.666504, -90.125610, -612.300110
1733468684.616292, -1.886332, -5.727978, -3.277363, 0.559471, 1.603490, -3.363630, -44.152206, -90.203522, -612.644531
1733468684.626309, -0.522535, -4.469974, -2.270152, 0.844936, 1.564291, -3.414966, -42.556351, -90.313004, -612.473083
1733468684.636303, 0.797718, -3.825635, -1.271471, 1.099650, 1.489002, -3.361448, -40.972870, -90.449051, -611.453125
1733468684.646297, 1.802834, -3.874118, -0.238971, 1.245940, 1.495777, -3.257756, -39.326172, -90.642044, -610.898621
1733468684.656338, 2.474108, -4.060865, 1.215656, 1.237353, 1.548697, -3.180865, -38.248047, -90.308365, -610.118103
1733468684.666296, 3.191920, -4.189105, 2.663998, 1.035249, 1.619677, -3.165180, -37.034775, -90.140366, -609.841919
1733468684.676287, 4.158429, -3.939060, 3.576937, 0.745279, 1.686175, -3.147035, -35.709351, -89.821167, -608.924683
1733468684.686302, 5.291186, -3.646369, 3.677943, 0.479757, 1.777993, -3.079318, -34.356689, -89.730164, -608.573425
1733468684.696342, 6.315455, -3.479374, 3.219303, 0.303780, 1.926921, -2.963884, -33.011551, -89.350082, -608.487183
1733468684.706286, 7.133823, -3.348890, 2.956240, 0.208822, 2.107105, -2.817678, -32.000732, -88.994690, -608.178101
1733468684.716295, 7.777414, -3.080140, 3.456629, 0.133685, 2.125916, -2.663446, -31.202179, -88.807739, -607.774536
1733468684.726299, 8.093150, -2.502539, 3.787477, 0.041092, 1.950242, -2.491072, -29.886978, -88.407745, -607.381348
1733468684.736352, 7.715315, -2.599205, 2.766350, 0.018389, 1.860631, -2.409978, -29.364212, -88.250137, -607.025269
1733468684.746281, 7.732374, -3.512144, 1.827524, 0.125168, 1.891985, -2.465915, -28.718842, -87.721893, -607.307739
1733468684.756284, 8.659528, -3.470844, 2.349610, 0.247846, 1.806103, -2.573811, -27.743073, -87.422287, -606.946533
1733468684.766286, 10.134207, -2.682404, 3.426551, 0.347259, 1.552854, -2.607848, -27.037598, -87.004547, -606.576721
1733468684.776340, 11.509077, -2.092682, 4.220529, 0.383787, 1.284043, -2.568016, -26.322723, -86.566422, -606.134277
1733468684.786283, 12.564621, -1.781136, 4.734384, 0.329890, 1.127671, -2.471471, -25.114548, -86.033142, -605.591187
1733468684.796295, 13.606547, -1.507150, 5.409100, 0.136781, 1.104752, -2.358049, -24.629868, -85.593994, -605.166626
1733468684.806281, 14.916325, -1.197999, 6.020819, -0.180490, 1.093283, -2.223675, -23.976761, -84.982986, -605.165161
1733468684.816298, 16.236428, -0.881515, 5.640739, -0.504704, 1.107398, -2.023231, -23.038956, -84.792343, -605.322144
1733468684.826303, 17.316363, -0.670526, 4.801571, -0.771355, 1.131820, -1.789863, -22.688370, -84.569214, -605.077271
1733468684.836294, 18.099267, -0.690428, 4.008342, -0.938991, 1.075302, -1.594369, -22.258423, -84.430344, -606.175171
1733468684.846297, 18.904766, -0.863110, 3.053505, -0.965451, 0.926694, -1.432337, -22.108749, -84.159119, -605.979858
1733468684.856338, 19.559730, -0.744597, 2.395698, -0.846275, 0.682286, -1.253629, -21.718079, -83.950317, -606.512451
1733468684.866297, 20.069096, -0.731728, 1.983297, -0.674321, 0.417325, -1.062076, -21.318604, -83.934875, -606.909607
1733468684.875869, 20.520254, -0.748338, 1.731606, -0.491865, 0.181698, -0.833191, -20.862900, -83.562271, -606.995483
1733468684.886297, 20.833445, -0.609324, 1.711705, -0.319658, 0.026292, -0.544730, -20.633408, -83.516037, -606.862549
1733468684.896297, 20.813394, -0.628478, 2.131588, -0.213092, -0.057922, -0.218753, -20.311630, -83.661865, -606.874817
1733468684.906294, 20.522797, -0.799813, 2.839972, -0.206933, -0.097372, 0.114944, -20.071808, -83.546890, -606.884705
1733468684.916301, 20.008942, -1.228974, 3.382259, -0.276484, -0.113911, 0.425158, -20.237656, -83.716797, -607.375122
1733468684.926291, 19.331532, -1.605761, 3.850924, -0.376909, -0.140455, 0.693307, -20.590500, -84.023727, -606.816406
1733468684.936293, 18.656816, -1.798045, 4.201525, -0.490760, -0.214152, 0.939153, -20.703506, -84.117340, -607.718445
1733468684.946303, 17.972673, -1.923442, 4.309563, -0.592426, -0.334457, 1.180429, -20.990204, -84.386963, -608.070312
1733468684.956280, 17.155951, -2.186355, 4.214693, -0.680138, -0.464994, 1.406269, -21.526581, -84.765228, -608.655701
1733468684.966278, 16.105346, -2.516755, 4.035277, -0.764071, -0.599979, 1.601770, -22.070557, -85.282318, -608.946228
1733468684.976340, 14.904803, -2.932448, 3.686023, -0.831793, -0.747227, 1.750097, -22.644836, -85.743011, -609.720154
1733468684.986296, 13.732093, -3.292177, 3.027019, -0.866586, -0.875150, 1.860934, -23.010864, -85.928650, -609.872925
1733468684.996301, 12.651410, -3.482366, 2.343175, -0.869469, -0.951713, 1.960720, -23.588470, -86.424240, -610.743774
1733468685.006274, 11.621156, -3.670910, 2.143259, -0.861418, -1.088190, 2.033106, -24.514496, -87.125671, -611.067871
1733468685.016294, 10.419266, -3.978265, 2.190096, -0.855222, -1.344697, 2.051856, -25.262466, -87.412201, -611.746948
1733468685.026297, 9.136573, -4.367473, 1.818097, -0.848582, -1.630211, 2.011407, -25.965012, -87.785645, -611.461182
1733468685.036349, 7.971345, -4.780772, 1.073799, -0.829431, -1.857565, 1.911099, -26.425110, -88.270370, -613.257263
1733468685.046279, 7.123049, -4.922628, 0.373645, -0.794309, -2.016553, 1.783658, -27.037827, -88.150192, -613.738770
1733468685.056283, 6.652589, -4.902726, -0.254384, -0.748248, -2.154692, 1.661798, -27.656754, -88.483932, -614.295715
1733468685.066294, 6.596624, -4.645050, -1.069759, -0.659468, -2.222517, 1.618906, -28.130768, -88.879456, -614.737183
1733468685.076288, 6.823924, -4.196138, -2.063652, -0.513078, -2.142390, 1.721472, -28.550735, -89.103668, -615.256836
1733468685.086294, 6.915352, -3.844190, -2.716970, -0.337425, -1.941542, 1.929850, -29.457184, -89.464661, -615.666748
1733468685.096286, 6.771700, -3.725827, -2.775179, -0.182588, -1.742296, 2.172097, -30.330490, -89.775314, -616.015747
1733468685.106363, 6.377704, -3.800795, -2.504485, -0.078991, -1.599880, 2.396013, -31.482758, -89.988831, -616.387634
1733468685.116277, 5.672313, -3.996521, -2.390910, -0.019732, -1.483978, 2.554724, -32.734024, -90.297882, -616.138306
1733468685.126292, 4.851999, -4.422090, -2.380136, 0.013026, -1.395216, 2.602669, -33.872330, -90.429932, -615.495361
1733468685.136280, 4.226664, -4.743063, -2.316689, 0.043177, -1.374945, 2.562184, -35.586060, -90.636780, -616.406189
1733468685.146292, 3.837905, -4.779126, -2.169147, 0.096133, -1.425789, 2.481450, -36.666504, -90.735229, -616.617859
1733468685.156294, 3.687669, -4.632481, -1.941847, 0.158283, -1.492846, 2.421322, -37.568878, -90.949829, -616.687317
1733468685.166297, 3.785682, -4.368819, -1.812860, 0.188138, -1.489463, 2.442661, -39.023743, -90.796524, -616.033325
1733468685.176293, 3.809324, -4.133739, -1.643171, 0.168419, -1.397103, 2.521954, -39.987930, -91.153152, -616.375854
1733468685.186286, 3.612401, -4.072088, -1.194707, 0.101463, -1.308973, 2.619978, -41.189606, -90.861298, -616.171753
1733468685.196285, 3.097648, -4.166061, -0.880168, 0.006552, -1.288114, 2.680591, -42.883606, -90.883423, -616.325806
1733468685.206288, 2.382081, -4.488380, -0.865654, -0.075397, -1.301407, 2.671980, -44.457687, -90.941513, -616.349426
1733468685.216326, 1.732355, -4.853795, -1.000776, -0.148025, -1.325260, 2.578997, -45.792984, -90.880798, -616.485046
1733468685.226289, 1.268179, -4.967220, -1.093252, -0.214062, -1.386810, 2.421674, -46.954559, -90.843475, -616.139038
1733468685.236276, 1.012897, -4.998345, -1.228525, -0.252173, -1.475019, 2.240405, -47.982224, -90.515137, -616.293274
1733468685.246284, 0.900968, -5.036652, -1.293019, -0.278410, -1.581699, 2.068981, -49.047882, -90.381226, -616.719360
1733468685.256272, 0.927304, -4.816535, -1.402104, -0.314131, -1.681587, 1.960969, -49.697189, -90.094284, -616.545593
1733468685.266273, 0.911592, -4.633379, -1.667561, -0.374075, -1.737759, 1.959063, -50.634354, -89.862869, -616.566406
1733468685.276337, 0.540192, -4.620061, -2.074725, -0.450751, -1.693865, 2.019852, -51.444458, -89.460602, -616.359802
1733468685.286276, -0.016310, -4.851251, -2.501641, -0.511450, -1.585799, 2.078560, -52.709335, -89.286102, -616.777710
1733468685.296275, -0.321422, -5.320664, -2.823811, -0.510167, -1.519397, 2.109914, -53.790359, -88.886307, -616.622131
1733468685.306340, -0.613215, -5.515941, -3.153164, -0.399168, -1.531966, 2.154850, -54.781631, -88.658585, -616.232605
1733468685.316292, -1.254562, -5.411345, -3.167529, -0.197117, -1.627296, 2.223656, -55.848724, -88.335587, -616.355591
1733468685.326058, -1.997063, -5.523124, -2.813786, -0.003589, -1.782118, 2.258240, -57.002335, -87.907867, -615.327026
1733468685.336149, -2.733430, -5.599589, -2.609829, 0.117011, -1.934991, 2.287385, -57.559402, -87.153366, -615.401123
1733468685.346333, -3.437475, -5.592855, -2.685396, 0.158571, -1.946972, 2.396916, -58.729034, -86.645477, -615.165527
1733468685.356275, -4.253150, -5.741445, -2.679860, 0.086181, -1.824274, 2.537949, -59.755219, -85.983337, -613.811584
1733468685.366271, -5.263503, -5.900809, -2.683451, -0.048859, -1.697910, 2.687154, -60.673065, -85.177048, -614.116760
1733468685.376272, -6.253804, -6.333262, -3.301155, -0.140921, -1.553071, 2.843362, -61.584274, -84.579681, -613.892639
1733468685.386337, -7.357980, -6.700622, -4.171447, -0.142402, -1.392657, 3.011566, -62.754929, -83.794754, -613.634216
1733468685.396288, -8.743176, -7.135619, -4.785710, -0.113406, -1.249314, 3.145083, -64.321274, -82.803970, -613.179932
1733468685.406273, -10.286388, -7.670573, -5.267543, -0.098831, -1.096223, 3.182009, -65.382996, -81.924057, -613.198608
1733468685.416278, -12.054356, -7.912238, -5.541679, -0.119362, -0.922410, 3.137060, -66.587509, -80.761703, -612.689514
1733468685.426279, -13.910012, -8.289025, -5.696853, -0.164649, -0.744916, 2.984750, -67.571533, -80.071671, -612.056641
1733468685.436290, -15.410429, -9.043947, -6.107160, -0.201302, -0.585329, 2.751180, -68.557343, -79.164673, -612.494873
1733468685.446289, -16.438439, -9.805603, -6.642114, -0.186757, -0.463478, 2.455137, -69.555161, -78.316116, -612.780396
1733468685.455642, -17.091308, -10.370185, -7.114670, -0.107612, -0.364499, 2.118693, -70.122879, -77.553650, -612.512329
1733468685.466275, -17.524958, -10.549301, -7.289596, 0.016128, -0.322166, 1.777918, -70.311020, -77.074280, -612.565063
1733468685.476343, -17.876007, -10.701483, -7.300220, 0.150144, -0.308870, 1.420509, -71.054291, -76.520798, -612.478455
1733468685.486267, -18.089241, -10.709414, -7.210737, 0.275538, -0.306066, 1.037367, -71.447250, -76.226120, -612.111572
1733468685.496266, -18.225860, -10.533589, -6.870760, 0.391057, -0.306275, 0.630521, -71.705750, -76.273636, -611.652954
1733468685.506293, -18.130990, -10.579827, -6.502203, 0.488267, -0.310996, 0.216016, -71.651718, -75.903732, -611.738770
1733468685.516336, -17.755848, -10.738593, -6.257396, 0.547947, -0.288091, -0.189092, -71.659134, -76.194519, -611.389526
1733468685.526278, -17.183934, -10.687118, -6.207117, 0.578933, -0.200178, -0.557045, -71.393570, -76.390015, -610.573303
1733468685.536266, -16.379631, -10.442161, -6.248567, 0.598632, -0.031386, -0.870913, -70.880386, -76.798340, -611.051880
1733468685.546267, -15.392921, -10.101137, -6.343288, 0.605305, 0.222592, -1.117190, -70.745819, -77.141602, -610.807983
1733468685.556327, -14.312837, -9.668086, -6.182128, 0.587212, 0.524679, -1.304572, -69.924988, -77.598938, -610.510010
1733468685.566286, -13.143868, -9.291298, -5.859360, 0.564541, 0.823002, -1.425550, -69.510422, -78.309860, -611.008728
1733468685.576276, -12.077101, -8.880094, -5.168632, 0.540492, 1.053985, -1.489709, -69.063828, -78.705978, -610.869873
1733468685.586278, -11.278934, -8.396615, -4.273500, 0.499112, 1.201249, -1.530487, -68.675461, -79.247437, -610.907410
1733468685.596267, -10.576236, -8.016236, -3.683629, 0.443429, 1.294206, -1.554481, -68.400482, -79.707458, -611.272705
1733468685.606270, -9.902119, -7.866299, -3.525911, 0.392176, 1.394326, -1.541721, -67.953720, -80.184662, -611.429993
1733468685.616267, -9.360730, -7.999626, -3.557784, 0.358411, 1.527106, -1.510531, -67.060196, -80.684982, -612.259155
1733468685.625475, -8.970924, -8.180987, -3.550003, 0.336585, 1.662302, -1.492687, -66.606277, -81.328079, -612.109680
1733468685.636285, -8.776245, -8.161983, -3.516334, 0.314974, 1.779103, -1.518666, -66.239914, -81.720215, -612.515442
1733468685.645782, -8.650251, -7.946355, -3.526958, 0.311944, 1.875712, -1.578360, -65.889267, -82.334244, -612.740234
1733468685.656273, -8.419509, -7.677905, -3.585167, 0.330749, 1.960901, -1.670411, -65.031601, -82.840210, -613.611023
1733468685.666287, -8.052748, -7.419631, -3.530849, 0.366435, 2.027016, -1.770848, -64.450027, -83.171646, -614.359070
1733468685.676277, -7.563882, -7.144896, -3.454683, 0.410515, 2.096371, -1.852330, -63.454346, -83.844269, -614.416443
1733468685.685349, -7.117363, -6.935254, -3.297265, 0.478805, 2.162039, -1.928560, -62.606110, -84.309402, -614.752625
1733468685.696264, -6.727407, -6.688502, -2.930952, 0.552030, 2.197745, -2.008391, -62.052551, -84.718079, -614.552551
1733468685.705423, -6.354810, -6.488286, -2.485481, 0.617056, 2.188687, -2.096727, -60.872681, -85.552383, -615.246826
1733468685.716284, -5.923255, -6.442497, -2.245462, 0.685447, 2.177509, -2.195275, -59.934860, -86.077316, -615.426331
1733468685.726272, -5.568315, -6.499360, -1.973720, 0.752340, 2.176161, -2.313477, -58.998962, -86.664505, -615.033386
1733468685.736261, -5.227141, -6.601113, -1.524807, 0.798820, 2.176746, -2.472479, -57.770081, -87.213638, -615.916382
1733468685.746261, -4.754884, -6.518364, -1.036689, 0.813753, 2.165950, -2.629607, -56.494873, -87.723572, -616.057556
1733468685.756273, -4.214244, -6.142474, -0.615160, 0.799149, 2.206049, -2.765538, -55.187927, -88.195892, -615.740234
1733468685.766277, -3.731513, -5.581034, -0.255731, 0.765502, 2.300285, -2.883760, -53.878845, -88.563766, -615.493225
1733468685.776270, -3.139846, -4.980837, 0.319027, 0.722269, 2.381015, -2.969005, -52.361893, -88.914825, -615.765198
1733468685.786272, -2.418443, -4.294899, 0.997634, 0.688439, 2.404437, -3.008289, -50.968063, -89.457352, -615.542847
1733468685.796270, -1.756446, -3.876212, 1.382053, 0.686399, 2.373301, -3.002291, -49.409668, -89.696899, -615.251709
1733468685.806266, -1.153107, -3.753061, 1.408539, 0.729812, 2.380747, -2.942524, -47.965668, -89.871124, -615.423096
1733468685.816154, -0.863110, -3.831471, 1.289727, 0.787847, 2.542825, -2.865855, -46.403442, -90.006836, -614.836060
1733468685.826261, -0.855329, -3.999215, 1.596484, 0.820407, 2.817774, -2.834448, -45.599274, -90.307053, -614.439575
1733468685.836265, -0.841861, -4.102165, 2.442984, 0.794282, 3.092562, -2.871302, -44.676758, -90.312927, -614.794617
1733468685.846267, -0.733972, -4.523994, 3.727323, 0.724926, 3.217179, -3.041218, -44.676758, -90.312927, -614.794617
1733468685.856277, -0.127641, -4.767454, 4.885219, 0.610553, 3.135831, -3.312719, -41.296173, -90.699844, -614.555176
1733468685.866278, 1.096993, -4.082862, 5.609016, 0.496393, 2.838075, -3.546252, -41.296173, -90.699844, -614.555176
1733468685.876272, 2.699163, -3.468600, 5.543624, 0.442091, 2.459799, -3.688320, -39.649063, -90.457794, -614.236694
1733468685.886090, 4.577115, -2.887108, 4.686201, 0.411985, 2.220846, -3.692332, -37.954987, -90.361618, -614.603516
1733468685.896264, 6.106411, -2.662203, 3.845387, 0.363871, 2.156072, -3.603608, -36.533218, -90.251236, -614.135620
1733468685.906257, 7.412448, -3.164237, 3.478476, 0.252777, 2.176344, -3.597733, -35.341827, -89.996719, -613.773438
1733468685.916271, 9.039757, -3.232172, 3.347244, 0.070539, 2.143924, -3.630612, -33.705536, -89.607742, -613.865601
1733468685.926265, 11.050288, -2.177526, 2.794482, -0.048072, 2.049329, -3.524996, -32.160858, -89.277084, -613.353699
1733468685.936267, 12.884247, -1.243937, 2.067094, -0.007511, 1.951476, -3.230504, -30.630890, -89.227951, -612.777954
1733468685.946160, 14.482376, -0.700903, 1.822436, 0.133114, 1.803788, -2.805182, -29.513306, -88.846603, -613.057312
1733468685.956264, 15.606454, -0.496198, 1.777994, 0.308855, 1.631274, -2.296476, -28.379608, -88.309021, -612.539368
1733468685.966267, 15.918149, -0.731279, 1.643619, 0.452287, 1.571656, -1.779866, -28.042374, -87.901825, -611.742676
1733468685.975933, 15.622016, -1.446696, 1.659930, 0.521398, 1.647117, -1.385457, -27.668640, -87.753540, -611.827942
1733468685.986264, 15.428834, -2.338985, 2.100762, 0.520994, 1.688666, -1.171219, -27.309845, -87.616455, -611.464294
1733468685.995290, 15.495872, -2.342726, 2.900725, 0.513576, 1.561673, -1.029136, -27.507355, -87.257401, -610.568237
1733468686.006275, 15.910368, -1.995118, 3.348441, 0.557236, 1.337812, -0.915634, -27.459702, -87.175156, -610.257935
1733468686.016279, 16.620997, -1.663970, 4.049343, 0.671595, 0.968256, -0.767818, -27.048477, -86.970718, -609.984619
1733468686.026269, 17.164481, -1.132457, 5.098004, 0.771582, 0.415729, -0.562962, -26.886795, -86.778778, -609.894043
1733468686.036258, 17.344345, -1.202787, 5.066280, 0.855729, -0.067741, -0.308088, -26.742157, -86.751770, -608.589294
1733468686.046281, 16.942119, -1.935113, 4.336348, 0.917814, -0.283213, -0.104083, -26.701324, -86.578278, -608.816040
1733468686.056255, 16.657060, -2.794482, 3.731214, 0.914451, -0.218526, 0.048193, -26.853745, -86.446350, -608.381775
1733468686.065996, 16.556503, -3.186682, 3.651906, 0.902234, -0.003112, 0.167016, -26.998581, -86.324585, -608.012024
1733468686.076277, 16.594361, -3.180098, 4.591331, 0.925963, 0.118284, 0.247631, -27.322449, -86.456512, -607.555481
1733468686.086289, 16.989704, -3.039140, 6.089951, 0.958156, -0.003581, 0.357631, -27.408203, -86.493286, -606.858765
1733468686.096270, 17.015442, -2.976142, 7.265205, 0.971422, -0.245202, 0.496375, -27.505295, -86.542084, -606.669373
1733468686.106286, 16.700903, -3.163189, 8.027160, 0.948073, -0.484686, 0.610521, -27.521439, -86.446899, -606.518311
1733468686.116268, 16.496349, -3.300557, 8.578425, 0.873248, -0.674640, 0.745812, -27.581207, -86.337311, -606.287720
1733468686.125587, 16.199019, -3.511097, 8.871864, 0.718854, -0.740501, 0.890051, -27.958939, -86.492950, -605.784790
1733468686.136266, 15.919496, -3.653701, 9.179220, 0.478463, -0.756682, 1.029017, -28.467850, -86.455261, -605.717163
1733468686.146321, 15.688306, -3.601777, 9.260173, 0.222408, -0.841008, 1.166374, -28.835663, -86.759918, -605.824402
1733468686.156280, 15.292365, -3.639037, 9.039159, 0.011145, -1.005180, 1.281492, -29.129456, -86.820282, -605.947632
1733468686.166266, 14.603283, -3.722535, 8.758439, -0.189473, -1.246370, 1.352880, -29.250916, -87.267166, -606.159180
1733468686.176248, 13.727155, -3.659837, 8.017583, -0.333094, -1.501852, 1.396608, -29.849411, -87.444382, -606.412598
1733468686.186255, 13.043461, -4.008193, 6.872556, -0.406741, -1.671474, 1.450938, -30.112198, -87.599884, -606.535034
1733468686.196264, 12.347646, -4.007894, 6.063765, -0.457312, -1.782040, 1.527744, -30.228455, -87.879578, -606.911804
1733468686.206136, 11.773337, -3.740790, 5.300912, -0.495432, -1.797784, 1.652954, -30.683212, -87.906097, -607.245911
1733468686.216310, 11.274745, -3.630956, 4.668693, -0.529448, -1.750697, 1.815011, -31.266846, -88.178360, -607.960632
1733468686.226261, 10.673650, -3.763535, 4.327370, -0.570366, -1.713936, 1.956431, -32.058899, -88.500977, -608.204346
1733468686.236254, 9.913940, -3.802142, 4.213196, -0.626740, -1.732177, 2.060356, -32.875763, -88.791336, -608.747681
1733468686.246316, 9.073725, -3.902998, 4.021511, -0.673277, -1.831956, 2.116081, -33.674927, -89.009491, -609.265564
1733468686.256264, 8.133702, -4.093636, 3.790919, -0.694981, -2.023506, 2.099532, -34.360458, -89.205139, -609.663574
1733468686.266255, 7.249792, -4.394557, 3.369240, -0.665377, -2.302918, 2.009181, -34.944244, -89.524277, -610.054260
1733468686.276252, 6.655581, -4.540454, 2.810344, -0.561125, -2.630897, 1.898068, -35.672531, -89.670715, -610.324463
1733468686.286301, 6.229264, -4.374356, 2.287809, -0.398275, -2.936473, 1.821668, -36.220398, -90.024475, -610.950439
1733468686.296261, 5.887492, -3.959411, 1.886332, -0.230996, -3.138267, 1.821509, -36.571472, -90.045792, -610.891174
1733468686.306258, 5.518934, -3.520374, 1.700781, -0.117406, -3.221140, 1.877390, -37.127777, -90.208099, -610.810608
1733468686.316260, 5.258864, -3.222595, 1.562516, -0.087378, -3.167589, 1.983684, -37.605576, -90.187759, -610.785217
1733468686.325317, 5.130026, -2.954744, 1.332373, -0.107115, -2.974188, 2.148429, -38.700989, -90.434647, -610.735779
1733468686.335380, 4.917541, -2.630629, 1.279850, -0.148243, -2.721038, 2.365706, -39.398956, -90.392899, -611.203735
1733468686.346249, 4.545392, -2.441487, 1.458967, -0.207339, -2.520561, 2.610484, -40.567657, -90.498657, -611.358765
1733468686.356266, 3.952827, -2.510320, 1.532888, -0.272819, -2.400443, 2.846967, -41.647217, -90.467834, -611.411621
1733468686.365435, 3.055450, -2.645593, 1.419762, -0.333340, -2.318878, 3.050876, -43.260010, -90.377701, -611.402832
1733468686.376277, 1.995417, -2.826505, 1.298555, -0.391501, -2.257928, 3.204932, -44.619507, -90.296814, -611.779785
1733468686.386266, 0.957232, -3.037494, 1.000028, -0.431151, -2.162666, 3.339082, -46.281937, -90.094727, -611.504028
1733468686.396263, 0.028132, -3.417124, 0.713921, -0.485122, -2.016093, 3.442989, -47.755798, -89.819397, -612.047974
1733468686.406260, -0.784700, -3.904943, 0.544082, -0.597395, -1.814035, 3.527171, -49.254257, -89.500809, -611.873474
1733468686.416240, -1.579425, -4.525041, 0.429310, -1.007531, -1.444691, 3.571556, -51.045639, -89.121262, -612.174377
1733468686.426247, -4.034529, -6.116287, 0.049081, -1.143148, -1.471513, 3.403080, -52.964371, -88.876816, -612.104492
1733468686.436255, -4.893599, -6.644658, -0.828843, -1.135160, -1.578105, 3.160857, -54.534119, -88.233002, -613.434448
1733468686.446259, -4.893599, -6.644658, -0.828843, -1.135160, -1.578105, 3.160857, -55.743317, -87.771942, -613.404541
1733468686.456258, -5.298817, -6.410325, -2.081459, -0.851753, -1.793402, 2.876353, -56.891647, -87.017960, -613.537048
1733468686.466247, -5.527912, -5.923105, -2.180070, -0.788140, -1.833631, 2.879575, -57.980087, -86.391541, -613.277588
1733468686.476244, -6.101922, -5.891232, -2.495207, -0.801055, -1.778308, 2.900763, -59.277313, -85.831421, -613.238708
1733468686.486240, -6.875848, -6.205322, -3.023577, -0.834793, -1.624387, 2.913106, -60.558182, -85.083817, -613.332764
1733468686.496242, -7.681946, -6.590489, -3.571700, -0.872829, -1.434239, 2.890864, -61.601440, -84.362000, -613.427673
1733468686.506237, -8.195652, -6.851607, -4.599561, -0.842469, -1.199635, 2.854148, -62.797394, -83.591125, -613.210022
1733468686.516248, -8.290522, -7.061399, -5.327398, -0.673394, -1.017021, 2.821401, -63.991745, -82.967392, -613.381592
1733468686.526129, -8.169465, -6.788310, -5.090522, -0.424257, -1.048589, 2.815949, -65.248215, -82.214890, -612.464478
1733468686.536248, -7.905205, -6.318597, -4.494066, -0.135958, -1.290615, 2.851042, -66.250259, -81.346603, -613.367371
1733468686.546253, -8.143278, -6.240187, -3.822044, 0.117868, -1.663549, 2.897459, -67.628540, -80.315857, -612.890198
1733468686.556252, -9.578602, -6.687454, -3.290830, 0.217843, -1.955422, 2.818718, -68.402130, -79.396423, -612.477234
1733468686.566244, -11.481693, -7.535301, -3.444957, 0.133560, -2.013833, 2.560956, -69.530029, -78.459991, -611.200745
1733468686.576244, -12.824840, -8.225579, -4.631433, 0.013257, -1.796628, 2.217649, -70.280533, -77.645050, -610.998169
1733468686.586242, -13.372065, -8.653094, -6.071695, -0.006301, -1.389045, 1.902234, -70.853729, -76.885223, -610.451355
1733468686.596241, -13.123966, -8.801684, -6.527192, 0.071328, -1.027567, 1.702199, -71.053864, -76.201355, -609.971985
1733468686.606238, -12.799252, -8.702773, -6.184223, 0.189487, -0.820191, 1.589315, -71.605362, -75.437027, -609.326050
1733468686.616243, -12.990190, -8.646061, -5.775862, 0.283660, -0.709579, 1.487524, -72.130569, -74.987778, -608.985779
1733468686.626244, -13.665205, -8.936358, -5.293730, 0.350678, -0.696864, 1.339442, -72.547058, -74.641922, -608.051697
1733468686.636251, -14.641142, -9.556306, -4.883274, 0.392200, -0.761657, 1.108123, -73.128143, -74.009872, -608.379517
1733468686.646096, -15.469984, -10.130466, -5.020192, 0.423208, -0.783233, 0.806956, -73.456787, -73.647064, -608.203430
1733468686.656257, -15.772701, -10.348338, -5.471499, 0.482209, -0.710635, 0.493063, -73.585342, -73.242371, -606.905457
1733468686.666263, -15.654936, -10.176554, -5.489156, 0.547105, -0.616745, 0.236128, -73.049515, -73.107773, -606.688782
1733468686.675835, -15.380501, -9.903017, -5.226991, 0.564766, -0.425967, 0.053116, -73.111450, -72.997681, -606.693298
1733468686.686248, -15.042021, -10.055946, -4.749498, 0.498289, -0.186327, -0.062928, -73.040894, -72.997101, -606.213989
1733468686.696244, -15.115942, -10.095451, -4.305223, 0.369627, 0.082241, -0.177365, -72.930557, -72.949280, -606.227783
1733468686.706242, -15.362844, -10.029610, -4.041113, 0.237700, 0.338035, -0.330605, -73.140442, -73.085327, -606.355591
1733468686.716258, -15.452776, -10.114903, -3.922301, 0.138991, 0.534224, -0.514521, -72.766220, -73.111282, -606.398682
1733468686.726247, -15.355212, -10.041431, -4.085855, 0.108002, 0.683624, -0.709210, -72.782791, -73.659256, -605.774353
1733468686.736245, -15.037382, -9.906309, -4.332906, 0.128311, 0.823058, -0.894087, -72.511200, -74.087082, -606.961914
1733468686.746240, -14.649521, -9.689334, -4.284125, 0.179854, 0.918732, -1.081845, -72.360291, -74.291290, -607.126343
1733468686.756243, -14.206893, -9.342474, -4.092888, 0.246110, 1.003329, -1.256132, -72.068130, -74.907959, -607.460327
1733468686.766238, -13.779379, -8.951022, -3.612401, 0.291312, 1.026953, -1.439005, -71.753830, -75.441864, -607.793579
1733468686.776238, -13.377303, -8.722077, -3.133112, 0.314552, 1.017825, -1.626191, -71.443405, -75.953766, -608.036194
1733468686.786237, -13.156737, -8.621371, -2.852542, 0.306157, 1.038507, -1.830171, -70.807083, -76.470306, -608.009521
1733468686.796234, -12.747328, -8.543409, -2.946215, 0.280783, 1.174977, -2.034349, -70.113220, -77.363068, -608.475220
1733468686.806234, -12.023980, -8.361001, -2.819472, 0.246512, 1.341979, -2.210075, -69.579758, -77.990524, -608.923828
1733468686.816243, -11.148151, -7.935731, -2.501941, 0.216538, 1.485064, -2.351797, -68.882858, -78.841431, -608.951050
1733468686.826238, -10.263943, -7.454347, -2.247258, 0.211355, 1.583519, -2.448006, -68.168701, -79.779419, -608.958130
1733468686.836245, -9.395296, -7.211186, -1.986290, 0.240854, 1.652221, -2.511546, -67.201202, -80.503525, -610.261108
1733468686.846236, -8.605958, -7.017555, -1.492635, 0.262336, 1.670993, -2.563247, -66.451462, -81.146805, -610.384338
1733468686.856247, -7.939771, -6.805069, -1.225083, 0.274070, 1.697484, -2.608072, -65.490723, -82.080063, -610.631775
1733468686.866291, -7.321618, -6.641815, -1.084873, 0.279819, 1.749588, -2.658808, -64.505585, -83.047302, -611.414368
1733468686.876235, -6.711695, -6.390573, -0.749086, 0.268721, 1.776413, -2.720991, -63.357178, -83.656296, -611.975769
1733468686.886228, -6.114342, -6.083068, -0.520739, 0.234079, 1.788382, -2.788286, -62.468399, -84.404037, -612.315857
1733468686.896279, -5.569661, -5.846940, -0.584036, 0.198537, 1.836964, -2.852952, -61.266159, -85.113007, -612.087769
1733468686.906244, -4.953304, -5.608866, -0.828244, 0.184188, 1.936471, -2.903321, -60.013687, -85.870483, -612.215576
1733468686.916249, -4.242525, -5.363311, -0.886154, 0.194552, 2.049382, -2.939467, -58.995087, -86.480759, -613.163696
1733468686.926284, -3.432537, -5.092916, -0.735768, 0.211720, 2.125742, -2.971536, -57.863297, -86.991470, -612.660034
1733468686.936231, -2.622399, -4.941483, -0.502184, 0.223930, 2.173278, -3.008889, -56.184204, -87.597397, -613.493530
1733468686.946244, -1.929427, -4.660613, -0.004938, 0.209702, 2.174055, -3.053722, -55.108505, -88.052994, -613.805298
1733468686.956235, -1.189769, -4.379743, 0.534506, 0.158049, 2.077968, -3.127798, -53.824036, -88.748505, -614.294373
1733468686.966285, -0.414795, -4.032733, 0.621595, 0.101005, 1.951973, -3.185610, -52.324921, -89.184006, -614.269775
1733468686.976237, 0.328754, -3.628413, 0.418686, 0.068343, 1.850084, -3.205666, -50.719742, -89.542526, -614.372314
1733468686.986252, 1.181090, -3.277812, 0.103549, 0.050096, 1.819294, -3.170678, -49.082184, -89.679840, -614.362854
1733468686.996238, 1.949329, -3.167978, -0.238223, 0.035228, 1.879922, -3.075855, -47.686127, -90.171326, -614.056030
1733468687.006235, 2.431162, -3.037045, -0.337134, -0.005881, 1.979725, -2.985073, -46.286514, -90.263779, -614.687378
1733468687.016243, 2.828001, -2.915090, -0.504578, -0.056280, 2.060125, -2.916921, -44.646088, -90.409393, -614.966064
1733468687.026233, 3.303400, -2.805406, -0.751480, -0.060419, 2.095116, -2.852225, -43.522324, -90.415863, -614.541992
1733468687.036233, 3.618686, -2.822913, -0.946458, -0.043102, 2.062697, -2.810484, -41.840836, -90.530792, -615.166138
1733468687.046284, 3.660884, -2.792986, -1.178396, 0.009515, 1.981488, -2.799517, -40.820984, -90.649155, -615.182983
1733468687.056119, 3.767127, -2.729390, -1.372027, 0.137316, 1.840383, -2.798930, -39.240616, -90.557388, -615.045532
1733468687.065962, 3.961207, -2.641702, -1.531691, 0.333207, 1.690393, -2.769271, -38.047028, -90.423584, -614.998352
1733468687.076238, 3.870826, -2.740613, -1.504905, 0.528362, 1.603138, -2.746542, -36.659668, -90.287766, -614.800354
1733468687.086288, 3.901801, -3.031807, -1.379060, 0.667242, 1.649834, -2.758825, -35.325928, -90.231964, -614.551697
1733468687.096238, 4.105906, -3.353977, -0.977882, 0.769283, 1.752848, -2.815938, -34.326920, -89.997162, -614.027344
1733468687.106230, 4.754436, -3.380912, -0.112677, 0.822665, 1.825059, -2.906986, -33.312897, -89.605728, -613.312012
1733468687.116292, 5.814768, -3.211373, 0.960524, 0.817772, 1.778900, -2.999938, -32.338486, -89.357498, -612.801331
1733468687.126236, 6.978649, -2.981080, 1.983446, 0.787600, 1.583387, -3.076683, -30.627319, -89.160645, -611.675903
1733468687.136228, 8.047959, -2.782511, 2.665495, 0.741373, 1.358106, -3.114223, -29.470200, -88.532242, -611.748779
1733468687.146287, 9.041852, -2.738817, 2.876184, 0.674262, 1.250082, -3.103752, -28.112106, -88.309250, -611.231689
1733468687.155481, 10.318560, -2.619257, 2.919729, 0.596347, 1.299364, -3.027691, -27.002884, -87.739609, -611.055786
1733468687.166241, 11.837083, -2.437297, 3.378069, 0.516747, 1.356057, -2.892200, -26.043182, -87.231995, -610.519592
1733468687.176228, 13.516914, -2.324620, 3.836409, 0.434755, 1.365685, -2.705720, -25.296982, -86.690369, -610.052429
1733468687.186231, 15.071799, -2.140716, 4.334104, 0.344640, 1.313993, -2.499106, -24.899551, -86.258621, -610.126831
1733468687.196227, 16.389657, -2.260426, 4.868908, 0.217515, 1.153010, -2.325059, -24.100677, -85.877396, -609.695312
1733468687.206228, 17.654244, -2.502988, 5.099051, 0.093408, 0.923024, -2.196044, -23.349670, -85.468796, -609.679688
1733468687.216230, 18.680310, -2.332102, 5.334880, -0.009558, 0.595962, -2.070178, -22.561356, -85.094101, -609.212830
1733468687.226067, 19.462914, -1.853711, 5.290587, -0.100141, 0.253529, -1.895254, -21.583206, -84.860855, -608.630371
1733468687.236233, 20.000712, -1.598728, 4.521899, -0.157006, 0.065137, -1.649679, -21.099609, -84.306076, -609.508545
1733468687.246237, 20.352959, -1.475726, 3.807230, -0.181383, 0.051210, -1.332611, -20.626297, -84.106186, -609.695557
1733468687.256063, 20.562601, -1.348833, 3.550451, -0.217124, 0.118996, -0.985892, -20.190567, -83.944901, -609.287842
1733468687.266229, 20.549283, -1.237653, 3.553295, -0.251490, 0.167831, -0.634987, -19.991959, -83.717499, -609.262207
1733468687.276240, 20.317195, -1.199944, 3.681983, -0.266273, 0.158974, -0.300918, -19.785095, -83.833939, -609.355530
1733468687.286222, 20.045753, -1.201291, 3.921253, -0.258093, 0.045473, 0.013453, -20.006851, -83.956284, -609.500977
1733468687.296237, 19.642180, -1.350629, 4.004153, -0.241489, -0.145308, 0.281849, -20.238434, -84.064026, -609.785767
1733468687.306230, 19.153464, -1.397765, 4.030638, -0.222707, -0.389451, 0.524556, -20.187088, -84.055832, -609.794434
1733468687.316234, 18.437597, -1.549048, 3.812018, -0.223555, -0.608046, 0.745002, -20.428406, -84.258072, -609.926880
1733468687.326230, 17.528549, -1.674744, 3.341557, -0.236981, -0.749763, 0.943716, -20.419586, -84.609009, -609.869263
1733468687.336230, 16.594212, -1.719635, 2.807052, -0.249021, -0.804113, 1.141354, -20.419586, -84.609009, -609.869263
1733468687.346252, 15.714792, -1.783381, 2.320430, -0.240781, -0.794673, 1.343158, -20.704041, -84.917648, -610.762939
1733468687.356240, 14.972439, -1.943792, 2.085948, -0.199918, -0.786961, 1.548806, -21.199936, -85.258926, -611.192932
1733468687.366231, 14.235773, -2.043451, 2.046444, -0.158129, -0.796592, 1.751403, -21.660980, -85.428757, -611.374268
1733468687.376233, 13.409923, -2.288258, 2.087295, -0.134502, -0.822470, 1.919962, -22.395920, -85.887375, -611.556030
1733468687.386235, 12.612505, -2.597110, 2.136376, -0.125488, -0.906994, 2.037435, -23.387741, -86.329437, -611.173706
1733468687.396229, 11.868357, -2.835483, 2.093879, -0.113889, -1.036948, 2.109127, -24.071808, -86.715790, -611.804810
1733468687.406218, 11.097125, -2.998738, 1.996914, -0.088452, -1.200979, 2.137860, -24.848221, -86.838699, -611.717163
1733468687.416239, 10.241647, -3.099144, 1.917007, -0.052872, -1.418048, 2.128503, -25.420212, -87.391983, -612.252686
1733468687.426292, 9.488670, -3.289932, 1.582717, 0.009343, -1.611795, 2.100495, -26.260376, -87.824112, -612.290771
1733468687.436221, 8.788965, -3.461417, 1.271920, 0.079193, -1.746871, 2.067264, -26.716461, -88.236938, -611.934631
1733468687.446216, 8.215703, -3.475782, 1.272069, 0.106845, -1.834066, 2.044653, -27.708405, -88.420349, -612.372620
1733468687.456281, 7.945607, -3.463063, 0.970998, 0.099499, -1.833916, 2.084284, -28.299133, -88.585815, -613.118652
1733468687.466221, 7.715913, -3.431340, 0.555305, 0.106093, -1.760152, 2.182856, -29.137100, -89.050034, -613.100098
1733468687.476222, 7.424419, -3.343353, 0.516399, 0.117122, -1.672482, 2.308466, -30.069809, -89.303253, -613.200928
1733468687.486275, 7.003489, -3.351583, 0.637606, 0.108168, -1.614595, 2.434347, -31.357010, -89.529510, -613.074097
1733468687.496220, 6.412121, -3.458125, 0.832883, 0.076456, -1.567156, 2.546944, -32.444962, -89.827332, -613.263306
1733468687.506219, 5.691616, -3.824139, 1.121534, 0.028644, -1.579746, 2.581392, -33.624924, -89.776733, -613.501160
1733468687.516243, 4.989067, -4.236689, 1.393725, -0.012846, -1.704388, 2.541277, -34.892319, -90.153412, -613.539551
1733468687.526239, 4.365378, -4.413411, 1.385345, -0.024046, -1.890140, 2.471163, -35.997726, -90.248871, -613.395264
1733468687.536231, 3.935768, -4.662708, 1.132457, -0.000834, -2.061221, 2.395602, -36.670959, -90.600403, -613.256348
1733468687.546230, 3.832518, -4.753388, 0.768838, 0.046879, -2.167805, 2.372008, -38.014755, -90.579636, -613.820312
1733468687.556221, 3.888034, -4.467431, 0.481534, 0.089753, -2.168511, 2.436397, -38.772263, -90.531860, -613.908447
1733468687.566231, 3.752163, -4.071041, 0.408810, 0.070368, -2.065584, 2.562081, -39.713989, -90.863220, -613.950928
1733468687.576239, 3.567660, -3.944597, 0.417788, -0.020633, -1.894115, 2.710237, -41.155701, -90.972504, -613.867432
1733468687.586225, 3.202544, -3.965396, 0.536600, -0.170134, -1.695476, 2.856818, -42.454330, -90.799713, -613.960876
1733468687.596217, 2.729988, -3.914071, 0.709282, -0.361303, -1.513472, 2.986480, -44.051788, -90.706863, -613.987000
1733468687.606277, 2.019359, -3.917064, 0.733673, -0.547248, -1.423908, 3.069113, -45.621490, -90.577835, -614.395508
1733468687.616237, 1.362151, -4.160225, 0.441132, -0.693190, -1.414642, 3.100360, -47.213821, -90.546021, -614.517456
1733468687.626232, 0.727538, -4.299537, -0.052523, -0.773222, -1.501331, 3.098798, -48.652832, -90.224228, -614.792847
1733468687.636223, 0.089932, -4.388871, -0.793827, -0.751100, -1.659201, 3.078699, -50.238571, -89.727249, -614.833984
1733468687.646221, -0.487220, -4.573075, -1.685817, -0.635612, -1.784219, 3.053361, -51.524307, -89.359421, -615.138123
1733468687.656215, -1.231218, -4.607491, -2.325967, -0.470344, -1.837271, 3.062090, -52.721756, -88.882675, -615.121460
1733468687.666213, -2.127996, -4.827908, -2.713079, -0.316527, -1.754678, 3.073329, -54.339523, -88.493759, -614.829102
1733468687.676225, -3.032855, -5.411345, -2.573168, -0.222324, -1.682537, 3.020246, -55.915619, -87.977158, -614.698914
1733468687.686226, -3.891176, -5.908291, -2.419939, -0.161394, -1.721554, 2.904082, -57.074310, -87.575241, -614.463257
1733468687.696213, -4.685902, -6.023362, -2.724751, -0.067203, -1.781225, 2.760250, -58.316879, -86.930176, -614.011597
1733468687.706218, -5.291036, -6.108357, -3.000084, 0.036001, -1.821943, 2.591082, -59.706497, -86.214478, -613.704956
1733468687.716232, -5.566369, -6.102521, -3.097498, 0.121181, -1.867972, 2.497828, -60.195450, -85.683167, -613.178345
1733468687.726224, -5.894524, -5.874922, -3.273771, 0.189409, -1.846534, 2.525817, -61.200043, -84.962677, -612.835571
1733468687.736218, -6.546047, -6.032640, -3.487604, 0.227749, -1.719277, 2.619387, -62.196899, -84.301987, -611.889160
1733468687.746230, -7.353940, -6.267272, -3.557484, 0.213679, -1.549372, 2.764616, -62.961090, -83.454773, -612.001465
1733468687.756263, -8.440309, -6.615179, -3.534141, 0.149223, -1.318347, 2.907085, -64.279343, -82.490051, -611.684692
1733468687.766216, -9.716119, -7.290943, -3.462165, 0.013069, -1.079137, 2.967450, -65.387238, -81.709183, -611.106323
1733468687.776213, -10.976966, -7.862109, -3.684976, -0.166048, -0.820670, 2.940253, -66.429779, -80.726959, -610.872803
1733468687.786210, -12.174815, -8.211214, -4.056825, -0.310215, -0.579543, 2.843854, -67.428772, -79.897125, -610.517578
1733468687.796207, -13.465888, -8.870816, -4.157232, -0.394592, -0.506985, 2.632642, -68.331924, -79.125977, -611.175049
1733468687.806267, -14.557494, -9.514258, -4.423736, -0.393396, -0.578793, 2.346587, -69.232697, -78.299881, -610.729675
1733468687.816231, -15.379753, -9.884013, -4.897788, -0.343935, -0.689302, 2.031474, -70.009216, -77.335312, -610.641479
1733468687.826228, -16.069433, -10.256461, -5.449353, -0.287012, -0.754789, 1.696470, -70.182693, -76.870895, -610.232300
1733468687.836207, -16.491411, -10.575189, -6.171354, -0.238718, -0.683565, 1.391192, -70.780655, -76.247894, -610.470703
1733468687.846222, -16.649428, -10.748170, -6.777536, -0.198233, -0.506153, 1.121704, -70.854996, -75.921677, -610.133240
1733468687.856220, -16.621595, -10.677242, -7.118710, -0.128747, -0.306587, 0.900713, -71.092987, -75.637665, -610.274536
1733468687.865988, -16.729334, -10.550947, -7.162254, -0.030140, -0.137219, 0.691181, -71.418076, -75.327988, -609.930481
1733468687.875976, -16.885257, -10.745027, -7.014412, 0.068775, -0.025064, 0.449529, -71.845901, -75.256912, -609.871460
1733468687.886210, -16.869994, -11.114632, -7.074118, 0.174250, 0.071764, 0.185602, -71.922470, -75.184769, -609.992249
1733468687.896259, -16.863709, -11.293449, -7.118261, 0.282640, 0.202802, -0.097913, -71.994186, -75.151062, -610.583496
1733468687.906218, -16.778865, -11.132888, -6.686257, 0.362797, 0.354461, -0.395684, -71.788879, -75.331970, -609.707031
1733468687.916229, -16.437541, -10.714501, -6.014983, 0.393129, 0.486160, -0.676746, -71.266525, -75.699524, -609.788574
1733468687.926278, -15.880740, -10.223989, -5.553351, 0.412299, 0.618272, -0.919729, -71.246002, -75.963531, -609.605957
1733468687.936207, -15.294459, -9.929353, -5.136460, 0.405166, 0.765783, -1.137024, -70.912491, -76.429611, -610.292297
1733468687.946210, -14.598645, -9.733028, -4.756231, 0.369691, 0.923560, -1.341308, -70.627274, -76.853500, -610.585876
1733468687.956267, -13.732841, -9.560646, -4.557512, 0.352731, 1.064967, -1.524943, -69.988342, -77.441437, -610.937012
1733468687.966210, -12.843096, -9.350704, -4.346823, 0.366135, 1.173072, -1.675556, -69.762070, -78.019028, -610.870300
1733468687.976208, -12.014254, -9.096021, -4.038420, 0.386115, 1.256158, -1.807453, -69.075211, -78.658081, -611.318237
1733468687.986279, -11.255441, -8.807370, -3.709815, 0.407422, 1.328049, -1.911231, -68.575989, -79.180740, -611.747253
1733468687.996215, -10.605565, -8.457218, -3.302053, 0.412974, 1.401244, -2.017015, -68.026505, -80.014709, -611.951416
1733468688.006209, -10.054001, -8.034492, -2.902670, 0.400226, 1.436408, -2.122594, -66.796631, -80.679611, -612.173340
1733468688.016221, -9.462334, -7.608773, -2.731186, 0.399117, 1.487429, -2.225330, -65.997696, -81.436768, -612.203125
1733468688.026211, -8.802133, -7.409755, -2.623895, 0.393842, 1.566774, -2.316020, -65.155579, -82.126328, -612.095032
1733468688.036216, -8.201487, -7.175422, -2.437148, 0.375555, 1.657986, -2.387775, -64.254288, -82.917587, -613.101562
1733468688.046202, -7.490559, -7.026832, -2.411859, 0.363103, 1.821486, -2.450478, -63.314987, -83.582733, -613.334900
1733468688.056204, -6.619519, -7.165995, -2.282422, 0.373239, 1.990227, -2.483979, -62.347443, -84.245300, -613.802246
1733468688.066224, -5.836166, -7.072322, -1.934665, 0.400210, 2.114309, -2.494894, -61.412506, -84.954178, -614.134399
1733468688.076216, -5.235969, -6.765266, -1.414674, 0.439453, 2.180402, -2.513578, -60.197006, -85.625946, -614.469482
1733468688.086258, -4.753238, -6.439505, -0.793229, 0.476438, 2.146054, -2.555497, -59.348099, -86.191376, -614.835388
1733468688.096205, -4.322432, -5.991939, -0.363320, 0.497724, 2.068949, -2.611302, -58.189453, -86.708054, -614.771240
1733468688.106203, -3.876661, -5.555146, -0.256628, 0.501931, 2.017221, -2.666409, -57.023453, -87.315765, -615.002930
1733468688.116216, -3.368642, -5.289689, -0.230592, 0.494332, 2.007725, -2.719138, -55.481171, -87.795776, -615.194946
1733468688.126276, -2.827403, -5.091419, -0.254534, 0.473427, 2.039080, -2.753366, -54.291870, -88.229645, -614.684631
1733468688.136204, -2.319981, -5.133917, -0.374244, 0.449564, 2.125880, -2.795111, -53.069717, -88.801117, -615.864990
1733468688.146220, -1.750461, -5.272032, -0.342221, 0.452086, 2.219160, -2.848459, -51.792862, -89.108307, -615.818298
1733468688.156202, -1.199345, -5.075558, -0.048483, 0.453880, 2.266210, -2.915147, -50.810944, -89.477341, -615.825439
1733468688.166218, -0.608875, -4.665401, 0.226252, 0.451363, 2.272973, -2.980670, -49.107925, -89.799362, -615.333984
1733468688.176246, -0.034117, -4.218434, 0.484527, 0.453147, 2.211604, -3.040745, -47.737045, -89.959000, -615.491455
1733468688.186207, 0.525527, -3.742137, 0.506374, 0.462019, 2.137942, -3.085789, -46.062363, -90.403915, -615.679443
1733468688.196205, 1.094898, -3.345448, 0.492158, 0.484160, 2.053056, -3.104484, -44.606186, -90.514236, -615.405762
1733468688.206218, 1.588254, -2.909105, 0.366462, 0.529130, 1.958334, -3.082412, -43.053452, -90.485535, -614.897827
1733468688.216208, 1.961899, -2.833837, -0.095768, 0.600073, 1.975137, -3.037184, -41.617386, -90.559662, -614.877380
1733468688.226208, 2.394052, -2.895937, -0.371101, 0.678443, 2.090535, -2.987004, -40.159668, -90.633026, -614.026978
1733468688.236205, 2.759317, -2.827851, -0.273837, 0.769820, 2.214325, -2.943842, -39.139450, -90.542572, -614.175781
1733468688.246203, 3.073407, -2.797026, 0.274735, 0.853699, 2.292752, -2.947064, -38.020050, -90.296173, -613.635010
1733468688.256204, 3.554043, -2.569278, 1.381604, 0.887652, 2.217567, -2.992210, -36.599548, -90.170288, -613.138672
1733468688.266255, 4.220678, -2.244414, 2.226757, 0.890174, 2.009336, -3.033038, -35.577469, -90.130814, -612.458435
1733468688.276202, 4.796933, -2.307412, 2.534711, 0.905391, 1.792324, -3.072938, -34.169662, -89.667816, -611.716980
1733468688.286202, 5.175067, -2.372055, 2.686145, 0.908181, 1.642030, -3.118415, -32.722870, -89.321167, -611.341003
1733468688.296201, 5.830779, -2.389563, 2.650830, 0.890310, 1.612387, -3.146888, -31.570496, -88.849716, -610.798035
1733468688.306249, 6.869264, -2.444929, 2.509722, 0.866811, 1.725818, -3.107810, -30.001633, -88.498047, -609.958130
1733468688.316018, 7.988852, -2.160468, 2.745102, 0.824850, 1.930037, -3.006790, -29.178284, -88.097504, -609.949402
1733468688.326208, 9.327810, -2.003498, 3.347393, 0.707437, 2.152234, -2.915195, -28.417984, -87.873764, -608.073303
1733468688.336221, 11.094431, -1.747318, 4.227113, 0.546181, 2.220380, -2.763911, -27.782135, -87.281128, -608.318359
1733468688.346262, 12.867637, -1.197699, 4.709245, 0.436630, 2.160771, -2.514758, -26.898392, -87.142746, -607.748413
1733468688.356198, 14.344859, -1.018434, 5.086033, 0.386853, 1.988964, -2.220316, -26.458893, -86.759201, -607.702637
1733468688.366210, 15.559767, -1.415123, 5.449951, 0.353759, 1.750263, -1.916883, -26.093597, -86.483505, -607.675598
1733468688.376200, 16.489914, -1.956362, 5.419275, 0.328727, 1.573907, -1.606544, -25.856155, -86.040894, -606.920288
1733468688.386236, 17.177948, -2.544438, 5.545719, 0.292166, 1.482913, -1.358849, -25.950256, -85.908829, -607.079346
1733468688.396199, 18.052430, -3.267786, 6.051045, 0.209318, 1.388730, -1.215802, -25.809677, -85.736496, -607.434143
1733468688.406199, 19.238458, -3.337218, 6.558616, 0.108912, 1.214584, -1.087597, -25.400101, -85.588226, -606.838745
1733468688.416207, 20.422391, -2.848801, 6.975656, 0.052536, 0.950971, -0.912729, -25.467728, -85.476318, -606.578186
1733468688.426210, 21.195119, -2.386121, 7.425317, 0.034879, 0.607816, -0.679325, -25.087509, -85.211609, -605.519775
1733468688.436206, 21.474493, -2.175431, 7.669975, 0.029710, 0.237772, -0.409532, -24.963348, -85.055054, -606.627441
1733468688.446202, 21.295227, -2.234239, 7.445967, 0.036837, -0.032197, -0.132563, -24.876724, -85.226471, -606.559082
1733468688.456213, 20.801423, -2.299182, 7.091925, 0.047996, -0.167482, 0.152372, -25.142960, -85.019104, -606.222900
1733468688.466195, 20.167707, -2.311003, 7.002591, 0.038469, -0.213518, 0.420757, -25.055344, -85.258057, -606.182617
1733468688.476198, 19.630059, -2.352453, 7.159860, 0.017117, -0.260440, 0.671865, -25.266495, -85.300247, -606.113525
1733468688.486210, 19.035400, -2.433706, 7.514352, -0.002885, -0.378067, 0.901938, -25.595703, -85.528381, -606.771057
1733468688.496208, 18.234090, -2.617461, 7.833678, -0.036761, -0.542722, 1.092901, -26.164368, -85.756958, -606.612671
1733468688.506198, 17.296611, -2.963722, 8.049605, -0.110319, -0.724268, 1.217110, -26.246124, -86.137314, -606.742676
1733468688.516216, 16.334142, -3.186682, 8.185775, -0.195026, -0.966334, 1.293302, -26.678574, -86.127472, -607.304199
1733468688.526201, 15.340099, -3.198653, 8.154651, -0.272764, -1.278478, 1.341772, -26.687454, -86.652390, -607.615601
1733468688.536206, 14.384663, -3.189526, 7.715315, -0.322017, -1.588406, 1.387540, -27.051590, -86.868134, -607.595215
