SamplingTime, AccelerationX, AccelerationY, AccelerationZ, GyroX, GyroY, GyroZ, MagneticFieldX, MagneticFieldY, MagneticFieldZ
1733468545.874444, 1.971625, -8.898799, -2.543540, -0.197168, 0.412906, -0.062264, -45.290024, -72.566544, -654.175476
1733468545.884657, 1.789067, -8.935759, -1.837699, -0.289822, 0.314018, -0.103353, -45.502563, -72.691940, -653.962891
1733468545.893731, 1.564760, -9.181614, -1.481712, -0.468286, 0.123057, -0.186055, -45.378510, -72.322342, -654.551147
1733468545.904320, 1.564760, -9.181614, -1.481712, -0.615309, -0.062747, -0.263645, -45.378510, -72.322342, -654.551147
1733468545.914674, 1.812111, -9.208548, -2.527828, -0.751124, -0.176441, -0.322581, -45.216156, -71.748978, -654.339172
1733468545.924676, 1.622521, -9.384672, -3.423559, -0.981265, 0.013747, -0.369028, -44.627853, -71.233704, -655.918701
1733468545.934668, 1.403152, -9.376741, -4.159925, -1.259743, 0.514432, -0.435828, -44.441711, -70.784439, -655.293518
1733468545.943732, 1.415123, -8.991424, -4.288614, -1.499538, 1.110038, -0.524652, -43.704010, -70.121948, -656.642212
1733468545.954445, 1.775600, -8.610746, -3.817106, -1.634180, 1.459405, -0.614152, -42.982452, -69.745316, -657.069336
1733468545.964668, 2.381782, -8.574085, -3.232172, -1.677533, 1.405870, -0.691808, -42.329529, -69.083191, -657.410339
1733468545.974678, 2.754529, -8.700828, -2.865111, -1.651381, 1.075800, -0.761947, -42.027924, -68.399139, -658.585571
1733468545.984670, 2.825607, -8.886229, -2.778770, -1.597564, 0.629511, -0.819682, -41.392532, -67.866547, -658.608765
1733468545.993745, 2.604442, -9.038411, -3.006219, -1.576158, 0.252845, -0.898104, -40.934814, -67.194138, -659.700684
1733468546.004585, 2.170942, -9.061904, -3.410989, -1.647935, 0.048899, -1.023200, -40.737762, -66.447830, -659.560120
1733468546.014661, 1.884237, -8.961946, -3.909133, -1.774414, 0.019310, -1.175975, -40.507980, -65.832443, -659.589233
1733468546.024678, 1.844732, -8.894758, -4.363133, -1.812570, -0.004242, -1.388337, -39.864182, -64.882858, -661.124146
1733468546.034667, 1.963694, -8.668955, -5.051616, -1.732341, -0.092277, -1.625482, -39.595795, -64.358917, -660.804016
1733468546.043761, 2.241721, -7.845051, -6.274754, -1.513287, -0.079893, -1.769812, -39.595795, -64.358917, -660.804016
1733468546.054671, 2.991256, -6.982540, -7.076362, -1.139493, -0.114419, -1.751484, -38.660904, -63.320618, -661.848694
1733468546.064354, 3.677045, -6.250812, -7.234679, -0.793043, -0.199359, -1.530291, -38.458847, -63.175735, -661.054749
1733468546.074610, 4.062062, -6.073042, -7.151929, -0.501289, -0.456819, -1.333150, -38.497681, -62.878372, -661.914673
1733468546.084665, 3.937414, -5.830031, -7.299771, -0.280552, -0.555795, -1.164467, -38.691605, -62.977249, -661.124390
1733468546.093773, 3.700239, -5.318420, -6.254403, -0.285459, -0.669987, -1.073409, -38.691605, -62.977249, -661.124390
1733468546.104662, 3.970634, -5.961412, -5.598242, -0.296560, -0.977754, -0.979814, -39.091339, -62.537933, -661.894714
1733468546.113726, 3.601029, -6.398205, -5.612757, -0.202362, -1.226431, -0.851147, -39.091339, -62.537933, -661.894714
1733468546.124643, 3.139995, -6.670395, -5.167884, -0.008863, -1.677454, -0.754881, -40.462219, -62.837250, -661.910828
1733468546.134658, 3.150021, -7.017106, -5.083189, 0.231274, -2.307773, -0.758766, -41.567673, -63.074539, -661.229004
1733468546.143786, 2.884564, -7.111377, -5.533748, 0.539013, -2.932579, -0.787008, -41.567673, -63.074539, -661.229004
1733468546.153739, 2.668936, -7.391050, -6.484695, 0.900536, -3.500459, -0.839772, -42.802444, -63.431671, -661.459229
1733468546.164663, 2.538003, -8.389432, -9.240421, 1.180639, -3.553147, -1.008635, -44.646500, -63.856781, -660.829285
1733468546.174656, 2.241571, -9.911845, -11.680861, 1.240605, -2.821838, -1.364520, -45.417618, -64.508789, -659.827698
1733468546.184655, 2.003797, -10.683975, -9.645341, 0.820692, -2.304218, -1.680970, -45.751663, -65.016266, -659.982056
1733468546.193816, 1.123180, -9.659107, -9.984868, 0.498684, -1.527116, -1.919353, -45.637100, -65.501404, -659.041199
1733468546.204657, 1.471237, -7.113622, -9.681703, 0.504812, -0.814311, -1.996107, -45.364212, -65.905869, -659.471924
1733468546.214664, 3.019088, -5.447856, -9.027487, 0.647111, -0.382002, -1.866693, -45.008286, -66.171127, -659.327698
1733468546.224670, 3.856610, -5.424064, -8.977508, 0.944417, -0.284874, -1.615951, -44.622055, -66.996292, -658.427124
1733468546.234672, 4.660014, -5.702988, -7.818415, 1.309816, -0.659894, -1.324608, -44.807373, -67.401825, -658.729370
1733468546.243810, 5.523573, -6.323685, -6.421997, 1.504436, -1.564183, -1.113537, -45.470734, -68.207169, -657.513245
1733468546.254671, 5.998822, -7.039252, -6.273706, 1.479103, -2.658427, -0.980927, -45.727844, -68.935806, -657.490234
1733468546.264687, 5.227141, -7.200412, -8.183681, 1.434918, -3.337446, -0.824729, -46.657333, -69.563950, -656.600769
1733468546.274662, 3.786580, -7.292439, -11.184513, 1.501272, -3.219253, -0.626559, -47.574310, -70.005234, -655.470947
1733468546.284662, 2.621501, -7.720702, -13.425635, 1.450136, -2.099849, -0.556612, -48.004318, -70.618805, -655.458801
1733468546.293848, 2.637063, -7.484125, -13.209110, 1.433329, -0.792077, -0.547968, -49.056946, -71.427979, -654.281982
1733468546.304664, 3.815160, -7.737611, -11.409867, 1.265753, 0.230681, -0.726972, -49.420166, -72.165451, -654.194458
1733468546.314659, 6.963685, -8.431630, -8.913463, 0.950632, 0.433429, -0.940227, -48.515915, -72.751328, -654.805298
1733468546.324660, 7.961918, -7.337630, -7.619996, 0.763670, -0.023022, -0.826459, -47.754135, -72.883911, -653.409119
1733468546.334657, 6.980744, -5.399972, -7.743447, 0.744038, -0.668964, -0.440887, -47.379456, -73.174255, -653.965088
1733468546.343841, 6.213701, -4.822670, -8.507197, 0.736521, -1.184758, -0.029204, -48.207672, -73.609818, -652.582764
1733468546.354666, 5.156213, -5.355380, -9.547328, 0.680950, -1.368060, 0.213454, -48.872406, -73.859787, -652.408020
1733468546.364510, 3.810970, -5.966650, -10.292673, 0.568725, -1.203629, 0.258531, -49.129761, -74.016953, -652.862671
1733468546.374652, 3.396774, -5.743241, -10.819397, 0.414056, -0.804638, 0.287871, -49.199310, -74.162598, -651.625305
1733468546.384658, 4.069844, -5.024232, -10.459669, 0.300602, -0.521846, 0.489623, -49.567581, -74.199722, -651.753296
1733468546.393850, 5.180005, -4.494814, -10.677690, 0.289464, -0.270909, 0.780597, -50.155212, -74.292770, -651.551453
1733468546.403729, 5.669021, -4.337695, -10.986243, 0.432535, -0.076812, 1.088671, -51.057236, -74.687042, -650.900757
1733468546.414659, 5.560384, -4.809951, -10.472537, 0.693978, -0.142055, 1.193476, -51.649689, -74.603500, -651.774170
1733468546.423751, 4.892102, -5.202600, -10.669460, 0.990105, -0.256370, 1.106620, -52.052216, -74.880981, -650.417603
1733468546.434672, 3.867534, -5.392790, -11.316344, 1.315249, -0.294307, 0.957365, -52.625244, -75.154053, -650.564331
1733468546.443865, 2.880374, -5.652261, -10.698490, 1.650889, -0.352398, 0.742366, -52.899338, -75.827621, -649.609253
1733468546.454664, 2.045097, -5.884798, -9.718663, 1.931915, -0.405206, 0.458635, -53.013657, -76.270737, -648.253845
1733468546.464651, 1.640477, -5.920412, -8.616881, 2.096105, -0.519313, 0.136762, -52.976730, -76.837646, -648.074829
1733468546.474662, 1.714697, -5.745785, -7.841908, 2.183863, -0.636194, -0.160547, -53.130981, -77.691696, -646.367065
1733468546.484648, 2.120215, -5.337124, -7.028778, 2.307203, -0.957101, -0.376185, -53.151764, -78.374100, -646.181946
1733468546.493907, 2.208052, -4.977246, -7.129633, 2.494381, -1.263996, -0.490465, -53.219482, -79.323822, -644.830566
1733468546.504676, 2.211045, -5.137657, -7.322815, 2.672635, -1.378070, -0.541754, -53.308762, -80.064667, -642.929321
1733468546.514648, 2.129343, -5.384709, -6.830208, 2.793236, -1.439009, -0.579211, -53.570404, -80.807831, -642.030640
1733468546.524651, 1.899350, -5.439177, -6.314258, 2.882889, -1.470510, -0.609367, -53.338425, -81.796173, -640.094849
1733468546.534648, 1.810166, -5.517438, -5.955128, 2.940035, -1.416419, -0.639180, -53.623138, -82.454147, -639.164978
1733468546.543912, 1.822436, -5.385008, -5.494693, 2.970713, -1.362720, -0.668248, -53.617126, -83.259262, -637.818420
1733468546.553700, 1.845481, -5.323657, -5.223250, 3.023408, -1.287938, -0.696843, -53.416916, -83.803772, -635.471497
1733468546.564654, 1.721281, -5.335329, -4.774487, 3.061453, -1.072251, -0.715041, -53.328964, -84.445435, -634.535522
1733468546.574644, 1.391929, -5.055058, -4.099173, 2.988944, -0.783444, -0.738805, -53.061996, -85.082336, -632.328796
1733468546.584481, 1.446247, -4.837634, -3.665074, 2.821288, -0.443995, -0.747679, -52.591782, -85.579956, -631.401367
1733468546.593871, 1.778892, -4.547337, -3.628113, 2.609044, -0.029335, -0.684667, -52.239029, -86.299408, -630.417297
1733468546.604645, 2.047192, -4.493019, -3.329886, 2.434276, 0.331267, -0.562550, -52.183762, -86.527649, -628.317688
1733468546.614640, 2.184559, -4.591480, -2.495806, 2.412535, 0.397659, -0.456937, -51.917068, -86.725037, -628.150757
1733468546.624478, 1.980154, -4.523545, -2.146851, 2.483877, 0.341787, -0.373570, -51.901031, -86.968658, -626.750793
1733468546.634666, 1.585710, -4.505289, -1.988534, 2.538532, 0.340888, -0.324139, -51.806442, -87.366486, -625.125244
1733468546.644691, 1.209521, -4.671536, -1.471237, 2.506706, 0.503250, -0.321822, -51.577911, -87.463120, -624.605835
1733468546.654651, 0.938976, -4.655375, -0.171335, 2.368102, 0.609141, -0.362627, -51.354828, -87.585754, -623.328735
1733468546.664640, 0.903811, -4.427477, 1.268777, 2.143735, 0.510141, -0.430306, -51.232742, -87.770020, -621.850159
1733468546.674684, 1.090858, -4.389769, 1.605013, 1.853627, 0.349896, -0.512542, -51.132675, -87.638046, -621.363403
1733468546.684638, 1.146374, -4.627543, 1.301249, 1.599101, 0.213271, -0.603828, -50.833466, -87.847763, -620.509338
1733468546.694643, 0.988356, -5.041141, 0.898873, 1.521033, 0.033618, -0.728897, -50.307419, -87.960541, -620.200134
1733468546.704637, 1.047613, -5.261408, 0.037110, 1.648422, -0.080538, -0.855732, -49.639954, -88.000443, -618.492798
1733468546.714692, 1.931821, -4.849904, -1.165078, 1.887749, -0.037415, -0.868201, -49.273453, -87.925964, -618.309448
1733468546.724654, 3.238906, -4.129699, -1.550246, 2.216320, 0.168270, -0.710558, -49.011093, -87.912399, -617.458557
1733468546.734642, 3.332130, -3.407996, 0.294636, 2.449043, 0.300284, -0.491547, -48.939011, -87.962875, -616.410461
1733468546.744670, 3.379565, -3.750367, 1.713500, 2.509176, 0.212437, -0.347934, -48.963501, -88.028580, -614.468140
1733468546.754637, 3.100042, -4.247912, 2.429516, 2.515474, 0.182393, -0.182262, -48.961838, -87.876022, -614.076599
1733468546.764641, 1.825130, -5.073313, 2.588282, 2.389374, 0.628678, -0.230738, -48.816238, -87.673798, -613.036072
1733468546.774636, 1.284190, -5.665729, 3.133561, 2.275729, 0.860252, -0.304028, -48.764923, -87.398911, -611.755371
1733468546.784652, 1.271471, -5.801600, 4.002656, 2.085280, 1.002235, -0.369179, -48.651154, -87.442963, -610.901489
1733468546.794650, 1.512387, -5.532102, 5.023933, 1.831561, 0.967534, -0.408942, -48.573273, -87.201431, -608.986450
1733468546.804649, 1.992275, -5.141398, 5.825990, 1.686959, 0.834957, -0.401723, -48.520935, -86.948761, -608.989563
1733468546.814639, 2.141913, -5.490952, 5.592855, 1.746058, 0.694109, -0.462812, -48.401825, -87.095184, -608.684570
1733468546.824635, 1.714248, -6.452224, 4.780024, 1.988936, 0.659988, -0.658305, -48.645111, -86.798035, -608.096741
1733468546.834612, 0.906205, -7.690774, 4.229357, 2.278891, 0.690055, -1.011843, -48.417389, -86.691376, -607.630493
1733468546.844635, 0.167594, -8.712350, 4.774637, 2.485441, 0.772218, -1.360414, -47.921646, -86.620834, -606.433594
1733468546.854648, 0.303764, -8.667609, 6.121824, 2.538297, 0.876733, -1.609519, -47.376282, -86.349091, -605.056702
1733468546.864643, 1.183035, -8.151209, 8.097489, 2.481234, 0.806695, -1.705631, -46.624573, -86.114319, -604.517639
1733468546.874641, 2.440889, -7.864055, 10.490195, 2.321881, 0.635608, -1.668793, -46.122238, -85.818802, -603.315918
1733468546.884638, 3.871873, -7.678803, 12.386552, 2.052637, 0.505370, -1.514215, -45.537140, -85.597076, -602.727905
1733468546.894641, 5.362712, -7.593959, 13.631537, 1.697400, 0.536743, -1.347372, -45.222855, -85.346863, -601.721802
1733468546.904636, 6.499958, -8.241291, 14.190134, 1.315983, 0.716564, -1.158820, -44.922516, -85.152618, -600.887451
1733468546.914649, 7.732374, -8.652196, 14.863952, 0.893993, 0.825614, -0.921527, -44.767136, -85.390793, -600.513245
1733468546.924657, 8.878149, -8.580669, 16.340277, 0.440390, 0.827667, -0.661649, -44.709213, -85.236557, -600.436401
1733468546.934637, 9.574113, -8.513332, 17.329082, 0.018060, 0.795541, -0.394904, -44.517822, -85.125214, -600.900085
1733468546.944650, 9.868750, -8.604312, 17.605762, -0.306820, 0.802721, -0.140233, -44.627090, -85.396515, -600.978027
1733468546.954019, 9.709984, -8.912416, 17.494432, -0.564434, 0.725069, 0.060297, -44.974686, -85.248871, -600.931335
1733468546.964637, 9.427169, -9.054272, 17.911023, -0.785856, 0.447656, 0.258826, -45.173492, -85.468048, -601.848572
1733468546.974652, 9.214085, -9.031228, 18.377293, -0.976523, 0.198442, 0.413932, -45.731613, -85.330185, -602.177124
1733468546.984636, 8.614936, -9.234885, 18.007838, -1.168166, 0.001293, 0.535597, -45.540604, -85.583664, -602.732300
1733468546.993858, 8.006510, -9.268703, 17.607707, -1.332663, -0.232415, 0.620501, -45.773834, -85.946518, -602.628174
1733468547.004656, 7.379229, -9.232491, 17.264139, -1.451540, -0.512741, 0.666291, -45.965820, -85.765137, -603.441101
1733468547.014651, 6.808212, -9.200468, 16.739061, -1.547402, -0.763398, 0.672918, -46.280212, -86.160034, -604.438599
1733468547.024653, 6.173898, -9.286061, 15.912463, -1.638373, -0.908138, 0.630438, -46.279694, -86.183762, -604.712280
1733468547.034643, 5.370494, -9.351003, 14.888193, -1.739824, -0.960387, 0.546611, -46.414642, -86.287445, -605.523804
1733468547.044643, 4.667346, -9.222914, 13.816938, -1.829001, -0.909224, 0.449711, -46.179260, -86.550156, -605.944458
1733468547.054638, 4.117877, -9.018359, 12.521375, -1.881944, -0.825949, 0.358809, -45.971085, -86.662003, -606.686829
1733468547.064634, 3.765032, -8.607903, 11.435306, -1.865804, -0.952050, 0.291981, -46.341202, -87.079102, -607.307617
1733468547.074636, 3.635296, -8.122928, 11.247361, -1.775133, -1.447535, 0.257272, -46.065704, -87.425613, -607.969910
1733468547.084633, 3.635296, -7.657555, 11.597962, -1.695523, -1.963198, 0.239418, -45.846664, -87.286285, -608.971130
1733468547.094633, 3.362058, -7.393893, 10.859650, -1.670812, -2.264202, 0.217608, -45.423477, -87.422943, -609.491089
1733468547.104643, 2.937536, -7.383718, 9.616012, -1.697177, -2.393413, 0.205262, -45.506531, -87.603882, -609.532654
1733468547.114641, 2.606986, -7.245902, 8.534281, -1.738002, -2.430724, 0.188557, -45.102844, -87.740173, -610.135864
1733468547.124611, 2.190395, -7.047632, 7.508815, -1.747587, -2.423860, 0.161402, -45.147751, -87.972458, -610.435364
1733468547.134636, 1.842637, -6.841132, 6.475567, -1.714668, -2.372364, 0.138780, -45.039734, -87.986099, -611.207336
1733468547.144633, 1.846079, -6.637176, 5.349844, -1.667688, -2.288154, 0.141598, -44.588303, -88.361542, -612.032227
1733468547.153712, 1.977461, -6.370372, 4.425981, -1.598806, -2.255114, 0.169954, -44.514771, -88.570847, -612.764587
1733468547.164681, 1.998111, -6.062119, 3.785532, -1.497658, -2.260363, 0.194531, -44.665665, -88.597061, -613.204834
1733468547.174633, 1.961599, -6.002563, 3.317316, -1.410888, -2.304095, 0.217484, -44.511993, -88.938477, -612.909485
1733468547.184629, 1.666963, -5.791574, 3.302951, -1.373721, -2.424197, 0.205335, -44.079590, -88.874512, -614.197693
1733468547.194634, 1.294964, -5.680094, 3.588010, -1.394459, -2.652597, 0.171824, -44.183899, -88.916565, -614.779053
1733468547.204685, 1.044470, -5.653309, 3.670162, -1.409314, -2.866677, 0.135283, -44.336914, -89.107407, -615.092285
1733468547.214639, 0.786645, -5.560384, 3.075202, -1.380319, -3.010176, 0.090534, -44.245651, -89.222778, -615.508728
1733468547.224648, 0.613215, -5.610363, 2.117222, -1.279943, -3.098908, 0.072780, -43.993515, -89.231750, -616.014404
1733468547.234632, 0.626682, -5.498883, 1.076942, -1.103006, -3.090796, 0.095950, -43.950760, -89.331406, -616.575195
1733468547.244630, 0.856077, -5.263952, 0.024690, -0.925793, -2.963484, 0.133730, -44.105194, -89.599167, -616.885132
1733468547.254667, 1.405995, -5.305252, -0.529717, -0.825992, -2.853587, 0.215427, -44.011505, -89.483597, -616.779053
1733468547.264627, 1.710657, -5.222951, -0.561440, -0.820192, -2.682211, 0.310544, -44.497543, -89.715927, -617.323364
1733468547.274639, 1.951723, -5.256769, -0.573262, -0.902328, -2.487439, 0.403138, -44.365204, -89.871048, -616.881958
1733468547.284657, 1.932570, -5.248689, -0.425270, -1.028445, -2.334813, 0.512061, -44.843430, -89.639053, -617.748901
1733468547.294641, 1.890372, -5.090971, -0.274585, -1.143985, -2.283979, 0.609016, -45.086380, -89.849518, -618.402405
1733468547.304630, 1.898602, -5.037101, -0.182259, -1.207876, -2.325954, 0.697432, -45.453384, -89.797409, -619.088440
1733468547.314624, 1.804480, -4.954052, -0.249596, -1.218764, -2.411977, 0.769619, -46.177567, -89.670715, -619.309570
1733468547.324692, 1.622221, -4.932055, -0.581941, -1.184424, -2.506654, 0.819196, -46.416962, -89.643768, -620.128784
1733468547.334640, 1.520019, -4.983830, -1.105822, -1.153257, -2.574171, 0.840258, -46.926910, -89.573120, -620.551941
1733468547.344648, 1.504456, -5.179855, -1.591845, -1.141960, -2.651650, 0.848356, -47.325806, -89.340012, -620.550171
1733468547.354629, 1.375618, -5.382315, -1.932570, -1.132063, -2.679362, 0.859570, -47.971893, -89.376160, -620.790649
1733468547.364671, 1.054945, -5.498733, -2.376096, -1.103649, -2.582299, 0.893443, -48.304901, -89.319077, -621.206604
1733468547.374629, 0.688183, -5.414337, -2.824110, -1.090329, -2.419326, 0.936371, -48.813950, -89.109039, -621.311157
1733468547.384622, 0.509217, -5.344457, -2.858826, -1.128217, -2.325593, 0.964449, -49.348236, -88.826752, -621.768005
1733468547.394623, 0.382025, -5.517587, -2.530821, -1.222036, -2.261777, 0.986582, -50.176819, -88.833710, -622.650635
1733468547.404625, 0.196624, -5.583727, -2.398990, -1.351047, -2.194909, 0.990158, -50.918396, -88.461548, -622.803711
1733468547.414632, -0.043245, -5.633856, -2.476652, -1.471964, -2.176241, 0.960111, -51.459412, -88.360107, -623.405090
1733468547.424638, -0.392948, -5.740098, -2.586935, -1.557191, -2.273022, 0.915498, -51.909164, -88.099274, -623.997009
1733468547.434627, -0.686088, -5.839907, -2.822464, -1.577364, -2.493812, 0.887758, -52.662506, -87.826660, -624.480713
1733468547.444622, -0.778564, -5.798756, -3.211522, -1.541236, -2.754039, 0.898042, -53.203140, -87.553879, -624.747375
1733468547.454668, -0.875679, -5.396680, -3.761889, -1.486819, -2.903779, 0.959630, -53.613937, -87.254807, -624.855713
1733468547.464625, -1.155801, -4.963030, -4.691588, -1.444656, -2.797136, 1.075290, -54.400360, -86.806839, -624.722839
1733468547.474634, -1.650203, -4.893748, -5.832575, -1.446628, -2.412608, 1.240710, -55.100266, -86.687256, -624.952332
1733468547.484624, -2.004396, -5.069423, -7.104195, -1.538689, -1.805416, 1.424732, -55.887955, -86.145447, -626.072815
1733468547.494623, -2.244414, -5.236418, -8.036138, -1.723605, -1.168180, 1.554511, -56.939026, -85.600113, -626.513550
1733468547.504622, -2.622249, -5.594800, -8.415469, -1.942977, -0.762018, 1.585068, -57.415787, -85.082001, -627.730469
1733468547.514623, -3.156456, -5.862203, -8.201637, -2.123596, -0.710910, 1.532862, -58.534927, -84.434341, -628.319336
1733468547.524633, -3.889081, -5.832425, -8.071901, -2.202729, -0.916692, 1.421432, -59.249924, -83.833420, -629.006042
1733468547.534636, -4.517260, -5.912182, -8.828170, -2.154893, -1.215753, 1.308807, -59.492630, -83.189697, -629.836670
1733468547.544630, -4.997297, -5.799056, -10.166977, -1.998437, -1.492794, 1.246036, -60.168900, -82.664703, -630.100830
1733468547.554629, -5.667973, -5.742792, -11.868806, -1.758722, -1.523986, 1.195943, -60.747864, -82.094498, -630.671204
1733468547.564621, -6.472575, -6.353164, -14.335432, -1.480712, -1.188478, 1.162229, -61.267044, -81.410965, -630.998718
1733468547.574622, -7.080402, -7.063942, -16.723499, -1.232065, -0.708506, 1.134311, -62.023926, -81.066940, -630.614441
1733468547.584620, -7.573608, -7.474548, -18.026244, -1.027603, -0.357597, 1.054741, -62.340042, -80.519882, -631.309998
1733468547.594626, -8.103026, -7.847445, -18.217630, -0.827104, -0.247322, 0.903633, -62.929916, -80.254974, -632.181396
1733468547.604625, -8.613589, -8.060678, -18.074427, -0.565751, -0.333377, 0.726240, -63.167511, -80.127136, -631.783936
1733468547.614623, -8.894010, -8.115895, -18.053328, -0.269786, -0.455998, 0.541920, -63.225494, -79.846954, -632.013550
1733468547.624623, -8.987534, -8.421455, -18.207455, -0.026208, -0.516245, 0.385791, -63.225494, -79.846954, -632.013550
1733468547.634677, -9.103952, -8.586804, -18.223316, 0.122876, -0.430381, 0.261660, -63.406601, -79.769745, -631.475586
1733468547.644624, -9.279477, -8.642170, -18.114979, 0.186650, -0.220632, 0.136462, -63.406601, -79.769745, -631.475586
1733468547.654627, -9.513510, -8.676437, -17.918205, 0.198027, 0.111716, 0.007768, -63.537094, -79.657455, -631.794434
1733468547.664624, -9.800664, -8.497770, -17.755699, 0.180507, 0.464797, -0.107959, -63.321320, -79.790985, -631.748901
1733468547.674619, -9.930849, -8.256404, -17.462708, 0.181670, 0.800449, -0.239487, -63.185547, -80.057724, -631.517334
1733468547.684614, -9.976040, -8.098836, -17.209821, 0.237566, 1.062895, -0.409165, -63.022293, -80.062424, -631.279907
1733468547.694653, -9.873388, -7.894880, -16.848895, 0.363406, 1.215383, -0.590839, -62.763077, -80.258865, -631.793945
1733468547.704615, -9.565584, -7.451204, -16.295236, 0.539169, 1.279677, -0.785901, -62.577942, -80.558533, -632.294189
1733468547.714616, -9.191639, -7.100454, -15.690401, 0.742522, 1.296090, -0.973983, -62.237442, -81.059311, -632.594238
1733468547.724631, -8.712350, -6.739977, -15.066262, 0.970499, 1.275002, -1.131589, -61.428070, -81.500229, -632.119141
1733468547.734689, -8.116493, -6.300192, -14.426561, 1.225918, 1.260690, -1.258893, -60.764404, -81.991623, -631.828552
1733468547.744615, -7.521385, -5.786187, -13.812449, 1.487279, 1.235523, -1.369450, -60.039474, -82.460648, -631.506653
1733468547.754611, -6.921936, -5.307197, -13.011738, 1.735694, 1.166491, -1.464371, -59.272263, -83.165985, -631.288330
1733468547.764662, -6.259341, -4.877288, -12.060192, 1.956966, 1.086596, -1.546963, -58.586685, -83.796600, -629.950256
1733468547.774627, -5.700295, -4.511125, -11.215338, 2.149471, 1.034997, -1.618781, -57.532440, -84.268768, -629.230591
1733468547.784629, -5.292383, -4.176086, -10.397719, 2.307501, 1.052503, -1.686311, -56.791245, -85.142090, -627.512268
1733468547.794627, -5.011663, -3.970484, -9.549423, 2.417280, 1.131447, -1.751734, -55.949295, -85.609695, -627.709290
1733468547.804618, -4.730494, -3.831172, -8.573786, 2.460747, 1.250741, -1.825954, -55.115646, -86.378189, -627.307007
1733468547.814617, -4.465635, -3.725827, -7.477241, 2.440945, 1.366541, -1.910665, -54.178421, -87.260193, -626.173340
1733468547.824631, -4.129998, -3.610007, -6.384887, 2.393603, 1.465781, -1.989333, -53.157791, -87.577301, -624.930725
1733468547.834667, -3.659837, -3.473987, -5.464316, 2.345436, 1.554091, -2.058895, -52.074493, -88.101181, -624.535889
1733468547.844613, -3.171270, -3.381511, -4.717924, 2.320012, 1.636751, -2.110518, -50.774445, -88.536911, -623.306152
1733468547.854626, -2.589479, -3.264344, -4.127753, 2.327374, 1.701441, -2.130879, -49.846634, -89.208557, -622.151733
1733468547.864630, -1.824531, -3.161394, -3.606266, 2.354127, 1.746698, -2.123128, -48.674957, -89.351822, -621.392273
1733468547.874667, -1.141286, -3.103484, -3.023278, 2.368126, 1.812205, -2.108544, -47.595810, -89.493881, -620.021667
1733468547.884615, -0.668581, -3.026570, -2.358738, 2.341174, 1.859173, -2.136222, -46.482880, -90.089767, -618.667236
1733468547.894613, -0.265158, -3.118747, -1.625813, 2.286770, 1.850786, -2.206019, -45.442902, -90.189072, -618.083008
1733468547.904616, 0.168043, -3.176058, -0.922965, 2.239913, 1.800487, -2.264035, -44.316101, -90.272690, -617.003235
1733468547.914664, 0.731728, -3.085228, -0.449362, 2.217547, 1.791511, -2.295248, -43.077271, -90.334778, -616.073242
1733468547.924619, 1.391929, -3.084630, -0.231489, 2.209516, 1.868839, -2.256182, -42.033691, -90.317459, -614.802063
1733468547.934616, 2.169596, -2.786252, 0.078709, 2.167494, 2.005435, -2.150851, -41.034042, -90.279312, -614.015503
1733468547.944617, 2.739416, -2.195184, 0.561590, 2.097112, 2.163065, -2.022098, -39.891205, -90.258011, -612.410034
1733468547.954682, 3.113210, -1.840991, 1.027412, 2.003852, 2.292430, -1.890481, -39.458862, -89.944321, -611.816956
1733468547.964627, 3.525761, -1.770213, 1.511938, 1.894469, 2.312211, -1.764581, -38.770676, -89.734680, -610.366089
1733468547.974613, 3.870077, -1.688660, 1.961899, 1.808671, 2.257752, -1.653874, -37.728348, -89.713318, -609.999146
1733468547.984608, 4.003404, -1.706467, 2.069787, 1.821486, 2.224784, -1.574209, -37.487778, -89.466629, -608.566223
1733468547.994636, 4.153790, -2.331504, 1.607258, 1.930523, 2.249775, -1.502532, -37.036407, -89.049606, -607.829468
1733468548.004626, 4.211401, -2.286313, 2.013673, 2.073193, 2.261215, -1.413159, -36.431793, -88.975159, -606.965210
1733468548.014627, 4.209755, -2.354847, 2.798522, 2.198638, 2.215615, -1.337638, -36.079773, -88.454071, -605.925598
1733468548.024616, 4.104859, -2.553117, 3.645771, 2.272722, 2.093207, -1.298843, -35.977966, -88.150665, -604.811401
1733468548.034617, 4.017470, -2.867655, 4.311957, 2.284817, 1.928873, -1.338752, -35.573364, -87.693176, -603.563965
1733468548.044617, 3.968838, -2.915988, 4.663157, 2.252498, 1.773110, -1.396072, -35.403381, -87.187302, -602.436096
1733468548.054621, 4.050091, -2.981080, 4.528632, 2.182356, 1.763641, -1.476549, -35.178604, -86.761047, -601.732483
1733468548.064611, 4.288614, -3.094506, 4.552275, 2.111627, 1.831518, -1.559009, -34.717682, -86.266571, -600.311646
1733468548.074608, 4.919935, -2.943521, 4.918139, 2.067061, 1.901851, -1.593480, -34.489502, -85.770477, -599.111938
1733468548.084609, 5.530755, -2.746897, 5.374085, 2.040037, 1.936824, -1.564718, -34.040909, -85.472275, -597.556580
1733468548.094608, 5.916372, -2.785953, 5.853225, 2.026325, 1.930637, -1.484726, -33.867966, -84.706146, -597.427979
1733468548.104609, 6.221333, -2.800468, 6.227319, 2.014611, 1.980434, -1.375881, -33.949432, -84.067322, -596.067505
1733468548.114609, 6.722020, -3.056348, 7.201759, 2.057233, 1.957458, -1.266359, -33.974808, -83.758255, -595.652771
1733468548.124627, 7.551462, -3.344999, 8.829666, 2.128662, 1.742501, -1.136944, -34.064209, -83.127228, -594.922119
1733468548.134610, 8.349180, -3.247286, 9.948207, 2.099856, 1.522397, -0.969602, -34.316269, -82.525681, -594.011719
1733468548.144610, 8.859594, -3.404405, 10.527454, 1.942566, 1.491388, -0.816262, -34.506317, -82.109604, -593.212830
1733468548.153670, 8.859594, -3.404405, 10.527454, 1.707348, 1.606168, -0.697426, -34.767654, -81.495407, -592.589294
1733468548.164606, 9.734525, -4.390966, 12.299912, 1.425293, 1.695549, -0.624381, -35.252777, -81.144608, -592.017944
1733468548.174606, 10.287735, -4.931008, 13.148058, 1.176495, 1.677624, -0.612262, -35.972672, -80.790604, -591.508911
1733468548.184618, 10.963947, -5.404312, 13.552528, 1.033859, 1.606947, -0.614072, -36.278976, -80.752792, -590.276245
1733468548.194616, 11.745355, -5.472247, 13.814544, 0.959781, 1.549849, -0.589955, -36.647629, -80.239670, -590.716370
1733468548.204622, 12.665327, -5.560384, 14.749629, 0.921132, 1.450637, -0.536653, -37.150055, -80.047165, -590.614319
1733468548.214604, 13.603854, -5.739799, 16.728137, 0.869233, 1.151681, -0.490988, -37.150925, -79.836197, -590.168152
1733468548.224607, 14.311939, -5.310639, 18.715025, 0.721628, 0.576427, -0.406855, -37.221832, -79.845200, -589.773010
1733468548.234605, 14.618546, -4.922479, 19.607314, 0.515671, -0.119843, -0.272042, -37.175888, -79.578354, -589.444336
1733468548.244615, 14.501829, -4.840028, 19.214217, 0.285217, -0.706190, -0.104405, -36.831833, -79.473083, -589.342163
1733468548.254101, 14.090775, -4.858134, 18.034324, 0.056577, -1.023815, 0.083921, -36.265091, -79.182877, -589.029663
1733468548.264612, 13.697078, -4.838382, 16.820613, -0.157610, -1.084524, 0.304966, -35.771133, -79.470505, -589.155762
1733468548.274611, 13.325378, -4.525041, 15.863531, -0.390237, -0.938560, 0.586280, -35.501648, -79.541321, -589.079102
1733468548.284600, 12.870630, -4.139874, 15.195399, -0.657447, -0.701104, 0.909962, -35.849350, -79.615662, -589.446655
1733468548.294615, 12.179902, -4.116381, 14.702792, -0.934360, -0.474528, 1.213473, -36.061768, -80.028473, -590.031616
1733468548.304607, 11.247062, -4.251354, 14.236073, -1.197016, -0.313482, 1.451601, -36.474823, -80.336670, -590.404175
1733468548.314621, 10.313173, -4.431967, 13.815441, -1.418491, -0.274866, 1.613232, -36.956543, -80.920074, -590.695740
1733468548.324629, 9.373599, -4.611532, 13.536218, -1.572936, -0.397085, 1.700505, -37.650986, -81.380981, -591.511902
1733468548.334605, 8.404695, -4.760720, 13.438055, -1.662243, -0.710218, 1.717891, -37.960175, -81.683395, -592.461243
1733468548.344603, 7.536797, -4.880430, 13.246370, -1.698258, -1.159358, 1.690972, -38.119904, -82.531174, -593.027222
1733468548.354604, 6.591387, -5.007922, 12.649764, -1.723774, -1.627294, 1.621596, -38.136139, -82.775284, -593.711670
1733468548.364603, 5.705532, -5.076905, 11.730840, -1.737694, -2.040550, 1.522190, -38.122528, -83.338669, -594.717224
1733468548.374599, 4.971111, -5.106084, 10.511892, -1.733950, -2.345491, 1.424938, -37.791824, -83.600281, -595.424561
1733468548.384602, 4.470124, -5.072715, 9.052476, -1.734529, -2.431323, 1.375541, -37.622681, -83.975464, -596.219360
1733468548.394602, 4.221726, -4.894945, 7.838467, -1.762564, -2.325312, 1.386624, -37.718994, -84.316803, -596.581726
1733468548.404601, 4.105158, -4.564695, 7.237522, -1.799214, -2.219147, 1.437506, -37.816284, -84.764969, -597.634705
1733468548.414602, 3.949984, -4.449624, 6.788908, -1.835667, -2.179145, 1.493334, -37.914429, -85.464157, -598.330933
1733468548.424605, 3.725228, -4.438551, 6.303334, -1.873718, -2.163370, 1.532208, -38.136292, -85.791824, -599.298035
1733468548.434613, 3.317316, -4.561553, 5.805939, -1.926636, -2.153121, 1.525045, -38.474518, -86.223663, -600.145264
1733468548.444602, 2.907608, -4.831649, 5.338022, -1.985256, -2.165184, 1.456008, -38.690659, -86.652161, -601.442688
1733468548.454601, 2.700959, -4.900332, 4.970961, -2.029428, -2.225529, 1.365536, -38.944458, -86.924973, -601.987976
1733468548.464612, 2.498798, -4.664054, 4.599860, -2.052099, -2.363815, 1.296378, -39.069504, -87.639862, -602.867676
1733468548.474607, 2.250550, -4.454412, 3.912724, -2.045784, -2.515669, 1.252629, -39.037201, -87.814270, -603.506042
1733468548.484596, 2.087295, -4.383783, 3.017891, -2.001725, -2.599876, 1.255419, -39.091583, -88.073441, -604.665833
1733468548.494600, 1.912967, -4.167557, 2.260276, -1.926070, -2.609825, 1.315177, -39.520477, -88.404236, -605.730042
1733468548.504597, 1.726219, -4.029741, 1.651550, -1.837749, -2.560630, 1.401399, -39.810120, -88.562378, -606.312317
1733468548.514594, 1.629254, -4.116830, 1.195305, -1.739727, -2.479900, 1.481083, -40.254257, -88.932449, -607.186279
1733468548.524611, 1.453879, -4.258537, 0.960524, -1.660437, -2.372496, 1.542608, -40.798859, -89.066528, -607.923340
1733468548.534608, 1.287632, -4.456806, 0.900220, -1.625963, -2.249538, 1.579647, -41.259872, -89.253448, -608.717834
1733468548.544613, 1.177498, -4.515913, 1.006163, -1.649785, -2.174354, 1.606139, -42.097153, -89.384506, -609.553650
1733468548.554615, 1.174206, -4.543297, 1.064971, -1.735908, -2.132917, 1.630283, -42.623138, -89.613724, -609.977722
1733468548.564660, 0.815525, -4.409371, 0.954538, -1.870097, -2.139231, 1.654637, -43.189789, -89.856262, -611.160156
1733468548.574600, 0.464176, -4.383484, 0.467318, -1.998245, -2.119305, 1.660120, -43.990250, -89.945236, -611.986938
1733468548.584600, 0.177021, -4.436755, -0.172981, -2.104638, -2.040899, 1.644825, -44.726746, -89.666046, -612.920654
1733468548.594608, 0.043993, -4.443339, -0.767940, -2.175057, -1.954568, 1.626520, -45.544266, -89.654816, -613.839233
1733468548.604663, 0.083498, -4.444835, -1.415123, -2.192167, -1.877143, 1.630595, -46.326385, -89.700424, -615.327148
1733468548.614600, 0.146495, -4.433164, -2.042853, -2.162969, -1.797508, 1.654780, -47.148178, -89.745239, -616.233337
1733468548.624602, 0.196325, -4.628141, -2.555361, -2.124903, -1.716178, 1.662124, -48.017105, -89.616165, -617.030640
1733468548.634594, 0.051326, -4.831499, -2.734178, -2.124547, -1.658358, 1.656643, -48.868240, -89.547043, -618.354126
1733468548.644672, -0.463128, -4.730045, -2.773683, -2.136638, -1.724764, 1.632487, -49.852615, -89.226089, -619.107178
1733468548.654604, -0.875230, -4.794688, -3.169175, -2.097757, -1.840500, 1.561844, -50.287338, -89.059174, -619.789185
1733468548.664596, -1.101782, -4.836437, -3.510199, -2.004367, -1.994055, 1.467611, -51.147491, -88.860214, -620.628418
1733468548.674594, -1.296161, -4.640412, -3.836409, -1.891766, -2.172679, 1.401265, -51.610260, -88.802048, -620.804199
1733468548.684593, -1.427842, -4.230854, -4.227113, -1.779589, -2.240120, 1.387150, -52.337158, -88.472717, -622.051453
1733468548.694596, -1.399261, -3.871274, -4.552574, -1.723146, -2.192442, 1.440220, -52.946793, -87.848450, -622.662476
1733468548.704596, -1.283142, -3.671808, -4.911106, -1.755829, -2.056394, 1.573354, -53.781631, -87.561081, -623.033264
1733468548.714597, -1.396268, -3.498228, -5.169680, -1.886040, -1.883568, 1.744110, -54.899551, -87.028732, -623.486450
1733468548.724615, -1.804031, -3.339013, -5.551405, -2.042150, -1.757716, 1.914775, -56.115952, -86.533340, -624.436096
1733468548.734598, -2.471564, -3.299360, -6.330269, -2.160882, -1.671255, 2.058595, -57.077774, -85.976471, -624.931396
1733468548.744597, -3.460220, -3.381810, -7.430405, -2.208125, -1.581974, 2.157987, -57.950104, -85.376755, -626.007019
1733468548.754610, -4.670639, -3.562572, -8.562114, -2.199840, -1.454759, 2.215338, -58.907059, -84.607925, -626.462036
1733468548.764595, -5.795614, -3.815909, -9.440936, -2.185187, -1.285060, 2.208655, -60.063156, -83.733170, -627.052612
1733468548.774601, -6.854599, -4.239533, -10.370185, -2.206983, -1.115095, 2.120981, -60.950348, -83.079605, -627.170410
1733468548.784589, -7.649175, -4.553622, -11.755829, -2.225225, -0.918401, 2.003507, -61.719070, -82.205643, -628.852966
1733468548.794612, -8.247127, -4.730793, -13.406781, -2.180844, -0.701182, 1.883479, -62.629013, -81.382812, -629.494507
1733468548.804602, -8.795549, -5.004181, -15.081974, -2.027116, -0.540764, 1.781132, -63.190750, -80.725876, -630.072632
1733468548.814596, -9.249848, -5.407604, -16.601694, -1.764932, -0.450262, 1.699324, -63.609421, -79.974487, -630.583557
1733468548.824604, -9.675717, -5.835418, -17.833959, -1.446807, -0.401531, 1.644502, -64.415787, -79.103455, -631.122375
1733468548.834603, -10.411336, -6.171504, -18.650083, -1.129851, -0.336470, 1.609358, -64.916092, -78.497787, -631.169800
1733468548.844605, -11.624597, -6.811055, -18.876634, -0.853000, -0.258195, 1.515380, -65.497665, -77.979446, -631.265259
1733468548.854594, -12.934375, -7.717559, -18.799720, -0.651760, -0.230656, 1.281859, -65.912460, -77.504562, -631.562866
1733468548.864595, -13.869760, -8.449587, -19.034053, -0.466203, -0.274730, 0.943161, -66.125732, -77.314102, -631.709290
1733468548.874600, -14.513950, -8.768015, -19.710864, -0.201492, -0.293988, 0.577962, -66.147888, -77.385529, -630.958374
1733468548.884592, -14.964957, -8.951172, -20.342933, 0.132342, -0.199303, 0.201679, -66.064758, -77.358109, -631.381958
1733468548.894591, -14.995633, -9.043498, -20.320936, 0.464486, -0.017279, -0.181611, -66.255569, -77.795563, -630.589600
1733468548.904594, -14.489559, -8.953566, -19.687820, 0.759156, 0.161884, -0.527258, -65.675781, -78.101456, -630.628296
1733468548.914597, -13.814992, -8.490288, -18.636017, 1.015539, 0.295694, -0.799826, -65.237000, -78.634949, -630.335754
1733468548.924592, -13.189358, -8.127866, -17.491738, 1.226050, 0.406776, -1.027909, -64.875198, -79.189758, -630.197815
1733468548.934589, -12.593950, -7.871387, -16.376040, 1.371024, 0.523229, -1.227985, -64.228851, -79.941437, -629.494202
1733468548.944592, -11.988366, -7.388955, -15.370924, 1.463242, 0.658103, -1.395922, -63.648987, -80.557846, -629.158386
1733468548.954593, -11.319935, -7.037008, -14.487314, 1.551783, 0.799369, -1.527210, -62.929291, -81.240173, -629.001770
1733468548.964588, -10.576087, -6.713790, -13.502848, 1.656114, 0.916910, -1.638760, -62.194168, -82.042816, -628.363525
1733468548.974614, -9.897181, -6.358551, -12.474090, 1.755846, 1.003420, -1.744233, -61.280426, -82.722244, -627.660034
1733468548.984584, -9.204808, -5.970989, -11.469124, 1.847864, 1.071968, -1.836992, -60.422729, -83.384323, -626.974365
1733468548.994584, -8.581717, -5.575946, -10.584017, 1.933635, 1.144178, -1.916322, -59.459991, -84.355469, -625.881958
1733468549.004583, -8.086117, -5.305551, -9.715670, 2.005135, 1.247615, -1.996767, -58.474014, -84.983719, -625.651611
1733468549.014583, -7.598298, -4.901380, -8.656086, 2.046761, 1.331760, -2.090575, -57.244110, -85.757980, -625.038635
1733468549.024586, -7.122151, -4.515165, -7.556250, 2.042027, 1.370265, -2.195674, -56.056839, -86.428177, -624.790161
1733468549.034594, -6.637326, -4.141819, -6.740725, 1.996112, 1.404447, -2.308453, -54.798355, -87.009796, -623.548767
1733468549.044593, -6.088455, -3.898060, -6.343138, 1.934366, 1.512657, -2.414586, -53.540558, -87.721909, -622.999512
1733468549.054596, -5.349395, -3.885340, -6.107010, 1.905181, 1.687472, -2.503471, -52.336853, -88.256058, -622.391602
1733468549.064594, -4.541501, -3.811120, -5.735909, 1.944376, 1.846043, -2.569560, -50.920471, -88.703186, -621.847778
1733468549.074604, -3.723582, -3.521272, -5.061642, 2.031499, 1.929555, -2.620763, -49.699081, -89.265198, -620.871826
1733468549.084587, -2.937087, -3.232023, -4.283526, 2.136163, 1.922331, -2.659394, -48.342209, -89.518311, -619.824524
1733468549.094587, -2.221520, -2.903119, -3.558083, 2.243042, 1.831482, -2.685384, -47.325943, -89.991776, -618.483948
1733468549.104586, -1.428141, -2.715773, -2.833687, 2.341918, 1.717084, -2.695059, -45.705597, -90.228363, -618.205444
1733468549.114601, -0.645088, -2.629881, -2.035371, 2.391133, 1.550027, -2.699601, -45.705597, -90.228363, -618.205444
1733468549.124595, -0.007781, -2.609979, -1.432032, 2.394129, 1.375682, -2.704377, -44.223175, -90.317505, -617.306274
1733468549.134590, 0.400730, -2.588282, -1.077989, 2.344270, 1.310718, -2.710459, -43.292572, -90.346420, -615.618286
1733468549.144595, 0.759560, -2.575413, -0.753126, 2.234454, 1.376676, -2.729276, -41.716354, -90.317886, -614.443848
1733468549.154597, 1.351078, -2.456900, -0.397437, 2.078516, 1.493986, -2.727546, -40.376572, -90.474518, -613.658752
1733468549.164596, 1.953818, -2.542792, -0.262614, 1.925829, 1.636928, -2.715222, -39.174606, -90.248352, -613.004028
1733468549.174585, 2.597858, -2.644545, -0.158466, 1.816684, 1.798649, -2.705448, -37.762390, -90.007401, -611.928955
1733468549.184589, 3.343952, -2.402282, 0.368557, 1.678401, 1.840056, -2.545906, -36.711227, -89.924744, -611.239807
1733468549.194594, 3.957316, -2.186505, 0.766294, 1.635405, 1.798519, -2.386035, -35.442490, -89.783508, -609.612061
1733468549.204595, 4.465036, -1.987337, 0.965611, 1.576992, 1.761221, -2.178308, -34.582291, -89.444977, -608.261658
1733468549.214591, 4.778677, -1.606509, 1.102380, 1.506806, 1.748955, -1.956937, -33.432388, -89.005554, -607.768921
1733468549.224594, 4.827309, -1.384447, 1.157447, 1.426429, 1.724782, -1.733613, -32.725525, -88.613678, -606.892334
1733468549.234580, 4.739173, -1.193210, 1.194258, 1.360411, 1.710245, -1.548722, -32.034409, -88.298325, -606.391479
1733468549.244588, 4.450671, -1.217152, 0.893785, 1.381198, 1.752463, -1.441173, -31.991318, -87.910568, -605.261169
1733468549.254594, 4.068946, -1.780388, 0.291494, 1.507664, 1.823877, -1.389622, -31.554260, -87.600479, -604.304871
1733468549.264589, 3.639785, -2.066645, -0.100108, 1.683267, 1.840486, -1.424319, -31.250061, -87.187744, -603.720459
1733468549.274599, 3.058443, -1.999907, -0.009427, 1.882815, 1.828965, -1.543528, -31.005997, -86.754120, -602.835266
1733468549.284597, 2.593070, -2.127847, 0.090680, 2.101875, 1.803489, -1.712511, -30.368698, -86.339127, -601.607544
1733468549.294594, 2.259378, -2.125901, 0.395492, 2.304782, 1.786650, -1.963611, -30.329773, -85.734451, -600.428894
1733468549.304591, 1.991826, -2.157176, 0.788590, 2.522525, 1.803146, -2.231371, -29.779236, -85.188919, -598.878967
1733468549.314590, 2.324770, -2.109441, 1.238550, 2.782267, 1.805715, -2.415435, -29.025146, -84.350601, -598.085083
1733468549.324589, 3.127875, -1.810016, 2.171691, 3.037457, 1.785033, -2.531968, -28.620636, -83.322708, -596.704712
1733468549.334584, 4.034230, -1.417218, 3.648763, 3.198474, 1.661113, -2.565789, -27.865067, -82.625275, -595.386658
1733468549.344578, 5.330391, -0.821660, 5.786636, 3.177558, 1.417881, -2.490991, -27.433746, -81.348785, -593.476318
1733468549.354582, 6.739827, -0.252888, 7.977630, 2.954050, 1.149065, -2.386406, -27.233185, -80.424194, -592.262085
1733468549.364581, 8.073547, -0.187346, 9.873388, 2.542882, 0.917432, -2.208677, -26.556213, -79.245728, -590.803955
1733468549.374593, 9.492411, 0.073023, 11.399093, 1.972175, 0.805496, -2.021416, -26.082962, -78.207413, -590.213379
1733468549.384581, 10.653898, -0.134524, 11.999140, 1.418313, 0.966403, -1.832728, -26.212738, -77.367630, -588.738098
1733468549.394579, 12.019192, -0.858022, 11.582699, 0.985944, 1.330387, -1.611924, -25.962936, -76.964020, -588.858276
1733468549.404590, 13.457508, -1.261295, 11.281777, 0.662753, 1.601969, -1.384575, -26.403580, -76.560013, -587.696167
1733468549.414592, 14.866945, -1.511340, 11.856835, 0.429488, 1.655026, -1.205319, -26.808945, -76.441254, -588.219788
1733468549.424596, 16.103550, -1.980753, 12.545766, 0.324326, 1.574702, -1.032976, -27.099426, -75.996216, -587.778564
1733468549.434582, 17.312173, -2.270302, 12.951284, 0.328410, 1.345460, -0.849912, -27.595627, -75.869980, -587.713196
1733468549.444577, 18.429517, -2.288408, 13.763068, 0.338514, 0.905547, -0.655634, -27.706558, -75.792847, -587.689636
1733468549.454577, 19.308488, -2.274492, 14.893281, 0.337841, 0.413585, -0.449671, -27.901932, -75.477539, -587.636963
1733468549.464584, 19.547310, -2.208202, 15.256302, 0.335875, 0.063598, -0.254174, -27.780640, -75.439621, -587.110107
1733468549.474583, 19.221549, -2.267309, 14.959870, 0.313940, -0.145202, -0.057579, -27.555054, -75.357986, -586.993896
1733468549.484579, 18.922124, -2.329259, 14.756961, 0.239608, -0.293695, 0.180927, -27.581772, -75.220474, -586.730347
1733468549.494579, 18.612524, -2.061108, 14.904205, 0.098185, -0.389083, 0.480746, -27.355865, -75.111450, -586.707397
1733468549.504577, 18.367118, -1.676240, 15.144972, -0.136386, -0.433228, 0.798336, -27.282379, -75.240189, -586.170410
1733468549.514576, 17.844584, -1.476923, 15.182381, -0.410449, -0.444509, 1.078395, -27.480164, -75.331116, -586.828247
1733468549.524586, 16.837672, -1.643171, 14.913183, -0.655440, -0.422582, 1.309466, -27.369690, -75.644592, -587.484741
1733468549.534573, 15.744869, -1.835754, 14.405462, -0.857969, -0.470712, 1.476001, -27.842834, -76.162674, -587.588989
1733468549.544592, 14.700847, -2.006640, 14.024934, -0.988620, -0.664587, 1.575824, -28.113007, -76.739517, -587.894714
1733468549.554582, 13.626599, -2.254440, 13.676578, -1.012934, -0.977960, 1.631863, -28.121521, -77.014816, -588.436523
1733468549.564583, 12.651261, -2.472911, 13.316550, -0.992893, -1.356732, 1.638125, -28.449951, -77.628128, -588.540039
1733468549.574574, 11.713482, -2.689886, 13.130251, -0.993317, -1.816795, 1.623469, -28.216888, -78.134277, -589.411926
1733468549.584573, 10.772411, -2.733879, 13.113940, -1.030921, -2.257391, 1.603035, -28.027512, -78.633224, -589.943054
1733468549.594577, 9.897929, -2.810643, 12.590807, -1.084174, -2.559233, 1.577660, -27.805756, -78.954788, -590.479492
1733468549.604573, 9.046491, -2.846556, 11.593173, -1.173550, -2.699012, 1.605227, -27.109238, -79.397675, -590.072937
1733468549.614582, 8.493580, -2.489371, 10.468946, -1.278771, -2.736001, 1.684835, -27.188980, -80.254974, -592.114441
1733468549.624572, 8.125322, -2.177676, 9.292196, -1.369369, -2.706959, 1.813741, -26.748367, -80.807419, -593.094116
1733468549.634574, 7.863306, -1.902642, 8.063522, -1.437279, -2.629940, 2.011098, -26.484528, -81.476028, -593.562866
1733468549.644571, 7.583035, -1.530942, 6.998401, -1.494706, -2.548801, 2.222920, -26.700806, -81.941208, -594.097046
1733468549.654573, 7.037008, -1.430535, 6.069451, -1.545949, -2.427947, 2.413479, -26.773056, -82.526093, -595.269165
1733468549.664576, 6.471078, -1.577330, 5.108478, -1.586840, -2.277225, 2.588444, -27.343094, -83.278671, -596.092651
1733468549.674622, 5.836315, -1.638681, 4.416255, -1.627446, -2.177899, 2.730942, -27.748169, -84.017685, -597.023926
1733468549.684563, 5.033061, -1.667861, 4.090643, -1.655943, -2.130966, 2.824899, -28.654282, -84.954895, -598.152466
1733468549.694573, 4.223671, -1.797746, 3.737050, -1.673640, -2.116805, 2.854735, -29.649231, -85.587967, -598.944458
1733468549.704125, 3.490147, -2.019210, 3.401113, -1.685747, -2.177727, 2.841709, -30.220261, -86.173645, -599.310059
1733468549.714633, 2.915389, -2.237531, 3.150769, -1.689627, -2.260464, 2.812562, -31.320877, -86.667068, -600.918335
1733468549.724570, 2.396895, -2.373103, 2.807950, -1.686992, -2.296781, 2.782917, -31.816437, -87.203705, -601.919678
1733468549.734572, 1.886182, -2.552069, 2.299631, -1.693670, -2.242550, 2.754306, -32.519531, -87.768463, -603.048340
1733468549.744570, 1.461810, -2.817526, 1.795951, -1.722742, -2.126928, 2.730461, -33.628159, -88.228653, -603.503479
1733468549.754614, 1.070807, -2.956091, 1.458368, -1.785696, -1.959441, 2.708703, -34.560745, -88.623703, -604.863464
1733468549.764567, 0.714968, -3.035548, 1.145775, -1.871838, -1.788670, 2.679742, -35.709229, -88.968185, -606.066101
1733468549.774567, 0.482881, -3.183091, 0.902913, -1.967480, -1.698637, 2.628081, -36.934631, -89.373917, -607.196533
1733468549.784570, 0.354641, -3.301604, 0.875829, -2.060616, -1.740184, 2.574798, -37.912918, -89.700195, -607.467346
1733468549.794627, 0.231190, -3.245640, 0.891840, -2.116731, -1.892865, 2.535413, -39.079056, -89.872528, -608.763245
1733468549.804574, 0.023194, -3.100042, 0.623839, -2.116707, -2.109695, 2.468122, -40.055984, -90.165970, -609.018494
1733468549.814572, -0.299275, -3.371186, 0.089334, -2.052550, -2.390089, 2.380123, -41.360855, -90.264114, -610.870911
1733468549.824569, -0.867449, -3.724779, -0.503979, -1.925077, -2.621962, 2.311494, -42.273117, -90.362808, -611.512573
1733468549.834579, -1.274314, -3.742586, -1.356016, -1.764225, -2.732301, 2.257567, -43.050446, -90.344193, -612.863770
1733468549.844623, -1.627907, -3.723283, -2.171391, -1.610822, -2.746713, 2.196759, -44.128433, -90.270218, -613.867126
1733468549.854585, -1.979705, -3.742586, -2.689287, -1.488993, -2.658906, 2.192221, -44.926743, -90.094254, -614.102295
1733468549.864567, -1.976114, -3.618537, -3.163040, -1.412471, -2.497775, 2.249951, -46.176147, -90.258194, -614.880005
1733468549.874567, -1.799691, -3.565415, -3.471892, -1.382129, -2.302803, 2.318956, -47.214142, -89.972092, -615.034058
1733468549.884566, -1.725322, -3.660734, -3.617190, -1.397806, -2.163580, 2.403198, -48.618530, -89.664597, -615.470215
1733468549.894618, -1.648857, -3.610007, -3.472191, -1.473758, -2.159667, 2.492888, -49.964600, -89.459915, -616.305298
1733468549.904572, -1.796848, -3.371784, -3.194912, -1.563731, -2.278319, 2.573870, -50.998444, -89.140976, -616.413696
1733468549.914572, -2.207005, -3.290830, -3.221249, -1.620389, -2.348807, 2.700931, -52.170853, -88.646088, -617.317871
1733468549.924564, -2.820669, -2.958186, -3.845686, -1.672817, -2.241661, 2.868730, -53.369965, -87.951233, -617.961975
1733468549.934560, -3.524265, -2.492813, -4.622006, -1.765003, -1.981195, 3.068336, -54.728882, -87.446365, -618.019287
1733468549.944618, -4.181473, -2.235287, -5.449951, -1.889374, -1.582741, 3.289619, -56.237610, -86.934143, -618.956604
1733468549.954570, -4.843021, -2.139818, -6.463596, -2.018864, -1.136424, 3.452486, -58.129959, -85.970398, -619.431152
1733468549.964570, -5.684433, -2.397943, -7.449110, -2.104497, -0.833195, 3.509865, -59.334747, -85.180786, -620.407104
1733468549.974569, -6.774992, -2.933944, -8.211812, -2.081302, -0.776421, 3.472492, -61.313446, -84.292648, -621.437195
1733468549.984564, -7.997382, -3.197307, -8.871864, -1.911027, -0.877133, 3.340951, -62.665009, -83.354965, -622.073364
1733468549.994557, -9.537302, -3.450942, -9.754576, -1.619153, -1.002926, 3.118016, -63.662781, -82.303558, -622.178711
1733468550.004163, -11.184812, -3.956119, -10.718841, -1.343191, -1.044019, 2.867874, -64.938873, -81.249390, -622.727051
1733468550.014563, -12.674155, -4.359392, -11.348815, -1.180159, -0.994424, 2.578200, -65.978943, -80.267410, -622.850647
1733468550.024570, -14.123396, -4.969315, -11.776928, -1.086949, -0.980225, 2.218324, -67.030334, -79.535324, -622.892822
1733468550.034580, -15.344139, -5.668422, -12.287342, -0.931597, -1.046646, 1.851247, -67.227448, -78.893463, -622.575806
1733468550.044569, -16.211139, -6.149357, -13.349769, -0.684710, -1.101110, 1.506884, -67.737656, -78.229691, -622.751465
1733468550.054570, -16.764050, -6.503699, -14.687380, -0.422403, -1.148273, 1.170898, -68.035019, -77.763580, -622.453308
1733468550.064559, -17.271322, -6.418406, -15.587600, -0.185065, -1.072753, 0.880013, -68.262558, -77.355682, -622.002808
1733468550.074564, -17.526454, -6.209661, -16.559795, 0.017230, -0.781799, 0.659926, -68.434235, -77.244934, -621.939514
1733468550.084618, -17.568652, -6.646005, -17.493384, 0.160643, -0.345481, 0.458700, -68.651291, -76.972565, -621.634216
1733468550.094567, -17.685818, -7.452701, -17.951574, 0.304086, 0.134984, 0.237511, -68.985535, -77.060394, -621.955505
1733468550.104560, -17.842938, -8.102128, -18.016517, 0.525513, 0.472719, -0.052198, -68.983673, -77.187866, -621.824524
1733468550.114572, -17.807174, -8.580968, -17.376218, 0.808679, 0.512753, -0.398821, -69.036743, -77.402695, -621.177002
1733468550.124618, -17.575984, -8.618527, -16.176124, 1.120590, 0.351592, -0.759353, -68.848816, -77.815094, -621.006714
1733468550.134564, -17.189320, -8.473828, -15.134198, 1.405085, 0.173522, -1.081738, -68.350601, -78.084152, -620.747070
1733468550.144562, -16.643891, -8.257751, -14.323461, 1.605562, 0.120024, -1.333084, -67.798508, -78.827820, -620.034424
1733468550.154557, -15.938200, -8.154352, -13.638420, 1.703098, 0.206397, -1.507655, -66.872894, -79.294922, -619.468201
1733468550.164631, -15.257050, -8.076989, -12.736405, 1.698856, 0.431462, -1.626226, -66.370056, -80.079819, -619.042908
1733468550.174568, -14.710873, -7.815871, -11.771242, 1.625343, 0.746235, -1.725642, -65.305359, -80.775681, -618.762756
1733468550.184559, -14.197167, -7.801207, -10.826730, 1.533062, 1.045800, -1.817953, -64.791138, -81.292374, -618.157532
1733468550.194621, -13.660566, -7.768586, -9.925911, 1.479824, 1.313504, -1.921176, -64.031326, -82.143494, -617.775269
1733468550.204558, -13.177836, -7.454796, -9.136722, 1.467424, 1.511413, -2.036808, -63.347443, -82.689301, -617.702637
1733468550.214566, -12.563872, -7.194426, -8.191462, 1.453292, 1.569064, -2.148612, -62.402496, -83.353394, -617.648865
1733468550.224610, -11.902624, -6.852504, -7.088483, 1.423276, 1.569353, -2.252596, -61.474838, -84.235596, -617.505737
1733468550.234557, -11.323377, -6.373215, -6.339247, 1.387727, 1.581406, -2.336233, -60.358307, -84.737183, -617.511047
1733468550.244553, -10.671406, -6.112098, -5.975778, 1.374425, 1.605598, -2.384021, -59.497345, -85.286118, -616.992859
1733468550.254556, -10.019435, -5.795913, -5.794567, 1.390114, 1.706139, -2.430818, -58.181229, -86.029129, -616.988647
1733468550.264623, -9.622147, -5.568763, -5.803246, 1.427565, 1.900674, -2.506042, -57.141541, -86.481262, -616.480957
1733468550.274561, -9.351153, -5.384709, -5.567117, 1.465527, 2.080375, -2.612288, -56.037979, -86.992920, -616.262756
1733468550.284573, -8.924836, -5.013458, -4.917541, 1.510132, 2.204025, -2.730882, -54.674026, -87.517654, -616.064331
1733468550.294573, -8.347085, -4.562002, -4.099771, 1.558558, 2.263149, -2.853935, -53.646133, -88.207138, -615.118958
1733468550.304574, -7.680449, -4.101267, -3.291578, 1.586416, 2.260471, -2.979089, -52.150146, -88.660492, -614.978027
1733468550.314577, -6.910713, -3.834464, -2.585738, 1.584019, 2.229868, -3.105554, -50.710297, -89.027634, -614.411621
1733468550.324559, -6.120627, -3.632602, -2.074127, 1.579377, 2.175078, -3.231642, -49.130768, -89.654724, -614.171082
1733468550.334556, -5.176563, -3.444508, -1.627459, 1.602873, 2.078081, -3.335374, -47.699860, -89.897064, -613.487610
1733468550.344555, -4.172345, -3.258957, -1.348833, 1.666518, 1.959158, -3.412041, -45.745468, -90.132812, -612.935669
1733468550.354555, -3.256713, -2.938733, -1.210867, 1.772215, 1.887184, -3.483282, -44.463089, -90.135010, -611.861450
1733468550.364557, -2.412009, -2.670582, -1.156250, 1.900435, 1.850352, -3.532107, -42.578720, -90.159988, -611.218384
1733468550.374557, -1.597232, -2.336890, -0.932093, 2.000242, 1.807232, -3.559463, -41.106766, -90.268616, -610.054688
1733468550.384566, -0.796371, -1.980154, -0.354641, 2.039249, 1.744203, -3.591201, -39.607147, -90.008957, -609.010742
1733468550.394559, 0.007781, -1.886930, 0.355090, 2.014799, 1.662552, -3.611028, -38.012527, -89.906754, -607.317993
1733468550.404557, 0.733224, -1.657985, 1.033547, 1.926660, 1.604666, -3.615909, -36.293671, -89.733627, -607.217712
1733468550.414564, 1.378911, -1.395071, 1.517325, 1.796358, 1.618266, -3.578804, -34.666183, -89.258881, -606.400635
1733468550.424574, 2.807800, -0.857872, 1.982698, 1.647672, 1.656395, -3.508768, -33.319519, -88.918701, -605.209595
1733468550.434561, 3.401412, -0.566079, 2.132485, 1.514870, 1.666349, -3.413458, -31.822952, -88.323624, -604.016174
1733468550.444556, 3.894319, -0.369306, 2.025495, 1.433387, 1.653909, -3.305495, -30.781677, -87.907135, -603.523926
1733468550.454561, 4.425083, -0.227449, 1.824531, 1.407461, 1.647338, -3.177799, -29.389542, -87.310730, -602.732666
1733468550.464555, 4.824915, 0.069432, 1.751807, 1.413277, 1.615126, -3.011754, -28.100647, -86.613708, -601.911743
1733468550.474565, 4.936844, 0.370054, 1.578228, 1.430266, 1.622941, -2.807300, -27.448868, -86.124664, -600.981201
1733468550.484552, 4.983082, 0.475099, 1.431733, 1.415382, 1.759514, -2.612436, -26.801041, -85.347580, -599.993225
1733468550.494551, 5.150227, 0.417040, 1.476025, 1.388808, 1.966006, -2.433259, -25.920990, -84.960648, -598.679932
1733468550.504550, 5.294029, 0.344466, 1.799991, 1.376831, 2.104209, -2.255790, -25.925079, -84.092621, -598.664795
1733468550.514567, 5.227889, 0.046088, 1.963844, 1.405711, 2.181826, -2.149965, -25.530792, -83.555588, -597.554932
1733468550.524566, 5.275324, -0.318728, 2.005892, 1.546571, 2.239213, -2.086560, -25.377075, -82.905228, -596.797485
1733468550.534560, 5.342811, -1.068861, 2.638859, 1.780187, 2.265925, -2.141806, -25.404770, -82.048584, -595.729614
1733468550.544566, 5.776460, -1.492934, 4.193444, 2.007930, 2.138988, -2.323447, -25.142838, -81.426392, -594.798096
1733468550.554562, 6.719028, -0.872687, 6.032640, 2.125462, 1.844920, -2.477507, -24.855850, -80.384766, -593.859497
1733468550.564550, 7.811831, -0.590320, 7.265953, 2.101508, 1.578637, -2.604291, -24.097992, -79.369522, -592.832642
1733468550.574549, 9.065495, -0.619051, 8.184878, 1.933649, 1.468494, -2.701850, -24.035706, -78.444351, -591.741150
1733468550.584548, 10.426748, -0.440533, 9.376442, 1.612970, 1.405024, -2.767246, -23.724640, -77.567825, -590.785461
1733468550.594548, 12.035352, -0.300772, 10.346243, 1.255408, 1.219512, -2.814234, -23.286026, -76.908646, -590.139404
1733468550.604551, 13.880384, -0.411054, 10.547057, 1.016886, 0.920696, -2.848177, -22.766098, -76.089127, -590.038696
1733468550.614555, 16.071976, -0.373047, 10.211869, 0.906730, 0.685295, -2.821621, -22.766098, -76.089127, -590.038696
1733468550.624551, 18.441787, 0.260369, 9.977087, 0.823642, 0.602545, -2.613214, -22.173615, -75.303757, -589.604004
1733468550.634551, 20.363733, 0.561141, 10.155605, 0.711708, 0.670708, -2.278899, -21.994247, -74.471298, -589.223877
1733468550.644559, 21.900511, 0.603638, 10.653449, 0.590289, 0.766268, -1.864237, -21.459213, -74.107285, -588.500000
1733468550.654550, 23.059903, 0.962020, 11.429470, 0.513543, 0.760114, -1.379362, -21.517792, -73.735641, -588.500488
1733468550.664554, 23.854928, 1.140837, 12.335526, 0.481578, 0.611009, -0.860365, -21.573685, -73.453751, -587.850830
1733468550.673804, 23.854928, 1.140837, 12.335526, 0.454786, 0.382662, -0.345236, -21.436401, -73.068405, -588.486694
1733468550.684562, 23.672220, 0.732027, 13.695432, 0.385614, 0.159895, 0.132835, -21.505463, -72.862335, -587.741333
1733468550.694551, 22.816293, 0.436792, 14.213627, 0.225031, -0.042406, 0.545723, -21.695618, -72.849060, -587.849304
1733468550.704547, 21.757158, 0.198120, 14.457387, 0.021845, -0.261136, 0.904959, -21.798965, -73.203186, -587.400330
1733468550.714550, 20.490176, -0.048034, 14.302063, -0.211196, -0.474059, 1.195968, -21.680420, -73.528580, -588.278015
1733468550.724546, 19.190873, -0.286257, 13.729998, -0.429591, -0.656894, 1.451103, -21.686630, -73.567963, -588.096375
1733468550.734546, 17.822736, -0.408511, 13.057228, -0.629447, -0.785103, 1.664734, -21.805115, -74.242828, -588.579041
1733468550.744545, 16.496947, -0.478691, 12.535741, -0.809962, -0.924693, 1.849812, -21.721436, -74.866898, -588.849670
1733468550.754548, 15.197644, -0.593163, 11.949909, -0.952730, -1.102213, 2.010396, -22.142212, -75.421112, -589.465515
1733468550.764543, 13.842825, -0.813580, 11.172093, -1.070480, -1.294956, 2.128458, -22.220352, -76.144653, -589.980286
1733468550.774562, 12.524069, -1.064522, 10.367342, -1.140498, -1.488287, 2.209136, -22.431107, -76.641312, -590.492554
1733468550.784559, 11.353005, -1.229871, 9.559149, -1.177754, -1.680394, 2.266374, -22.557281, -77.467133, -591.231445
1733468550.794563, 10.269629, -1.520917, 8.705168, -1.189742, -1.851242, 2.285500, -22.621628, -78.165009, -591.910156
1733468550.804552, 9.439739, -1.685668, 7.842956, -1.209292, -1.931281, 2.306105, -22.715256, -78.948441, -591.785278
1733468550.814547, 8.737040, -1.608155, 7.209689, -1.265984, -1.952190, 2.342193, -22.968613, -79.696976, -593.347717
1733468550.824544, 8.045715, -1.732953, 6.652439, -1.345320, -1.972255, 2.365589, -23.217651, -80.304306, -594.044922
1733468550.834543, 7.470208, -1.686117, 6.001216, -1.429969, -1.973997, 2.386348, -23.567047, -81.444931, -595.169189
1733468550.844547, 6.932860, -1.374272, 5.330989, -1.490885, -2.003261, 2.439195, -23.884857, -82.078033, -596.258179
1733468550.854542, 6.405836, -1.419462, 4.510975, -1.495413, -2.089298, 2.499052, -24.149796, -82.703827, -596.640503
1733468550.864569, 5.819855, -1.525855, 3.651756, -1.437034, -2.188358, 2.563883, -24.963928, -83.430222, -597.611267
1733468550.874553, 5.148731, -1.570896, 2.875436, -1.334399, -2.253505, 2.626827, -25.469345, -84.259979, -598.521362
1733468550.884547, 4.497209, -1.708861, 2.426823, -1.228564, -2.281920, 2.678510, -25.835434, -84.917557, -599.454834
1733468550.894543, 3.900454, -1.832163, 2.173785, -1.162337, -2.272363, 2.734782, -26.705673, -85.356384, -600.613647
1733468550.904548, 3.356371, -2.093131, 1.918354, -1.143678, -2.225188, 2.777365, -27.404160, -86.126007, -600.325317
1733468550.914553, 2.838027, -2.457049, 1.718289, -1.149574, -2.164969, 2.797970, -28.198517, -86.709152, -601.912964
1733468550.924542, 2.399888, -2.681057, 1.433379, -1.161543, -2.074652, 2.799991, -29.206375, -87.212997, -602.905029
1733468550.934538, 1.953818, -2.899677, 1.292420, -1.182678, -2.002042, 2.762725, -30.443115, -87.803665, -603.773560
1733468550.944546, 1.573888, -3.193416, 1.197550, -1.188020, -1.998692, 2.690822, -31.241730, -88.266800, -604.314636
1733468550.954538, 1.401955, -3.334524, 1.140388, -1.162464, -2.049880, 2.617387, -32.317978, -88.579041, -604.882263
1733468550.964539, 1.255459, -3.354426, 1.061529, -1.139135, -2.152001, 2.564506, -33.341354, -88.872452, -605.721436
1733468550.974542, 1.130362, -3.435530, 1.021277, -1.138324, -2.282151, 2.549007, -34.348450, -89.283646, -606.143311
1733468550.984539, 0.942118, -3.394978, 0.874482, -1.175438, -2.395168, 2.571626, -35.218842, -89.688034, -607.037231
1733468550.994618, 0.628328, -3.259257, 0.509366, -1.273747, -2.422912, 2.628399, -35.913773, -89.874832, -607.692078
1733468551.004538, 0.212336, -3.282151, -0.024241, -1.428467, -2.337879, 2.699634, -37.097488, -90.063461, -608.048096
1733468551.014557, -0.105345, -3.262549, -0.700304, -1.581949, -2.183462, 2.796247, -38.249817, -90.314255, -609.437561
1733468551.024539, -0.442628, -3.220800, -1.426046, -1.693195, -1.983328, 2.912635, -39.628433, -90.448013, -610.463806
1733468551.034577, -0.767791, -3.404704, -2.089689, -1.748760, -1.796248, 3.034766, -40.969147, -90.448547, -611.046509
1733468551.044551, -1.199645, -3.701885, -2.443582, -1.764307, -1.641096, 3.162503, -42.466095, -90.563126, -611.967896
1733468551.054542, -1.923741, -3.722235, -2.416498, -1.794726, -1.544572, 3.240037, -44.097260, -90.432663, -613.035156
1733468551.064537, -2.626290, -3.566014, -2.252196, -1.874368, -1.534508, 3.246686, -45.729233, -90.388275, -613.913452
1733468551.074554, -3.303849, -3.236811, -2.471115, -1.971002, -1.584049, 3.255084, -47.235397, -89.963211, -614.798401
1733468551.084537, -4.101866, -3.013252, -3.153612, -2.059962, -1.562856, 3.252241, -48.761963, -89.643890, -615.684570
1733468551.094551, -4.802320, -3.114557, -3.875764, -2.143477, -1.524717, 3.238158, -50.367737, -89.395111, -616.648315
1733468551.104547, -5.275324, -3.446453, -4.753687, -2.210818, -1.515644, 3.219362, -52.009048, -88.882080, -616.474060
1733468551.113591, -5.749376, -3.514089, -5.803545, -2.239829, -1.472285, 3.187434, -53.390900, -88.358444, -618.293030
1733468551.124581, -6.070648, -3.268385, -6.763171, -2.222691, -1.397251, 3.177100, -54.826370, -87.635788, -619.102234
1733468551.134534, -6.390573, -3.091812, -7.604882, -2.163074, -1.338348, 3.241776, -56.372101, -86.869141, -619.997620
1733468551.144530, -7.040150, -3.168277, -8.359654, -2.054286, -1.313938, 3.305602, -58.058701, -86.094986, -620.824524
1733468551.153611, -7.959823, -3.387945, -9.119664, -1.905198, -1.295377, 3.308811, -59.411728, -85.110275, -621.044434
1733468551.164542, -9.059509, -3.862147, -9.952696, -1.724122, -1.235036, 3.247610, -60.986328, -84.374268, -621.739685
1733468551.174533, -10.269479, -4.583250, -10.518925, -1.526171, -1.137351, 3.104992, -62.559509, -83.470825, -622.157227
1733468551.184188, -11.323227, -5.105336, -10.598682, -1.324692, -1.089904, 2.896148, -63.558807, -82.375732, -622.606506
1733468551.194532, -12.050017, -5.209932, -10.467300, -1.138008, -1.110625, 2.657566, -64.590866, -81.754959, -622.619629
1733468551.204542, -12.673706, -5.258415, -10.505907, -0.997402, -1.174453, 2.426025, -65.488205, -80.742416, -621.784729
1733468551.214550, -13.300089, -5.455488, -10.981156, -0.894382, -1.165441, 2.232553, -66.440643, -80.204803, -622.472778
1733468551.224595, -13.935750, -5.804443, -11.636718, -0.832045, -1.037665, 2.059080, -66.891907, -79.434082, -622.939697
1733468551.234536, -14.633510, -6.333860, -12.404508, -0.787589, -0.819775, 1.882542, -67.569901, -78.664124, -622.616943
1733468551.243960, -15.506945, -6.905626, -13.129952, -0.737176, -0.534753, 1.662198, -68.255219, -78.008728, -622.413452
1733468551.254544, -16.247202, -7.398083, -13.597868, -0.661687, -0.266035, 1.380370, -68.708252, -77.663925, -622.912048
1733468551.264534, -16.699856, -7.714866, -13.861081, -0.547232, -0.087240, 1.058589, -68.956955, -77.338943, -623.151611
1733468551.274588, -16.768540, -7.827543, -14.019846, -0.370975, -0.037234, 0.727001, -69.372131, -77.027359, -622.545898
1733468551.284540, -16.780660, -7.647080, -14.088680, -0.137053, -0.098624, 0.422040, -69.222717, -76.896835, -622.643311
1733468551.294542, -16.821811, -7.412149, -14.299519, 0.082892, -0.110304, 0.147530, -69.286575, -76.831619, -622.730469
1733468551.304546, -16.687735, -7.455544, -14.518888, 0.239957, -0.008544, -0.092155, -69.127014, -76.999649, -621.995361
1733468551.314533, -16.420333, -7.455544, -14.685135, 0.356847, 0.185475, -0.281883, -68.960205, -77.144989, -622.718201
1733468551.324596, -16.097116, -7.311742, -14.848539, 0.485002, 0.458661, -0.439820, -68.905441, -77.313126, -622.403809
1733468551.334532, -15.766566, -7.137714, -14.724789, 0.652343, 0.716522, -0.589175, -68.667526, -77.897232, -622.613342
1733468551.344543, -15.461006, -7.009175, -14.301764, 0.856057, 0.948306, -0.759309, -68.408844, -78.096527, -622.835327
1733468551.354532, -15.114296, -6.844125, -13.475764, 1.073544, 1.110214, -0.948249, -67.740982, -78.647888, -622.451233
1733468551.364536, -14.787936, -6.599168, -12.411541, 1.264477, 1.211780, -1.157588, -67.334274, -79.250839, -622.420288
1733468551.374531, -14.361020, -6.310966, -11.298238, 1.395088, 1.298673, -1.371481, -66.895416, -79.837372, -622.119080
1733468551.384537, -13.765612, -6.037129, -10.224139, 1.460059, 1.379984, -1.565028, -65.609329, -80.523972, -622.308716
1733468551.394585, -13.114689, -5.757756, -9.311948, 1.463699, 1.468922, -1.722264, -65.212982, -81.033539, -622.056396
1733468551.404530, -12.477831, -5.488258, -8.715493, 1.437653, 1.591847, -1.855048, -64.367020, -81.823517, -621.134216
1733468551.414540, -11.767501, -5.286547, -8.326884, 1.417914, 1.733293, -1.968123, -63.250351, -82.581085, -621.833435
1733468551.424598, -11.108796, -4.925471, -8.030601, 1.437847, 1.861247, -2.071458, -62.430649, -83.213974, -621.767456
1733468551.434532, -10.498874, -4.382586, -7.720851, 1.513596, 1.971643, -2.161452, -61.305481, -84.137390, -621.765625
1733468551.444535, -9.897480, -3.911078, -7.273435, 1.619800, 2.042128, -2.244868, -60.332291, -84.551422, -620.910217
1733468551.454583, -9.403227, -3.548057, -6.786365, 1.715273, 2.102593, -2.337042, -59.132965, -85.336716, -620.876709
1733468551.464528, -8.991873, -3.290381, -6.404789, 1.787966, 2.208882, -2.442842, -57.934555, -86.169434, -620.659302
1733468551.474537, -8.485350, -3.286640, -6.054936, 1.866428, 2.374863, -2.557919, -56.729980, -86.762695, -620.219727
1733468551.484538, -7.841310, -3.324798, -5.568464, 1.974884, 2.576152, -2.670472, -55.298889, -87.367126, -620.025452
1733468551.494529, -7.092074, -3.233369, -4.659416, 2.125042, 2.704088, -2.788866, -54.098434, -88.091400, -619.206543
1733468551.504543, -6.427085, -2.812289, -3.510199, 2.300430, 2.693121, -2.908849, -52.795425, -88.504257, -618.122253
1733468551.513917, -5.771822, -2.292598, -2.348413, 2.464616, 2.558798, -3.041624, -51.402039, -88.880234, -617.542725
1733468551.524586, -4.998046, -1.888277, -1.300201, 2.563870, 2.353100, -3.190182, -49.772141, -89.508347, -616.826904
1733468551.534531, -4.158579, -1.773206, -0.577601, 2.575830, 2.133174, -3.345792, -47.970718, -89.654266, -615.255249
1733468551.544537, -3.346046, -1.750012, -0.184952, 2.514709, 1.973739, -3.481046, -46.298370, -89.875809, -614.018555
1733468551.554535, -2.540847, -1.757793, -0.056713, 2.422509, 1.934124, -3.607120, -44.488113, -90.138107, -612.974243
1733468551.564531, -1.609053, -1.725770, 0.013467, 2.359488, 1.965461, -3.697326, -42.842377, -90.183395, -611.828735
1733468551.574538, -0.646584, -1.662623, 0.112677, 2.350402, 2.055582, -3.733197, -41.119629, -90.120575, -611.077881
1733468551.584546, 0.339977, -1.621174, 0.590320, 2.363279, 2.149336, -3.746396, -39.258286, -90.067734, -609.400574
1733468551.594543, 1.387589, -1.197400, 1.459266, 2.341909, 2.159020, -3.703179, -37.937485, -89.822693, -608.520264
1733468551.604529, 2.359336, -0.519242, 2.334496, 2.082124, 1.965033, -3.471638, -36.416382, -89.304306, -607.059448
1733468551.614531, 3.226187, -0.068085, 3.172018, 1.876612, 1.749698, -3.306664, -34.941833, -88.947906, -606.009155
1733468551.624523, 4.052037, 0.148141, 3.524414, 1.735501, 1.567384, -3.127462, -33.672714, -88.554382, -605.528809
1733468551.634528, 4.601207, -0.114473, 3.147477, 1.710887, 1.546248, -2.939963, -32.322006, -88.097839, -604.652466
1733468551.644533, 5.228188, -0.709731, 2.340182, 1.744403, 1.604275, -2.701818, -31.315674, -87.559372, -603.732422
1733468551.654531, 6.036830, -0.863110, 2.129942, 1.754334, 1.645245, -2.410898, -30.479996, -87.182770, -602.656677
1733468551.664522, 6.620417, -0.548272, 2.447173, 1.685021, 1.676096, -2.084537, -29.807602, -86.560898, -601.537231
1733468551.674518, 7.230639, -0.143802, 2.904316, 1.489525, 1.692311, -1.751593, -29.654816, -86.068176, -600.574585
1733468551.684537, 7.508665, -0.103998, 3.364751, 1.220290, 1.717967, -1.558389, -29.318527, -85.571182, -600.134521
1733468551.694523, 7.158962, -1.005116, 3.317017, 1.078596, 1.792206, -1.532899, -29.321228, -85.278992, -599.376343
1733468551.704524, 6.835296, -2.236184, 2.636016, 1.191440, 1.908605, -1.609397, -29.319717, -84.867813, -598.451843
1733468551.714523, 6.946477, -3.051859, 2.073678, 1.478807, 1.944556, -1.728444, -29.434647, -84.398987, -598.065796
1733468551.724522, 7.649175, -3.275118, 2.714875, 1.721474, 1.773958, -1.805693, -28.957047, -83.791626, -597.546204
1733468551.734540, 8.717588, -2.853140, 4.455909, 1.863666, 1.513000, -1.811883, -28.824188, -82.888321, -596.208069
1733468551.744536, 9.930999, -2.539200, 5.998822, 1.906737, 1.344523, -1.789325, -28.680069, -82.417862, -595.299316
1733468551.754559, 11.015123, -2.431461, 7.364115, 1.792135, 1.210584, -1.785152, -28.599686, -81.816986, -594.997131
1733468551.764518, 12.216564, -2.628235, 8.878149, 1.521303, 1.071732, -1.777923, -28.030685, -81.284134, -593.720947
1733468551.774517, 13.634530, -2.812289, 10.085724, 1.213653, 0.997268, -1.721692, -28.251434, -80.682861, -592.828064
1733468551.784528, 14.978874, -2.812139, 10.487202, 0.929719, 1.039307, -1.610100, -27.987396, -80.272446, -593.215576
1733468551.794540, 16.100557, -2.903269, 10.258855, 0.721256, 1.096853, -1.475524, -27.915634, -80.123718, -592.470215
1733468551.804527, 17.330728, -3.061585, 10.224588, 0.600098, 1.006014, -1.265042, -27.827927, -79.763000, -592.556396
1733468551.814538, 18.559253, -2.821417, 10.651205, 0.540495, 0.811187, -0.983981, -27.536942, -79.361755, -592.330322
1733468551.824534, 19.396026, -2.637363, 11.059566, 0.482360, 0.544242, -0.680285, -27.361404, -79.042252, -591.788086
1733468551.833844, 19.765033, -2.769193, 11.785458, 0.482360, 0.544242, -0.680285, -27.422638, -78.740570, -591.691956
1733468551.844523, 19.814712, -3.032256, 12.505514, 0.298938, -0.115439, -0.088206, -27.158630, -78.906876, -591.504822
1733468551.854533, 19.290382, -3.619434, 12.365752, 0.193172, -0.252950, 0.139903, -26.979050, -78.825165, -591.321411
1733468551.864521, 18.471415, -4.192846, 11.871350, 0.084114, -0.270489, 0.357078, -26.979691, -78.830048, -591.489868
1733468551.874521, 17.860744, -4.565294, 11.514614, -0.035261, -0.239449, 0.574492, -27.265213, -78.920288, -591.745667
1733468551.884519, 17.331027, -4.724658, 11.648839, -0.192354, -0.309468, 0.766930, -27.095505, -79.069031, -591.966064
1733468551.894520, 16.612318, -4.741866, 12.315923, -0.383824, -0.502268, 0.932620, -27.387115, -79.452957, -591.334351
1733468551.904524, 15.681273, -4.827459, 12.753613, -0.563200, -0.711094, 1.063537, -27.474274, -79.846039, -592.600525
1733468551.914537, 14.679299, -4.907664, 12.627618, -0.725099, -0.964503, 1.166332, -27.640442, -80.161957, -592.784973
1733468551.924520, 13.732692, -5.068226, 12.565818, -0.891273, -1.245363, 1.233364, -27.554794, -80.557205, -593.283936
1733468551.934519, 12.796709, -5.345504, 12.202647, -1.042121, -1.482269, 1.265417, -27.455215, -80.934814, -593.788818
1733468551.944520, 11.943026, -5.405509, 11.477354, -1.178785, -1.636990, 1.288642, -27.269958, -81.341690, -594.158997
1733468551.954529, 11.267562, -5.210381, 10.558729, -1.303998, -1.736590, 1.326577, -27.061630, -81.928543, -594.754089
1733468551.964520, 10.765228, -5.067477, 9.671228, -1.415026, -1.808590, 1.382467, -26.876785, -82.280609, -595.582092
1733468551.974532, 10.289231, -4.790199, 8.865878, -1.511218, -1.865982, 1.477793, -26.833817, -83.001724, -596.589600
1733468551.984516, 9.844359, -4.469526, 7.973889, -1.586216, -1.869155, 1.606838, -27.097351, -83.378052, -597.089966
1733468551.994515, 9.321525, -4.101267, 7.064691, -1.670959, -1.855839, 1.737176, -26.854980, -84.128998, -597.653625
1733468552.003727, 8.709357, -3.793014, 6.375759, -1.770767, -1.867196, 1.876866, -26.854980, -84.128998, -597.653625
1733468552.014527, 8.038532, -3.402909, 5.660042, -1.861865, -1.856746, 1.980829, -28.153595, -85.184860, -600.018860
1733468552.024514, 7.258920, -3.193117, 4.681113, -1.912836, -1.820175, 2.062030, -28.232147, -85.711319, -601.134155
1733468552.034514, 6.627001, -3.157054, 3.677643, -1.933599, -1.751420, 2.142774, -29.042282, -86.357452, -602.216248
1733468552.044526, 6.097882, -3.044676, 2.795530, -1.936592, -1.708209, 2.190963, -29.862442, -86.870377, -603.332581
1733468552.054517, 5.608417, -2.991256, 2.277035, -1.924861, -1.741524, 2.233277, -30.669250, -87.460922, -604.115417
1733468552.064523, 5.320664, -2.815132, 1.956212, -1.902494, -1.846686, 2.290932, -31.326202, -88.047882, -605.270020
1733468552.074514, 4.924723, -2.530222, 1.638831, -1.850020, -1.946564, 2.352620, -31.968628, -88.411423, -606.322266
1733468552.084529, 4.463241, -2.417994, 1.137994, -1.779044, -2.016039, 2.433958, -32.787292, -88.953918, -607.382080
1733468552.094515, 4.160225, -2.381482, 0.610073, -1.696513, -2.054410, 2.539369, -32.787292, -88.953918, -607.382080
1733468552.104549, 3.784634, -2.354548, 0.148590, -1.621701, -2.013795, 2.637592, -33.655426, -89.327957, -608.077393
1733468552.114511, 3.297714, -2.433706, -0.200814, -1.592494, -1.926257, 2.725177, -34.770737, -89.614990, -609.032471
1733468552.124513, 2.804957, -2.557606, -0.267402, -1.629276, -1.827788, 2.782006, -35.973557, -89.875320, -610.207336
1733468552.134573, 2.138920, -2.696769, -0.184054, -1.726615, -1.747875, 2.797242, -37.361191, -90.006805, -611.022278
1733468552.144509, 1.523610, -2.870947, -0.125696, -1.852355, -1.696678, 2.790836, -38.621719, -90.349197, -611.896606
1733468552.153593, 0.993145, -2.935591, -0.211288, -1.968699, -1.673091, 2.779587, -39.701950, -90.574493, -613.424316
1733468552.164511, 0.461033, -2.905513, -0.527921, -2.034987, -1.656528, 2.771091, -40.955338, -90.746674, -614.363953
1733468552.174559, 0.054468, -2.956240, -1.134403, -2.035103, -1.653873, 2.764603, -42.629425, -90.609253, -615.215210
1733468552.184507, -0.246902, -3.105130, -1.814506, -1.984328, -1.638617, 2.765683, -43.809631, -90.453796, -616.176392
1733468552.194513, -0.584933, -3.233968, -2.445378, -1.920591, -1.630531, 2.741070, -45.270782, -90.459503, -617.238770
1733468552.204516, -0.991499, -3.369540, -2.923919, -1.837869, -1.695911, 2.695547, -46.543839, -90.327271, -617.335205
1733468552.214564, -1.577629, -3.467103, -3.304298, -1.700837, -1.790675, 2.616287, -47.976929, -90.057068, -619.090698
1733468552.224532, -2.267010, -3.624522, -3.888483, -1.527058, -1.852239, 2.461843, -49.459549, -89.651199, -619.449097
1733468552.234511, -3.065775, -3.812018, -4.368221, -1.369808, -1.885238, 2.260678, -50.692520, -89.331528, -619.610779
1733468552.244511, -3.592949, -3.872920, -4.692336, -1.257011, -1.860350, 2.082325, -51.533127, -88.974045, -620.369751
1733468552.254550, -3.643676, -3.819799, -4.945822, -1.220198, -1.804565, 1.943199, -53.026917, -88.705017, -620.693970
1733468552.264511, -3.380313, -3.704129, -5.095460, -1.226321, -1.832827, 1.892225, -53.557907, -88.467422, -620.992065
1733468552.274510, -3.232621, -3.450793, -5.248539, -1.180949, -1.838327, 1.932383, -54.304306, -87.941910, -621.640259
1733468552.284510, -3.201945, -3.026720, -5.892878, -1.065119, -1.771232, 2.040160, -55.521896, -87.413223, -621.755432
1733468552.294519, -3.372383, -2.650681, -6.540360, -0.917870, -1.689310, 2.189486, -56.611420, -87.145737, -621.837646
1733468552.304525, -3.639785, -2.682553, -6.792051, -0.801033, -1.630454, 2.335337, -57.482681, -86.617188, -621.844055
1733468552.314526, -4.003404, -3.140145, -6.793996, -0.735476, -1.561668, 2.456196, -58.626511, -85.989151, -622.331543
1733468552.324507, -4.549881, -3.555988, -6.616975, -0.727248, -1.474296, 2.532513, -60.012283, -85.310394, -622.099731
1733468552.334517, -5.389797, -3.710863, -6.438008, -0.758180, -1.380386, 2.557137, -61.346725, -84.571854, -622.127319
1733468552.344525, -6.399252, -4.071490, -6.232705, -0.848083, -1.375758, 2.499654, -62.413895, -83.975967, -622.134399
1733468552.354509, -7.510162, -4.491522, -5.844396, -0.968888, -1.425978, 2.354709, -63.717972, -83.117157, -621.619141
1733468552.364504, -8.468740, -4.863821, -5.928492, -1.065390, -1.433045, 2.197983, -64.608032, -82.185287, -621.945129
1733468552.374567, -9.083751, -5.009119, -6.544401, -1.129618, -1.373606, 2.085674, -65.161423, -81.723740, -622.433716
1733468552.384505, -9.480889, -4.980987, -7.287052, -1.189700, -1.241534, 2.015516, -66.339905, -80.971924, -622.093872
1733468552.394523, -9.706393, -4.991910, -8.172607, -1.242797, -1.113449, 1.974090, -66.824768, -80.264771, -622.326477
1733468552.404515, -10.023026, -4.872350, -8.916306, -1.261960, -1.091917, 1.941596, -67.842300, -79.643204, -621.644104
1733468552.414520, -10.517429, -4.756531, -9.509021, -1.226237, -1.088964, 1.892728, -68.388824, -78.658203, -622.907715
1733468552.424507, -11.139322, -4.914099, -10.580576, -1.102868, -1.008345, 1.825221, -69.035431, -77.825607, -622.266418
1733468552.434507, -11.858630, -5.363760, -11.994651, -0.903798, -0.844560, 1.749210, -69.597473, -77.245651, -622.639038
1733468552.444503, -12.510003, -5.833173, -13.197887, -0.677051, -0.632125, 1.636900, -70.109406, -76.546387, -622.680420
1733468552.454550, -13.223625, -6.169409, -13.869461, -0.479838, -0.473455, 1.501957, -70.742508, -75.809128, -622.367859
1733468552.464506, -13.875596, -6.173299, -13.896545, -0.313083, -0.443609, 1.308096, -71.186508, -75.329941, -622.380737
1733468552.474517, -14.659846, -6.345383, -13.677924, -0.150049, -0.458930, 1.058282, -71.732224, -74.790070, -622.436768
1733468552.484501, -15.317204, -6.679224, -13.806014, 0.032914, -0.488060, 0.779458, -72.018982, -74.436462, -622.143799
1733468552.494557, -15.826571, -6.958448, -14.036456, 0.239156, -0.472922, 0.505548, -72.011429, -74.243347, -621.741455
1733468552.504501, -16.175226, -7.196521, -14.374637, 0.438388, -0.322163, 0.271298, -72.116608, -74.239487, -620.935669
1733468552.514496, -16.438589, -7.247697, -14.661343, 0.591140, -0.041912, 0.055824, -72.040344, -74.179657, -621.370117
1733468552.524497, -16.677709, -7.234978, -14.584130, 0.678377, 0.263339, -0.124174, -71.811996, -74.252975, -621.273621
1733468552.534524, -16.694768, -7.017106, -14.053365, 0.738755, 0.527116, -0.297185, -72.080048, -74.364899, -620.993774
1733468552.544507, -16.635212, -6.841581, -13.475614, 0.830526, 0.730173, -0.502725, -71.801041, -74.812729, -620.913940
1733468552.554500, -16.508469, -6.971317, -13.062465, 0.984706, 0.853952, -0.744969, -71.764359, -75.012161, -620.703796
1733468552.564505, -16.305860, -7.082797, -12.559832, 1.189029, 0.889975, -1.029865, -71.510010, -75.450516, -620.604797
1733468552.574505, -15.966183, -7.164648, -11.885565, 1.406215, 0.855202, -1.336402, -71.072357, -76.145859, -620.717529
1733468552.584563, -15.439009, -7.086388, -10.979061, 1.559014, 0.792476, -1.643337, -70.468918, -76.690475, -620.366699
1733468552.594503, -14.853477, -6.744765, -9.942371, 1.629571, 0.759845, -1.919109, -69.708923, -77.454758, -619.822083
1733468552.604519, -14.142998, -6.411822, -9.096919, 1.636873, 0.795445, -2.131855, -68.746063, -78.455566, -618.551575
1733468552.614498, -13.240234, -5.950339, -8.484003, 1.602102, 0.877627, -2.278417, -67.876083, -79.019730, -619.493835
1733468552.624575, -12.300959, -5.425710, -7.959075, 1.547692, 1.007255, -2.370177, -66.979553, -79.942108, -618.750244
1733468552.634500, -11.336545, -5.154118, -7.680898, 1.505715, 1.169117, -2.403625, -66.033035, -80.891403, -619.088501
1733468552.644502, -10.466402, -4.922329, -7.590816, 1.518944, 1.396529, -2.405619, -65.052689, -81.637909, -618.380310
1733468552.654504, -9.745149, -4.724957, -7.586477, 1.591234, 1.625627, -2.408833, -63.868683, -82.503174, -618.299927
1733468552.664543, -9.109488, -4.613627, -7.302764, 1.698673, 1.757485, -2.420398, -63.290787, -83.329285, -617.973938
1733468552.674501, -8.471883, -4.540454, -6.605902, 1.828773, 1.772627, -2.440250, -62.049820, -84.140350, -617.614868
1733468552.684509, -7.835025, -4.470124, -5.788282, 1.970523, 1.699650, -2.481365, -61.344681, -84.720932, -617.310608
1733468552.694515, -7.343615, -4.356400, -4.945972, 2.086569, 1.583975, -2.544411, -60.084946, -85.451096, -616.987671
1733468552.704517, -6.957700, -4.185962, -4.162768, 2.135538, 1.515396, -2.620933, -58.840286, -86.090851, -615.675537
1733468552.714504, -6.469283, -4.137480, -3.636044, 2.134194, 1.529489, -2.690457, -57.773621, -86.498810, -615.645081
1733468552.724506, -5.998223, -4.256292, -3.241749, 2.096313, 1.611457, -2.748690, -56.338638, -87.091095, -615.118225
1733468552.734505, -5.614403, -4.174740, -2.844312, 2.052098, 1.762440, -2.816974, -55.180161, -87.538696, -614.242554
1733468552.744564, -5.198410, -4.121469, -2.469769, 2.018369, 1.936854, -2.892425, -53.720779, -88.097137, -613.431580
1733468552.754496, -4.643704, -4.036624, -1.969530, 1.985926, 2.020118, -2.971450, -52.365417, -88.456619, -612.951355
1733468552.764496, -4.019865, -3.764433, -1.134852, 1.950504, 2.011758, -3.050735, -51.242264, -88.747696, -612.243652
1733468552.774559, -3.307440, -3.612252, -0.440683, 1.923705, 1.929190, -3.125714, -49.749512, -89.277542, -611.376221
1733468552.784510, -2.545635, -3.520973, 0.149189, 1.879686, 1.789811, -3.180582, -48.179062, -89.275269, -610.580200
1733468552.794508, -1.841141, -3.217957, 0.656460, 1.793587, 1.644745, -3.214681, -46.859024, -89.609100, -609.958862
1733468552.804512, -1.203086, -2.945616, 0.903661, 1.699352, 1.583576, -3.229640, -45.475021, -89.477722, -608.319214
1733468552.814515, -0.615609, -2.968361, 0.819864, 1.615964, 1.616789, -3.227256, -43.895645, -89.639725, -608.250122
1733468552.824502, -0.151433, -2.955941, 0.669030, 1.542938, 1.711581, -3.219693, -42.599274, -89.506165, -607.751160
1733468552.834494, 0.198120, -2.842516, 0.593612, 1.498338, 1.824872, -3.238737, -41.090271, -89.352524, -607.262878
1733468552.844492, 0.982969, -2.773533, 0.608426, 1.498336, 1.896109, -3.273057, -39.574387, -89.312408, -606.512695
1733468552.854505, 1.375768, -2.264316, 0.853533, 1.513414, 1.907935, -3.292047, -38.081100, -88.998184, -605.663452
1733468552.864504, 1.679981, -1.706617, 1.216554, 1.507296, 1.857748, -3.315636, -37.018173, -88.735291, -604.827820
1733468552.874496, 2.005742, -1.428441, 1.516278, 1.473255, 1.758176, -3.346043, -35.594116, -88.373749, -603.544983
1733468552.884494, 2.476353, -1.405097, 1.417966, 1.445196, 1.664283, -3.337776, -34.129669, -87.781784, -602.821472
1733468552.894491, 2.796428, -1.269825, 1.181987, 1.447716, 1.599329, -3.284976, -32.917282, -87.652481, -602.432251
1733468552.904178, 2.796428, -1.269825, 1.181987, 1.496939, 1.561502, -3.248003, -31.664322, -86.999695, -600.961487
1733468552.914494, 3.016544, -1.301997, 0.734721, 1.629948, 1.573662, -3.224131, -30.577789, -86.373734, -600.542175
1733468552.924497, 3.280505, -1.156848, 0.823456, 1.820374, 1.657416, -3.180957, -29.541428, -85.792313, -599.405029
1733468552.934497, 3.721786, -1.004068, 1.509694, 1.944179, 1.795758, -3.140430, -28.834763, -84.828110, -598.075256
1733468552.944496, 4.196736, -0.941520, 2.552818, 1.958254, 1.889359, -3.098595, -27.748703, -84.117996, -597.342590
1733468552.954491, 4.714632, -0.853234, 3.674501, 1.885651, 1.919135, -3.037390, -27.032547, -83.354538, -596.091064
1733468552.964492, 5.058350, -0.927304, 4.614824, 1.725558, 1.889387, -3.041559, -26.588684, -82.472473, -595.177734
1733468552.974493, 5.739650, -0.884358, 5.385757, 1.540681, 1.723032, -3.091494, -25.797379, -81.830887, -594.813965
1733468552.984496, 6.776189, -0.576254, 5.686977, 1.415609, 1.425667, -3.099563, -25.276031, -81.128235, -594.076721
1733468552.994495, 7.936629, -0.642095, 5.473145, 1.433285, 1.158918, -3.079020, -24.089935, -80.270416, -593.431702
1733468553.004514, 9.369708, -0.526724, 5.722890, 1.534447, 0.924250, -2.998131, -23.475784, -79.308960, -591.776367
1733468553.014503, 10.641029, -0.371101, 6.272808, 1.567211, 0.753641, -2.850433, -22.924240, -78.246872, -591.657715
1733468553.024495, 11.817031, -0.572813, 6.495768, 1.439444, 0.911753, -2.634066, -22.304321, -77.517365, -591.038025
1733468553.034493, 13.042713, -0.815375, 7.031471, 1.112885, 1.372050, -2.431496, -22.219940, -76.703934, -590.393860
1733468553.044510, 14.716409, -0.727837, 7.937826, 0.669594, 1.848918, -2.202248, -22.377655, -76.337631, -590.023071
1733468553.054499, 16.261567, -0.609923, 8.351275, 0.316950, 2.160183, -1.899854, -22.467682, -75.921219, -589.558044
1733468553.064491, 17.573141, -0.620846, 8.125920, 0.186066, 2.403784, -1.561071, -22.837082, -75.832703, -589.357178
1733468553.074493, 18.930055, -0.349404, 8.854805, 0.217375, 2.441440, -1.175862, -23.645050, -75.681061, -588.776855
1733468553.084495, 19.918261, -0.261417, 10.540772, 0.334931, 2.059600, -0.763762, -24.237625, -75.419327, -588.756836
1733468553.094497, 20.226515, -0.684293, 11.697022, 0.490162, 1.461640, -0.404971, -24.779037, -75.121887, -588.482178
1733468553.103790, 19.918411, -1.332373, 12.441918, 0.611186, 0.857426, -0.152212, -25.100845, -74.975571, -587.948242
1733468553.114492, 19.608811, -1.939154, 12.987796, 0.659952, 0.315537, 0.011247, -25.074783, -74.690201, -588.148560
1733468553.124499, 19.244443, -2.291401, 13.054385, 0.637234, -0.057583, 0.138544, -24.904922, -74.727310, -587.566345
1733468553.134499, 18.857032, -2.264765, 12.929886, 0.555559, -0.241800, 0.276345, -24.877563, -74.413239, -587.324951
1733468553.144533, 18.447025, -1.997961, 12.827983, 0.413662, -0.252177, 0.480154, -24.670883, -74.333694, -587.559753
1733468553.153574, 17.753604, -1.764976, 12.617892, 0.217007, -0.164336, 0.721281, -24.720169, -74.480667, -587.322632
1733468553.164496, 16.799066, -1.873612, 12.437279, 0.018523, -0.046038, 0.950393, -25.202332, -74.768250, -587.388550
1733468553.174489, 15.916952, -1.989133, 12.560431, -0.149969, -0.002381, 1.159557, -25.275269, -75.083466, -587.341187
1733468553.184533, 15.061025, -1.979107, 12.970587, -0.297240, -0.130318, 1.338688, -25.755005, -75.162384, -587.577942
1733468553.194485, 14.043489, -2.292298, 13.457059, -0.455054, -0.447678, 1.437055, -25.765121, -75.637589, -587.501526
1733468553.204012, 12.981062, -2.571223, 13.386730, -0.619505, -0.859769, 1.464983, -25.779175, -76.197205, -588.354248
1733468553.214489, 11.980884, -2.796876, 12.750171, -0.773760, -1.245979, 1.429117, -25.983902, -76.527573, -588.391541
1733468553.224536, 11.098471, -2.958784, 11.875390, -0.910661, -1.595778, 1.345653, -25.549698, -76.972473, -589.039856
1733468553.234487, 10.510695, -2.992902, 10.623671, -0.999426, -1.891898, 1.250807, -25.278915, -77.377899, -589.891479
1733468553.244488, 10.287136, -2.867056, 9.114277, -0.993624, -2.076421, 1.224167, -24.810898, -77.774857, -590.448975
1733468553.254485, 10.233865, -2.511667, 7.972243, -0.963881, -2.098977, 1.295865, -24.446884, -78.299393, -590.651794
1733468553.264502, 10.195857, -2.121712, 7.328801, -0.984519, -2.023489, 1.445242, -24.598389, -78.697556, -591.376526
1733468553.274496, 10.042030, -1.749862, 6.854450, -1.063392, -1.917143, 1.665838, -24.703842, -79.234146, -592.111389
1733468553.284495, 9.650877, -1.712153, 6.307973, -1.155745, -1.787293, 1.902889, -24.692520, -79.879776, -592.815674
1733468553.294487, 9.178172, -1.651101, 5.848885, -1.244713, -1.657920, 2.142596, -25.266663, -80.773026, -593.539734
1733468553.304490, 8.509142, -1.726968, 5.556194, -1.337116, -1.585322, 2.338496, -25.565201, -81.573303, -594.764648
1733468553.314497, 7.732224, -2.003648, 5.271284, -1.430326, -1.581287, 2.465759, -25.927643, -82.143463, -594.946533
1733468553.324502, 6.871359, -2.116175, 4.900482, -1.514911, -1.650157, 2.524308, -26.945511, -82.916290, -596.087219
1733468553.334486, 6.104466, -2.344522, 4.331560, -1.560251, -1.750267, 2.525124, -27.025757, -83.702118, -596.815308
1733468553.344482, 5.403863, -2.538003, 3.688717, -1.554791, -1.872660, 2.477792, -27.930878, -84.371429, -597.894897
1733468553.354484, 4.928165, -2.558204, 3.078943, -1.500858, -1.998029, 2.429737, -28.459534, -85.052261, -599.016602
1733468553.364482, 4.463540, -2.528277, 2.532317, -1.441040, -2.113725, 2.384081, -28.848831, -85.513046, -599.421509
1733468553.374483, 4.192696, -2.468871, 1.953669, -1.384356, -2.182781, 2.365202, -29.252518, -86.211349, -600.826782
1733468553.384524, 4.004901, -2.215235, 1.385794, -1.327150, -2.165991, 2.406718, -30.000046, -86.580566, -601.439941
1733468553.394492, 3.812317, -2.045546, 0.996138, -1.270010, -2.092364, 2.491163, -30.779266, -87.164612, -601.327515
1733468553.404500, 3.535637, -2.061108, 0.772280, -1.224639, -1.999188, 2.591233, -31.829529, -87.436066, -602.935669
1733468553.414480, 3.220949, -2.187552, 0.612167, -1.201261, -1.893666, 2.689483, -32.780655, -87.886780, -603.519226
1733468553.424526, 2.846107, -2.337489, 0.535852, -1.201053, -1.800481, 2.771629, -34.017975, -88.426468, -604.316956
1733468553.434484, 2.465280, -2.490568, 0.530765, -1.216870, -1.752145, 2.822147, -35.107101, -88.615234, -604.673096
1733468553.444483, 2.027889, -2.731934, 0.549918, -1.247198, -1.756850, 2.825804, -36.286316, -88.945663, -605.526978
1733468553.454476, 1.555633, -2.949058, 0.518794, -1.295891, -1.838071, 2.776302, -37.195786, -89.305405, -606.259766
1733468553.464521, 1.183484, -3.118298, 0.178368, -1.344582, -1.950128, 2.717095, -38.262039, -89.734772, -607.086426
1733468553.474480, 0.906804, -3.113210, -0.415544, -1.354201, -2.029931, 2.679468, -39.415955, -89.863586, -607.800842
1733468553.484480, 0.617105, -3.139995, -1.094449, -1.319840, -2.041397, 2.648798, -40.355515, -89.809937, -608.409912
1733468553.494490, 0.474202, -3.222595, -1.739388, -1.263274, -1.986869, 2.638061, -41.546722, -89.844040, -608.513672
1733468553.503840, 0.449362, -3.216610, -2.163012, -1.192348, -1.912417, 2.665112, -41.546722, -89.844040, -608.513672
1733468553.514485, 0.464774, -3.243245, -2.516456, -1.116788, -1.817151, 2.730224, -44.049774, -89.866623, -609.783691
1733468553.524490, 0.398635, -3.296067, -2.693477, -1.044591, -1.734195, 2.835256, -45.533401, -89.737411, -610.228638
1733468553.534490, 0.236727, -3.463811, -2.705298, -0.995690, -1.675800, 2.947928, -47.034164, -89.606674, -610.492310
1733468553.544487, -0.243311, -3.658340, -2.516605, -0.988104, -1.712225, 3.034039, -48.323959, -89.369110, -610.717529
1733468553.554482, -0.920421, -3.691111, -2.456002, -0.969159, -1.846182, 3.093488, -49.716461, -89.221527, -611.459290
1733468553.564480, -1.566556, -3.752761, -2.892196, -0.918481, -1.872830, 3.152926, -49.716461, -89.221527, -611.459290
1733468553.574480, -2.139070, -3.794361, -3.220949, -0.888945, -1.756612, 3.227781, -51.025574, -88.686249, -611.972595
1733468553.584483, -2.735824, -3.630208, -3.056947, -0.923075, -1.654295, 3.308807, -52.542450, -88.088455, -611.927246
1733468553.594477, -3.543867, -3.428497, -2.891298, -0.983893, -1.695927, 3.410886, -53.982437, -87.650055, -611.875549
1733468553.604493, -4.608389, -3.595492, -3.306841, -1.011751, -1.795087, 3.495581, -55.511734, -87.155228, -611.708374
1733468553.614486, -5.830779, -3.677643, -4.048445, -0.992649, -1.834871, 3.547976, -56.809326, -86.338333, -612.154663
1733468553.624493, -6.920141, -3.839402, -4.787206, -0.968111, -1.716283, 3.580801, -58.116592, -85.599609, -612.316528
1733468553.634492, -7.850587, -4.198682, -5.411794, -1.007484, -1.441445, 3.610689, -59.823547, -84.722565, -612.601685
1733468553.644485, -8.695142, -4.488679, -5.877167, -1.145831, -1.037676, 3.618461, -61.232147, -83.896759, -612.551697
1733468553.654478, -9.634267, -4.499752, -6.055684, -1.353107, -0.663336, 3.592383, -62.704819, -83.096970, -613.413940
1733468553.664477, -10.835558, -4.650288, -6.262932, -1.528894, -0.530015, 3.501306, -64.212326, -82.075653, -613.646484
1733468553.674538, -12.099996, -5.257966, -7.124396, -1.549773, -0.645801, 3.301105, -65.651474, -81.170456, -614.243042
1733468553.684477, -13.189956, -5.998972, -8.579771, -1.375878, -0.870387, 3.034521, -66.401001, -80.140717, -614.464478
1733468553.694474, -14.390199, -6.600515, -10.010905, -1.061080, -1.016972, 2.745950, -67.496597, -79.171356, -613.922913
1733468553.704480, -15.429133, -7.184850, -10.971130, -0.741233, -0.961865, 2.446414, -68.154892, -78.382797, -613.204590
1733468553.714475, -16.201563, -7.689278, -11.045799, -0.527413, -0.830089, 2.160061, -68.988434, -77.371857, -613.938965
1733468553.724477, -17.015442, -8.040477, -10.661979, -0.439099, -0.802974, 1.860171, -69.449661, -76.705673, -614.067627
1733468553.734474, -17.905187, -8.476222, -10.944794, -0.393949, -0.863233, 1.529449, -69.844955, -76.389618, -613.811157
1733468553.744532, -18.584541, -9.043797, -11.992706, -0.286493, -0.860123, 1.190940, -70.256439, -75.836197, -613.862732
1733468553.754474, -18.973300, -9.666888, -13.095385, -0.084329, -0.746110, 0.890386, -70.258453, -75.562515, -613.283691
1733468553.764486, -19.325846, -10.213814, -13.604303, 0.165489, -0.527082, 0.615667, -70.461563, -75.274307, -613.107666
1733468553.774475, -19.579332, -10.568904, -13.421446, 0.374783, -0.249353, 0.332209, -70.265533, -75.123062, -613.283203
1733468553.784493, -19.521123, -10.690709, -12.753014, 0.489166, 0.031138, 0.050482, -70.747070, -75.161331, -612.859741
1733468553.794486, -19.293225, -10.629657, -12.011261, 0.534875, 0.245337, -0.214710, -70.551468, -75.259979, -612.506104
1733468553.804482, -19.095255, -10.508899, -11.483639, 0.568617, 0.405383, -0.478906, -70.497925, -75.425980, -611.998413
1733468553.813488, -18.788647, -10.431986, -11.241525, 0.640079, 0.532895, -0.744841, -70.239929, -75.750992, -612.420044
1733468553.824483, -18.330158, -10.298808, -10.935516, 0.759329, 0.628866, -1.010423, -69.964371, -76.021545, -612.664551
1733468553.834479, -17.838149, -10.030657, -10.418069, 0.896005, 0.687718, -1.271917, -69.389984, -76.554260, -612.686279
1733468553.844480, -17.274614, -9.733627, -9.868750, 1.034050, 0.760142, -1.530379, -69.060608, -76.958908, -612.308960
1733468553.854471, -16.693272, -9.272743, -9.092879, 1.145671, 0.852924, -1.774959, -68.530121, -77.800934, -612.049927
1733468553.864475, -15.971121, -8.805574, -8.189965, 1.211304, 0.958663, -2.024634, -67.886993, -78.516296, -612.050720
1733468553.874475, -15.053393, -8.341698, -7.256526, 1.235376, 1.040078, -2.247495, -66.928787, -79.286407, -612.257324
1733468553.884476, -14.084490, -7.811083, -6.511929, 1.227313, 1.118153, -2.427334, -66.316864, -80.003082, -611.864502
1733468553.894517, -13.187412, -7.238121, -5.985205, 1.199436, 1.229548, -2.557569, -65.459503, -80.691849, -611.526001
1733468553.904474, -12.428600, -6.731298, -5.603180, 1.165398, 1.389857, -2.647099, -64.310165, -81.609879, -611.033813
1733468553.914477, -11.659164, -6.318597, -5.259163, 1.141989, 1.596715, -2.726236, -63.480362, -82.357605, -611.711426
1733468553.924475, -10.893767, -5.957971, -4.784363, 1.133214, 1.765059, -2.807914, -62.325928, -83.262222, -611.759705
1733468553.934475, -10.136002, -5.564723, -4.299088, 1.151949, 1.852133, -2.900703, -61.340469, -83.982956, -611.516235
1733468553.944473, -9.437045, -4.935796, -3.816956, 1.214111, 1.858500, -2.993644, -60.155334, -84.811920, -611.604370
1733468553.954508, -8.709058, -4.474913, -3.408745, 1.316426, 1.799997, -3.093304, -58.818176, -85.543777, -611.641724
1733468553.964475, -8.049456, -4.125060, -2.963273, 1.422142, 1.698491, -3.199112, -57.482635, -86.144958, -610.965515
1733468553.974525, -7.528717, -3.844340, -2.565986, 1.515130, 1.602714, -3.322873, -56.177963, -86.681656, -610.714966
1733468553.984471, -6.994361, -3.777452, -2.120963, 1.561295, 1.577875, -3.499922, -54.556763, -87.390045, -610.303711
1733468553.994464, -6.200084, -3.706823, -1.687463, 1.560378, 1.540311, -3.704044, -53.026672, -87.945145, -609.155518
1733468554.004472, -5.196315, -3.427150, -1.410933, 1.585826, 1.462586, -3.888768, -51.392441, -88.235031, -608.229248
1733468554.014515, -4.155736, -2.987664, -1.275212, 1.648771, 1.394979, -4.034647, -49.370712, -88.737045, -608.263123
1733468554.024465, -3.113360, -2.527828, -0.988805, 1.716873, 1.354025, -4.120550, -47.251617, -89.078262, -607.638062
1733468554.034469, -2.187851, -1.965041, -0.449062, 1.703735, 1.276749, -4.116703, -45.555832, -89.359390, -606.720764
1733468554.044481, -1.438766, -1.574786, 0.060603, 1.703735, 1.276749, -4.116703, -43.979935, -89.307190, -606.058228
1733468554.054475, -0.807744, -1.423652, 0.420781, 1.489587, 1.370065, -4.020400, -42.163559, -89.293304, -605.458252
1733468554.064476, -0.276830, -1.375768, 0.646584, 1.362633, 1.466950, -4.002592, -40.372131, -89.175644, -604.719116
1733468554.074480, 0.256329, -1.374571, 0.925509, 1.242285, 1.526967, -3.999892, -38.493011, -89.006363, -604.107666
1733468554.084465, 0.888698, -1.265336, 1.154753, 1.156521, 1.537606, -3.981473, -36.736847, -88.827301, -603.355835
1733468554.094463, 1.570147, -1.011251, 1.192761, 1.103551, 1.552669, -3.941858, -35.354736, -88.550781, -602.780396
1733468554.104471, 2.221370, -0.668730, 1.084424, 1.045692, 1.565440, -3.866125, -33.518082, -87.869888, -601.387512
1733468554.114465, 2.820669, -0.125546, 1.113753, 0.973405, 1.560541, -3.745964, -31.805206, -87.558914, -601.537537
1733468554.124464, 3.349189, 0.291494, 1.145027, 0.949316, 1.571340, -3.612815, -30.436523, -87.172928, -600.972534
1733468554.134464, 3.798102, 0.157119, 0.929549, 1.023192, 1.583384, -3.455029, -29.287338, -86.357422, -600.530396
1733468554.144466, 4.140472, 0.048183, 0.792032, 1.124719, 1.605245, -3.320509, -28.358215, -85.821045, -599.329712
1733468554.153530, 4.237138, -0.074669, 0.989703, 1.124719, 1.605245, -3.320509, -27.104950, -85.205490, -598.752563
1733468554.164463, 4.249708, -0.257077, 1.422305, 1.131674, 1.667203, -3.228406, -26.353638, -84.445099, -597.754456
1733468554.174462, 4.559458, -0.041300, 1.802235, 1.054685, 1.752503, -3.153568, -25.089386, -83.605377, -597.367737
1733468554.184459, 5.043535, 0.152032, 1.934665, 0.934980, 1.872650, -3.057612, -24.242386, -82.824493, -596.670532
1733468554.194473, 5.509208, 0.245855, 1.967585, 0.830840, 1.956895, -2.981252, -23.867645, -82.168518, -596.139526
1733468554.204466, 5.770475, 0.246752, 2.038812, 0.823078, 1.961872, -2.949787, -23.021942, -81.591965, -595.193115
1733468554.214459, 5.944204, 0.140809, 1.944241, 0.960695, 1.919496, -2.962643, -22.482346, -80.765854, -595.003845
1733468554.224459, 6.188113, 0.002843, 1.782333, 1.226389, 1.884130, -2.996603, -21.989120, -80.073059, -594.599304
1733468554.234462, 6.781875, 0.008380, 2.015619, 1.488263, 1.837826, -2.974989, -21.311218, -79.066162, -593.125610
1733468554.244487, 7.707833, 0.479439, 2.988263, 1.611880, 1.844414, -2.889336, -20.725174, -78.291718, -592.631226
1733468554.254465, 8.751406, 0.811634, 4.192546, 1.605145, 1.901922, -2.776296, -20.530121, -77.089600, -591.787964
1733468554.264464, 9.845556, 0.944213, 5.430648, 1.490979, 1.975630, -2.617244, -20.531174, -76.410797, -590.771851
1733468554.274460, 11.014375, 1.262642, 6.807912, 1.326544, 1.986274, -2.435104, -20.416199, -75.507141, -589.806091
1733468554.284460, 12.356325, 1.487248, 8.005462, 1.225057, 1.900443, -2.212468, -20.709671, -74.634201, -588.830688
1733468554.294469, 13.774590, 1.500117, 8.987234, 1.194461, 1.719787, -1.983109, -20.646469, -73.812241, -588.446167
1733468554.304463, 15.023017, 1.467646, 10.008212, 1.109113, 1.433420, -1.827397, -21.070923, -73.255432, -587.290894
1733468554.314472, 15.982044, 1.230021, 11.137078, 0.956007, 1.135894, -1.798904, -21.200790, -72.678879, -587.518860
1733468554.324468, 16.811785, 0.651971, 11.690737, 0.854611, 0.834994, -1.834688, -21.094223, -72.034515, -586.672668
1733468554.334476, 17.741782, 0.336086, 12.057798, 0.798290, 0.468930, -1.853238, -20.998550, -71.370346, -586.420654
1733468554.344462, 18.781465, 0.651223, 12.754212, 0.736251, 0.001768, -1.818836, -20.696808, -70.736526, -586.202393
1733468554.354534, 19.711911, 1.038784, 13.374609, 0.709799, -0.381710, -1.688780, -19.906769, -70.068771, -586.146729
1733468554.364463, 20.546590, 1.314716, 13.272107, 0.683495, -0.604424, -1.423315, -19.008224, -69.533096, -586.214294
1733468554.374462, 21.336826, 1.875408, 13.268067, 0.552423, -0.711628, -1.024933, -18.572922, -69.041779, -586.407654
1733468554.384460, 21.995680, 2.326865, 13.517064, 0.320652, -0.748976, -0.527568, -17.856720, -68.743301, -586.357483
1733468554.394468, 22.265926, 2.498948, 13.660267, 0.052437, -0.727849, -0.029759, -17.281219, -68.749054, -586.390320
1733468554.404518, 21.919365, 2.414852, 13.466786, -0.221104, -0.665318, 0.438528, -17.202637, -68.890244, -586.126465
1733468554.414471, 21.165790, 2.204760, 13.114838, -0.495763, -0.638407, 0.848939, -17.098633, -69.161865, -587.010620
1733468554.424470, 20.258088, 1.912668, 12.782044, -0.754910, -0.673893, 1.214748, -17.150543, -69.719223, -587.321045
1733468554.434459, 19.277214, 1.587954, 12.166136, -0.958390, -0.746792, 1.547449, -17.071320, -70.232788, -587.550232
1733468554.444463, 18.136078, 1.360206, 11.180174, -1.092776, -0.829149, 1.840117, -16.964478, -70.930710, -587.843811
1733468554.454460, 16.806248, 1.127669, 10.089166, -1.177137, -0.926642, 2.096093, -17.338318, -71.687698, -588.408691
1733468554.464459, 15.467889, 0.854730, 9.134628, -1.238336, -0.997829, 2.319245, -17.418686, -72.681747, -589.297852
1733468554.474458, 14.176667, 0.610372, 8.158242, -1.281094, -1.030708, 2.512815, -17.679031, -73.433517, -589.549072
1733468554.484471, 12.978818, 0.241814, 7.221810, -1.304332, -1.059978, 2.665992, -17.925018, -74.428101, -590.200867
1733468554.494457, 11.818079, -0.105195, 6.475867, -1.320287, -1.070369, 2.773151, -18.455872, -75.358841, -590.975220
1733468554.504457, 10.757447, -0.368557, 5.772869, -1.323042, -1.126619, 2.841760, -18.980423, -76.393875, -591.200500
1733468554.514453, 9.843311, -0.506673, 5.333683, -1.299852, -1.260768, 2.894428, -19.778122, -77.208832, -592.318542
1733468554.524451, 8.984391, -0.613215, 4.882376, -1.229971, -1.426840, 2.907616, -20.293625, -78.251465, -593.223145
1733468554.534509, 8.193856, -0.941819, 4.135684, -1.083709, -1.564746, 2.916116, -20.486481, -79.053909, -594.035400
1733468554.544463, 7.481431, -1.183185, 3.355773, -0.899330, -1.639721, 2.917163, -21.204605, -79.803894, -594.715027
1733468554.554459, 6.815544, -1.402104, 2.825158, -0.752340, -1.692753, 2.909534, -21.840851, -80.485382, -594.713623
1733468554.564456, 6.272659, -1.613243, 2.643797, -0.657756, -1.750779, 2.907753, -22.552612, -81.212448, -595.624207
1733468554.574457, 5.802946, -1.699434, 2.654122, -0.594200, -1.784175, 2.899261, -23.333618, -82.096252, -596.119507
1733468554.584454, 5.355231, -1.904737, 2.571821, -0.568512, -1.811264, 2.872279, -23.958740, -82.472656, -596.468201
1733468554.594457, 4.923077, -2.155979, 2.634220, -0.578329, -1.846925, 2.833032, -24.657532, -83.045776, -596.936646
1733468554.604455, 4.559308, -2.395997, 2.669984, -0.616458, -1.891472, 2.773956, -25.416077, -83.660400, -597.791260
1733468554.614452, 4.230105, -2.626738, 2.653673, -0.666618, -1.951681, 2.724037, -25.999222, -84.451019, -598.016357
1733468554.624490, 4.026449, -2.701857, 2.624494, -0.717820, -2.048252, 2.706213, -26.642914, -84.946106, -598.421509
1733468554.634453, 3.848530, -2.653075, 2.473809, -0.730454, -2.130237, 2.739780, -27.493622, -85.379150, -599.253357
1733468554.644451, 3.773711, -2.562694, 1.920748, -0.679546, -2.146665, 2.805058, -28.315048, -85.891037, -599.619080
1733468554.654459, 3.673603, -2.663998, 1.338059, -0.617757, -2.124169, 2.870218, -29.243744, -86.442200, -600.302063
1733468554.664499, 3.434482, -2.868852, 1.023222, -0.584634, -2.090736, 2.939101, -30.244888, -86.713165, -600.378174
1733468554.674453, 3.231723, -3.050811, 0.991798, -0.590863, -2.068702, 2.987221, -31.295898, -87.303467, -601.522156
1733468554.684078, 2.962525, -3.222446, 1.032499, -0.619298, -2.058674, 3.013144, -32.225540, -87.572144, -601.940308
1733468554.694469, 2.656367, -3.320458, 0.982820, -0.653942, -2.053541, 3.036170, -33.348709, -88.030457, -602.069702
1733468554.704514, 2.457199, -3.395726, 0.849792, -0.695030, -2.064230, 3.052397, -34.728912, -88.073227, -602.378296
1733468554.714452, 2.235436, -3.502717, 0.722450, -0.728225, -2.061565, 3.082251, -35.511719, -88.404404, -603.029663
1733468554.724450, 2.042404, -3.580828, 0.409708, -0.754458, -2.020588, 3.141227, -37.141266, -88.733139, -603.200867
1733468554.734451, 1.927033, -3.689914, 0.069133, -0.766513, -1.964106, 3.235746, -38.127014, -88.945023, -603.979736
1733468554.744509, 1.748964, -3.622128, -0.156820, -0.768496, -1.877678, 3.344271, -39.539993, -89.159012, -604.669312
1733468554.754452, 1.488146, -3.594894, -0.369605, -0.774705, -1.773885, 3.447448, -41.024521, -88.962006, -604.540710
1733468554.764447, 1.109712, -3.610157, -0.438887, -0.809967, -1.650182, 3.549536, -42.816132, -89.177887, -605.379150
1733468554.774443, 0.663343, -3.437924, -0.418387, -0.873970, -1.530154, 3.632281, -44.459137, -89.290558, -605.815796
1733468554.784514, 0.268151, -3.409044, -0.397587, -0.937758, -1.491522, 3.702638, -45.962692, -88.778839, -605.924927
1733468554.794462, -0.090830, -3.456479, -0.404620, -0.957767, -1.518147, 3.793044, -47.479507, -88.743423, -605.995117
1733468554.804473, -0.466869, -3.204489, -0.526425, -0.945851, -1.512492, 3.890554, -49.392136, -88.353333, -606.239563
1733468554.814453, -1.067814, -2.813187, -0.827346, -0.941709, -1.416907, 3.991286, -51.025223, -87.847748, -606.741516
1733468554.824509, -1.685817, -2.687342, -1.039383, -0.997638, -1.302146, 4.125092, -52.690109, -87.395996, -606.921021
1733468554.834456, -2.312051, -2.636166, -0.839317, -1.115684, -1.191607, 4.258699, -54.376938, -86.689331, -607.344360
1733468554.844464, -3.165733, -2.333000, -0.549020, -1.317164, -1.040936, 4.344321, -56.297302, -85.930756, -608.030457
1733468554.854462, -4.212747, -2.257732, -0.554407, -1.560318, -0.928671, 4.402132, -58.351227, -85.113892, -608.639160
1733468554.864454, -5.222203, -2.216731, -0.768090, -1.777516, -0.891066, 4.422107, -60.198959, -84.259155, -609.299805
1733468554.874449, -6.441300, -2.085499, -1.285237, -1.919770, -0.902146, 4.379889, -62.024918, -83.099579, -609.927185
1733468554.884456, -7.918972, -2.170045, -2.065298, -1.977743, -1.000994, 4.260745, -63.626343, -82.184814, -610.661316
1733468554.894459, -9.499145, -2.444630, -2.936937, -1.953894, -1.092412, 4.069206, -65.022064, -81.104126, -610.353149
1733468554.904455, -10.891523, -2.887407, -4.059519, -1.897315, -1.114123, 3.837713, -66.528824, -79.864838, -610.843140
1733468554.914445, -11.992107, -3.233220, -5.104588, -1.856023, -1.076849, 3.619413, -67.733673, -78.877472, -611.354614
1733468554.924447, -12.851476, -3.414281, -6.026206, -1.844015, -0.975078, 3.445333, -68.650436, -77.738922, -611.948975
1733468554.934454, -13.568539, -3.602825, -6.970269, -1.853773, -0.895665, 3.266402, -69.836807, -76.737595, -612.258179
1733468554.944446, -14.529811, -3.941155, -7.809437, -1.815286, -0.891448, 3.020023, -70.691086, -75.795502, -612.594360
1733468554.954456, -15.644013, -4.496610, -8.863933, -1.668473, -0.923359, 2.703904, -71.851196, -74.795532, -612.809814
1733468554.964445, -16.660501, -5.328894, -10.265140, -1.402943, -0.975767, 2.326263, -72.136337, -73.971802, -613.045715
1733468554.974446, -17.503111, -6.018724, -11.584794, -1.047210, -0.995208, 1.965855, -72.817368, -73.185944, -612.696777
1733468554.984445, -17.993174, -6.177788, -12.568511, -0.689234, -0.935208, 1.631815, -73.091202, -72.685883, -612.500732
1733468554.994458, -18.564340, -6.393416, -13.032238, -0.390264, -0.815768, 1.287189, -73.420135, -72.300385, -611.569153
1733468555.004450, -18.945318, -6.926725, -13.057377, -0.158300, -0.703013, 0.961387, -73.583298, -71.777374, -611.877014
1733468555.014445, -19.118897, -7.263110, -12.757803, 0.050510, -0.620925, 0.637607, -73.643967, -71.533752, -611.931030
1733468555.024448, -19.320010, -7.685537, -12.456133, 0.258687, -0.531507, 0.336834, -73.846909, -71.364380, -611.692444
1733468555.034458, -19.302802, -7.997232, -12.195614, 0.436249, -0.436003, 0.051814, -73.753845, -71.424240, -611.504211
1733468555.044458, -19.103036, -8.213608, -11.767202, 0.573048, -0.330474, -0.189517, -73.753845, -71.424240, -611.504211
1733468555.054459, -18.738219, -8.309077, -11.342530, 0.684991, -0.169498, -0.376297, -73.444092, -71.530914, -610.797852
1733468555.064450, -18.346169, -8.167669, -10.970232, 0.752901, 0.027271, -0.529035, -73.383865, -71.600220, -610.500610
1733468555.074490, -17.923293, -8.101829, -10.438570, 0.768879, 0.216041, -0.652483, -72.973480, -71.864151, -610.568848
1733468555.084441, -17.486650, -8.103774, -9.790788, 0.764584, 0.373355, -0.764442, -73.086639, -72.096695, -610.195557
1733468555.094457, -17.210270, -8.076091, -9.250597, 0.785835, 0.519481, -0.886428, -72.877411, -72.506363, -610.001282
1733468555.104448, -17.052252, -8.031499, -8.888025, 0.824854, 0.674166, -1.016730, -72.267746, -72.970673, -609.670654
1733468555.114440, -16.919225, -7.759907, -8.444349, 0.843813, 0.829297, -1.164069, -72.228729, -73.424362, -610.350708
1733468555.124439, -16.775572, -7.514501, -7.865850, 0.821230, 0.969518, -1.328966, -71.756851, -73.677856, -610.231445
1733468555.134451, -16.519393, -7.214029, -7.255778, 0.790040, 1.098727, -1.512103, -71.625183, -74.290634, -610.643921
1733468555.144441, -16.153080, -6.870760, -6.894852, 0.782086, 1.217686, -1.707801, -71.276764, -74.844971, -610.130371
1733468555.154442, -15.659875, -6.695385, -6.730849, 0.814213, 1.322894, -1.893341, -70.758820, -75.717346, -610.684326
1733468555.164453, -14.957176, -6.509685, -6.601113, 0.894562, 1.429093, -2.048616, -69.938110, -76.421448, -610.946106
1733468555.174454, -14.146589, -6.185869, -6.439654, 1.003181, 1.510049, -2.184369, -69.456650, -77.185959, -610.935486
1733468555.184446, -13.310863, -5.823297, -6.020070, 1.101480, 1.555522, -2.296745, -68.702377, -77.837296, -611.157959
1733468555.194443, -12.513445, -5.375432, -5.398027, 1.152695, 1.594589, -2.386857, -67.865036, -78.617905, -611.260925
1733468555.204439, -11.757625, -5.005378, -4.784064, 1.153935, 1.643383, -2.469791, -66.952469, -79.592346, -610.448364
1733468555.214534, -11.096676, -4.819378, -4.237438, 1.129333, 1.684356, -2.559169, -66.401917, -80.246567, -611.324829
1733468555.224440, -10.456526, -4.610634, -3.847632, 1.117176, 1.739238, -2.625927, -65.066895, -81.151398, -611.272400
1733468555.234443, -9.729736, -4.392612, -3.664026, 1.119563, 1.816789, -2.692068, -64.194366, -81.785110, -611.255005
1733468555.244440, -9.126697, -4.247912, -3.511845, 1.132850, 1.918438, -2.754443, -63.152115, -82.742310, -611.458008
1733468555.254437, -8.646210, -4.087650, -3.295768, 1.145494, 2.013450, -2.823200, -61.873657, -83.455475, -611.580017
1733468555.264434, -7.987356, -3.979313, -2.936638, 1.150548, 2.055026, -2.896480, -60.878525, -84.095581, -611.079773
1733468555.274447, -6.689998, -3.611653, -2.184859, 1.166525, 2.045887, -2.970962, -60.001053, -84.765274, -611.251648
1733468555.284448, -6.071695, -3.302801, -1.920299, 1.201789, 1.992499, -3.045774, -58.662018, -85.336929, -610.866699
1733468555.294457, -5.356128, -3.126977, -1.745373, 1.240545, 1.920832, -3.107969, -57.534485, -85.999146, -611.064270
1733468555.304446, -4.653580, -2.993051, -1.662773, 1.266719, 1.860031, -3.145821, -56.086456, -86.695129, -610.511108
1733468555.314437, -3.940407, -3.039140, -1.702277, 1.299786, 1.842634, -3.162191, -54.736908, -87.087982, -610.531616
1733468555.324443, -3.209727, -3.003975, -1.678036, 1.350249, 1.885603, -3.143297, -53.270264, -87.560226, -610.510742
1733468555.334447, -2.631228, -3.076848, -1.364695, 1.397707, 1.939986, -3.126675, -52.295349, -87.914978, -609.683228
1733468555.344452, -2.088193, -3.293374, -0.878822, 1.408917, 1.962917, -3.122403, -50.758224, -88.296616, -609.473999
1733468555.354453, -1.726668, -3.086724, -0.379481, 1.366376, 1.924818, -3.127970, -49.183167, -88.553986, -609.148560
1733468555.364436, -1.235857, -2.924368, -0.331747, 1.321735, 1.937182, -3.124175, -48.183914, -88.691681, -608.502563
1733468555.374436, -0.665588, -2.930204, -0.264110, 1.282285, 1.968453, -3.102094, -46.569672, -88.785370, -608.198975
1733468555.384444, -0.116418, -2.806453, -0.181810, 1.251665, 1.976180, -3.057567, -45.678101, -88.860306, -607.619019
1733468555.394437, 0.461482, -2.996942, -0.319027, 1.271010, 2.015694, -3.001889, -44.273209, -88.881180, -607.223145
1733468555.404437, 0.976385, -3.041833, -0.126144, 1.352452, 2.044391, -2.934865, -43.066544, -88.923752, -605.705078
1733468555.414460, 1.263690, -2.955193, 0.426318, 1.450093, 2.021006, -2.877623, -41.894135, -88.635757, -606.117493
1733468555.424442, 1.507748, -2.961777, 0.863858, 1.513320, 1.995459, -2.843085, -40.803818, -88.521317, -605.116028
1733468555.434434, 1.852514, -2.898929, 1.131410, 1.556515, 2.017024, -2.791807, -39.608154, -88.361099, -604.186829
1733468555.444437, 2.071733, -2.714725, 1.504307, 1.571074, 2.080023, -2.710943, -38.753769, -88.152176, -603.782410
1733468555.454433, 2.225410, -2.835633, 1.998859, 1.560245, 2.169603, -2.661711, -37.799820, -87.594528, -603.017578
1733468555.464432, 2.389713, -2.896385, 2.710685, 1.574404, 2.163800, -2.632946, -37.025574, -87.440186, -602.277771
1733468555.474431, 2.327912, -2.805256, 3.647417, 1.619777, 1.997321, -2.662792, -36.404404, -86.900208, -601.715332
1733468555.484432, 2.148646, -3.012504, 4.211101, 1.647614, 1.733834, -2.801255, -35.611099, -86.598129, -600.765015
1733468555.494432, 2.335244, -3.325396, 4.355053, 1.691802, 1.475099, -3.024962, -34.663956, -85.966919, -599.660095
1733468555.504435, 3.102287, -2.946215, 4.354305, 1.744534, 1.318267, -3.234198, -33.620026, -85.449921, -598.381897
1733468555.514432, 4.163666, -2.559850, 4.672584, 1.780285, 1.200686, -3.406031, -32.431793, -84.804428, -598.033936
1733468555.524206, 5.258714, -2.269853, 5.197961, 1.796464, 1.064744, -3.552989, -31.372009, -83.935043, -597.258179
1733468555.534430, 6.497714, -1.730110, 5.572504, 1.794528, 0.971830, -3.656646, -30.404129, -83.365616, -596.450073
1733468555.544443, 8.007707, -1.528398, 5.883601, 1.820737, 0.949958, -3.695427, -29.034363, -82.677475, -595.584778
1733468555.554432, 9.941773, -1.122282, 6.712144, 1.833737, 0.990421, -3.639939, -28.294708, -81.700897, -594.579651
1733468555.564431, 12.165687, -0.559196, 8.110208, 1.736178, 0.993387, -3.493209, -27.321732, -80.932892, -594.057312
1733468555.574431, 14.350545, -0.172383, 9.340978, 1.512844, 0.981991, -3.260444, -26.631500, -79.988251, -593.537720
1733468555.584430, 16.297630, 0.110732, 10.253767, 1.181590, 1.003356, -2.958501, -25.962967, -79.192352, -592.516968
1733468555.594447, 17.972973, 0.194679, 11.157129, 0.803653, 0.982452, -2.623750, -25.740463, -78.692947, -592.270630
1733468555.604431, 19.377770, 0.032621, 11.566687, 0.399948, 0.872448, -2.310123, -25.567780, -78.202774, -591.819763
1733468555.614437, 20.434960, -0.240019, 11.180323, 0.069213, 0.726190, -2.039830, -25.192535, -77.787567, -592.046021
1733468555.624436, 21.306449, -0.230143, 10.549900, -0.103957, 0.527802, -1.762980, -24.578659, -77.631287, -591.948792
1733468555.634432, 21.932234, -0.052224, 9.973945, -0.138512, 0.248499, -1.439018, -24.236786, -77.333038, -592.221558
1733468555.644433, 22.089503, 0.073622, 9.494506, -0.072329, -0.054011, -1.072954, -23.723816, -77.037125, -592.413696
1733468555.654445, 21.612159, -0.013617, 9.096021, 0.017235, -0.284325, -0.703459, -23.373810, -76.971924, -592.454651
1733468555.664429, 20.868759, -0.259771, 8.794950, 0.066722, -0.367237, -0.349213, -22.824219, -76.883728, -592.461182
1733468555.674435, 20.184317, -0.540341, 8.879046, 0.081800, -0.377320, -0.015306, -22.855164, -76.861526, -592.403259
1733468555.684429, 19.545065, -0.678158, 9.371653, 0.092965, -0.457293, 0.295985, -22.845367, -76.901947, -592.452759
1733468555.694429, 18.829798, -0.794576, 9.577854, 0.090761, -0.562706, 0.589489, -22.497208, -76.922226, -592.455627
1733468555.704438, 18.017415, -0.935385, 9.662998, 0.043007, -0.654898, 0.858357, -22.582504, -77.057083, -592.152222
1733468555.713833, 17.104476, -1.258752, 9.721955, -0.031625, -0.740633, 1.097009, -22.829010, -77.079132, -592.750366
1733468555.724446, 16.206351, -1.505205, 9.672126, -0.122708, -0.830034, 1.320092, -22.807663, -77.524338, -592.867615
1733468555.734427, 15.132103, -1.860444, 9.434950, -0.223798, -0.931506, 1.503369, -22.951965, -77.706787, -592.964539
1733468555.744428, 14.125640, -2.202067, 8.999505, -0.319826, -1.030984, 1.652739, -23.226196, -78.275375, -592.949585
1733468555.754424, 13.157186, -2.366219, 8.527398, -0.391859, -1.142025, 1.782294, -23.247101, -78.548660, -593.772034
1733468555.764423, 12.210728, -2.624344, 7.940819, -0.452805, -1.238149, 1.880350, -23.932770, -79.029007, -593.907471
1733468555.774424, 11.273847, -2.791190, 7.370849, -0.499294, -1.322689, 1.954601, -23.837631, -79.577454, -594.331665
1733468555.784470, 10.428394, -2.853888, 6.852355, -0.527262, -1.407076, 2.013672, -24.226425, -80.032455, -594.804321
1733468555.793702, 9.600898, -2.966865, 6.428581, -0.551396, -1.500022, 2.048365, -24.769562, -80.586197, -595.327759
1733468555.804439, 8.849568, -3.132963, 5.892280, -0.588398, -1.601264, 2.041911, -24.924194, -81.145386, -595.524536
1733468555.814431, 8.264186, -3.220052, 5.150377, -0.595547, -1.698627, 2.026897, -25.332550, -81.384888, -596.433960
1733468555.824434, 7.870489, -3.237858, 4.359392, -0.536398, -1.765257, 2.033470, -25.430817, -82.010239, -596.577332
1733468555.834428, 7.534852, -3.275717, 3.955221, -0.437175, -1.849388, 2.046095, -25.757446, -82.380417, -596.877869
1733468555.844424, 7.216722, -3.424008, 3.770568, -0.327664, -1.957979, 2.059299, -26.168060, -82.839767, -597.542175
1733468555.854428, 6.845172, -3.566762, 3.611204, -0.226487, -2.061036, 2.059263, -26.504562, -83.154663, -597.845337
1733468555.864432, 6.484695, -3.529801, 3.570353, -0.152331, -2.119014, 2.067247, -26.824860, -83.413589, -598.021179
1733468555.874488, 6.112247, -3.447052, 3.712359, -0.136906, -2.136397, 2.082309, -27.207214, -83.866837, -598.084473
1733468555.884423, 5.793070, -3.366696, 3.941454, -0.193928, -2.161977, 2.094739, -27.451508, -84.286240, -598.802734
1733468555.894066, 5.501427, -3.137901, 4.020613, -0.298170, -2.183844, 2.136545, -27.831711, -84.563400, -598.757568
1733468555.904428, 5.200356, -2.938434, 3.867833, -0.438857, -2.162628, 2.203232, -28.520981, -84.872665, -598.458252
1733468555.914432, 4.959738, -2.910152, 3.533842, -0.602841, -2.087619, 2.294281, -28.857971, -85.439209, -599.784790
1733468555.924427, 4.747103, -2.822614, 3.141342, -0.754121, -1.972869, 2.404983, -29.930130, -85.999924, -600.687805
1733468555.934420, 4.512172, -2.854038, 2.781314, -0.863138, -1.864653, 2.503772, -30.595291, -86.319580, -601.344421
