SamplingTime, AccelerationX, AccelerationY, AccelerationZ, GyroX, GyroY, GyroZ, MagneticFieldX, MagneticFieldY, MagneticFieldZ
1733468639.648516, 2.090587, -9.090185, -1.319055, -1.410943, 0.510119, -0.994117, -33.986084, -64.403519, -660.469238
1733468639.658497, 2.457648, -8.831312, -1.892467, -1.680098, 0.496831, -0.946472, -33.703140, -63.813065, -660.999207
1733468639.668512, 2.780716, -8.734197, -2.732383, -1.903937, 0.541723, -0.887201, -33.142654, -62.744339, -661.047974
1733468639.678534, 2.614468, -8.891915, -3.380613, -2.081446, 0.705496, -0.890483, -32.763275, -61.706268, -661.725708
1733468639.688513, 2.338387, -9.137321, -3.759944, -2.260241, 0.984133, -0.947404, -32.210602, -60.673889, -662.187561
1733468639.698527, 2.473360, -9.305364, -3.321955, -2.422939, 1.020279, -1.108245, -31.661591, -59.636124, -662.820374
1733468639.708510, 2.781165, -9.044546, -3.029114, -2.374261, 0.626252, -1.317652, -31.193283, -58.777084, -662.918701
1733468639.718530, 3.127276, -8.671050, -3.023727, -2.166111, -0.142034, -1.546640, -31.265045, -57.465103, -663.524048
1733468639.728505, 3.272874, -8.137143, -3.577536, -1.886471, -1.024898, -1.715775, -31.119202, -56.331787, -663.678345
1733468639.738514, 2.911200, -6.937349, -4.403685, -1.638109, -1.679214, -1.787141, -30.977570, -55.388901, -663.358398
1733468639.748500, 3.102137, -5.940912, -4.687548, -1.641825, -2.079379, -1.680470, -31.708420, -54.401871, -664.558594
1733468639.758505, 3.693355, -6.192902, -6.545747, -1.518957, -2.057921, -1.464947, -32.772552, -53.660812, -664.309570
1733468639.768514, 3.671059, -5.345654, -7.427711, -1.275606, -1.673753, -1.329084, -33.352295, -52.843964, -664.990417
1733468639.778513, 4.493318, -4.493468, -7.091775, -1.020707, -1.440857, -1.075478, -33.584946, -52.352325, -664.588013
1733468639.788504, 5.101296, -4.218583, -7.413496, -0.807596, -1.390725, -0.626434, -34.170410, -51.917267, -664.712708
1733468639.797705, 5.222951, -4.535067, -8.168268, -0.639594, -1.336173, -0.119660, -34.671814, -51.852478, -665.878601
1733468639.808521, 4.733786, -5.286397, -8.591144, -0.499474, -1.312424, 0.223869, -35.520660, -51.561600, -665.139648
1733468639.818572, 3.106028, -5.428852, -9.189694, -0.266954, -0.951339, 0.422745, -35.920273, -51.355667, -666.123169
1733468639.828504, 1.329680, -5.889437, -9.239823, 0.039407, -0.476326, 0.472264, -36.701569, -51.532944, -665.795288
1733468639.838504, 0.643591, -6.841431, -8.487894, 0.292750, -0.299142, 0.283713, -37.385880, -51.850449, -665.336182
1733468639.848499, 0.480337, -7.678953, -7.742848, 0.484287, -0.557052, -0.137680, -37.642563, -52.141098, -665.828735
1733468639.858511, 0.486023, -7.875876, -7.769035, 0.714143, -0.988274, -0.625517, -37.853378, -52.613281, -665.237244
1733468639.868307, 0.607978, -7.655161, -7.883956, 1.020480, -1.495906, -1.063610, -38.520004, -53.006378, -666.307251
1733468639.878502, 0.559345, -7.261464, -7.833080, 1.359634, -2.013343, -1.437182, -39.321976, -53.594879, -665.735718
1733468639.888501, 0.749385, -6.875698, -8.079982, 1.681794, -2.418049, -1.763666, -39.889969, -54.491257, -664.560181
1733468639.898518, 0.989105, -6.756437, -10.645219, 1.849854, -2.195509, -2.039830, -40.382721, -55.358047, -664.739441
1733468639.908592, 2.003049, -6.675633, -11.382633, 1.719992, -1.603929, -2.223235, -40.386398, -56.027878, -663.920288
1733468639.918517, 2.661006, -6.035782, -9.893889, 1.774400, -1.507159, -2.180647, -40.901031, -57.001770, -664.384277
1733468639.928509, 3.247286, -5.829582, -10.052953, 1.954834, -1.775905, -2.031876, -41.386459, -57.999969, -663.544800
1733468639.938523, 4.003704, -5.113416, -9.571719, 2.300349, -2.238050, -1.780115, -41.965591, -59.512054, -663.092468
1733468639.948506, 4.740669, -4.464588, -10.172963, 2.741801, -2.714371, -1.410777, -42.856018, -60.406464, -662.256226
1733468639.957640, 5.159056, -4.073884, -11.159823, 3.192183, -2.807233, -0.943899, -44.883072, -61.959274, -661.010010
1733468639.968493, 5.378424, -5.746982, -10.768820, 3.221164, -2.673195, -0.751316, -46.501114, -63.510651, -661.185730
1733468639.978519, 5.032313, -8.763227, -9.405472, 2.604228, -2.471688, -1.062956, -46.511200, -64.277252, -660.693726
1733468639.988506, 4.385130, -8.996362, -9.950452, 1.924463, -1.957082, -1.400922, -46.386154, -65.373611, -658.761841
1733468639.998505, 5.061642, -7.486968, -11.147702, 1.565709, -1.180131, -1.382386, -46.464828, -65.964539, -658.774780
1733468640.008511, 6.414665, -6.434267, -10.869227, 1.491106, -0.850160, -1.087882, -46.664658, -66.737274, -658.155640
1733468640.018301, 6.419004, -5.762095, -10.348787, 1.528050, -1.000307, -0.762849, -47.068466, -67.402237, -657.839600
1733468640.028509, 5.588965, -5.082740, -10.523564, 1.638803, -1.352963, -0.492488, -47.647141, -68.218475, -657.192993
1733468640.038510, 4.977096, -4.963330, -10.929082, 1.752559, -1.632992, -0.276684, -47.878128, -69.035858, -655.969360
1733468640.048500, 4.599710, -5.127781, -10.774506, 1.812807, -1.785447, -0.126157, -48.532486, -69.869217, -655.897766
1733468640.058511, 4.434959, -4.996250, -9.546879, 1.848963, -2.223471, 0.045672, -49.732376, -70.686127, -654.552673
1733468640.068497, 4.029890, -4.772542, -8.307730, 1.885919, -3.047768, 0.202775, -51.155716, -71.318649, -654.338745
1733468640.078498, 2.988712, -5.120898, -8.752752, 2.024833, -3.701416, 0.208470, -52.849304, -72.321640, -652.895691
1733468640.088502, 1.790115, -6.568642, -9.968109, 2.305672, -3.907624, 0.008996, -54.386017, -73.151108, -650.971802
1733468640.098492, 1.081281, -7.571513, -10.473435, 2.484195, -3.861352, -0.483590, -54.810089, -74.019089, -650.156982
1733468640.108552, 0.628777, -7.476344, -10.594342, 2.571149, -3.683869, -0.940063, -55.455750, -75.275955, -648.102844
1733468640.118502, 0.567426, -6.702867, -10.321852, 2.650530, -3.445535, -1.201875, -56.138687, -76.279236, -647.594543
1733468640.128493, 0.497994, -6.814646, -9.565733, 2.638067, -3.224370, -1.477612, -56.597031, -77.295181, -645.606812
1733468640.138503, 0.909198, -6.675782, -7.759458, 2.606726, -3.419677, -1.770218, -56.431808, -78.684433, -643.672852
1733468640.148513, 0.868946, -6.083966, -7.036409, 2.620463, -3.845301, -1.980376, -56.440826, -79.516113, -642.101807
1733468640.158502, 0.786495, -5.362413, -7.092074, 2.715485, -4.252835, -2.075935, -56.375366, -80.524445, -639.672729
1733468640.168350, -0.290147, -5.165640, -7.750779, 2.827842, -4.231906, -2.121059, -56.020950, -81.434006, -638.223389
1733468640.178500, -1.440262, -5.552303, -8.229470, 2.810321, -3.641949, -2.152107, -55.883560, -82.480087, -636.816528
1733468640.188490, -1.814805, -6.212953, -7.525874, 2.561418, -2.869882, -2.231903, -55.261383, -83.453156, -634.631348
1733468640.198496, -2.021155, -6.434267, -6.278495, 2.218390, -2.334643, -2.355242, -54.501511, -84.093307, -633.700012
1733468640.208518, -2.183662, -5.996278, -5.447258, 1.983600, -2.038002, -2.498262, -54.501511, -84.093307, -633.700012
1733468640.218516, -2.044199, -5.333533, -5.120748, 1.944931, -1.952145, -2.638903, -53.913605, -85.015961, -632.302734
1733468640.228494, -1.712004, -5.204695, -5.229685, 2.053271, -2.017219, -2.784243, -53.015518, -85.421249, -631.452148
1733468640.238489, -1.309030, -5.325752, -5.608567, 2.208441, -2.059794, -2.932492, -51.548813, -86.173660, -630.603943
1733468640.248488, -0.960374, -5.322610, -5.772719, 2.339819, -2.017680, -3.087044, -50.493500, -86.906174, -628.464050
1733468640.258535, -0.798317, -5.146935, -5.673210, 2.444697, -1.840320, -3.232567, -49.073700, -87.392242, -627.086609
1733468640.268506, -0.633715, -4.698172, -5.007473, 2.509696, -1.585775, -3.349401, -47.488602, -87.912827, -625.667297
1733468640.278492, -0.193332, -4.113837, -4.138228, 2.502603, -1.285045, -3.395651, -46.017273, -88.301178, -624.439026
1733468640.288483, 0.252588, -3.651008, -3.165284, 2.408299, -0.994975, -3.411023, -44.240097, -88.561661, -623.177734
1733468640.298493, 0.499490, -3.243994, -2.371756, 2.237045, -0.697244, -3.404538, -42.687668, -88.740433, -621.632446
1733468640.308515, 1.172411, -3.086276, -1.738041, 2.034621, -0.376662, -3.368227, -41.200241, -89.197052, -620.233948
1733468640.318500, 1.727416, -2.791041, -0.937629, 1.833862, -0.120403, -3.293273, -39.537964, -89.051834, -619.349182
1733468640.328497, 1.917905, -2.614767, -0.096067, 1.670550, -0.032232, -3.233816, -38.054474, -88.917358, -618.667603
1733468640.338499, 2.244265, -2.675820, 0.368857, 1.558625, -0.018264, -3.224057, -36.548981, -89.052383, -618.231323
1733468640.348494, 2.756923, -2.458995, 0.640150, 1.474147, -0.024469, -3.226260, -35.153214, -88.600174, -617.146912
1733468640.358490, 3.331831, -2.235586, 0.767491, 1.395976, -0.058309, -3.216132, -33.839722, -88.528641, -616.747314
1733468640.368501, 3.737648, -2.130839, 0.574459, 1.343712, 0.008352, -3.175082, -32.006027, -88.335419, -615.818420
1733468640.378484, 4.231303, -1.971775, 0.500837, 1.330543, 0.257144, -3.083963, -30.576736, -87.833206, -614.940063
1733468640.388482, 4.769250, -1.804330, 0.803554, 1.279813, 0.689130, -2.952911, -29.106155, -87.572525, -613.874023
1733468640.398494, 5.709572, -1.465251, 1.954866, 1.180926, 1.042608, -2.760013, -28.086380, -87.006958, -613.378906
1733468640.408506, 6.521656, -1.368436, 3.120543, 1.068879, 1.141019, -2.573017, -27.591187, -86.755844, -613.161072
1733468640.418498, 6.994511, -1.971775, 3.203292, 1.041241, 1.241232, -2.470185, -26.610031, -86.346313, -612.689209
1733468640.428507, 7.893683, -2.055123, 3.169175, 1.085587, 1.502264, -2.379422, -25.887863, -85.782654, -611.832520
1733468640.438498, 8.819042, -1.799841, 4.076577, 1.061134, 1.680884, -2.325698, -25.101974, -85.313522, -610.799561
1733468640.448495, 9.945514, -1.470040, 5.200356, 0.948558, 1.672263, -2.264317, -24.572403, -84.969208, -610.533569
1733468640.458255, 11.319785, -1.368735, 6.247969, 0.888398, 1.494776, -2.217842, -24.276016, -84.500885, -610.036621
1733468640.468480, 12.846239, -1.652897, 7.009474, 0.893329, 1.298062, -2.220547, -23.647339, -84.019653, -609.157166
1733468640.478034, 14.591911, -1.646612, 7.593959, 0.831530, 1.205843, -2.201872, -23.056198, -83.432999, -608.622070
1733468640.488483, 16.318430, -1.445050, 8.269722, 0.656968, 1.231576, -2.143667, -22.584229, -82.863037, -608.212830
1733468640.498495, 18.227357, -0.929399, 9.102904, 0.434285, 1.315717, -2.012395, -22.143082, -82.539017, -607.617432
1733468640.508379, 20.153941, -0.234482, 10.443059, 0.247022, 1.251403, -1.790083, -21.659851, -82.283890, -607.735657
1733468640.517534, 21.543775, 0.146046, 11.511770, 0.086467, 0.956901, -1.550515, -21.363571, -82.184128, -607.284607
1733468640.528492, 22.577172, 0.193781, 11.836035, -0.040397, 0.550494, -1.332250, -21.348083, -81.577377, -606.775146
1733468640.538500, 23.364565, 0.091129, 11.542147, -0.127727, 0.139469, -1.138889, -20.971725, -81.548111, -607.368591
1733468640.548497, 23.750480, 0.124050, 11.036821, -0.137049, -0.196761, -0.919164, -20.206757, -81.520035, -607.013916
1733468640.558502, 23.886501, 0.175375, 10.643723, -0.111196, -0.436574, -0.676075, -19.975830, -81.183136, -607.624512
1733468640.568496, 24.032248, 0.451606, 10.476578, -0.126744, -0.549115, -0.379007, -19.470993, -81.215134, -607.555725
1733468640.578496, 24.010401, 0.915483, 10.802339, -0.200463, -0.678763, -0.027845, -19.423096, -81.113342, -607.218018
1733468640.588497, 23.660848, 1.316362, 10.933720, -0.304511, -0.880487, 0.386123, -19.167465, -81.088745, -608.445007
1733468640.598492, 22.778285, 1.385794, 10.595091, -0.411372, -1.085388, 0.801022, -19.180984, -81.478760, -608.251831
1733468640.608502, 21.691168, 1.416320, 10.101735, -0.498974, -1.300505, 1.219403, -19.406876, -81.869858, -609.125977
1733468640.618491, 20.272154, 1.193659, 9.297433, -0.570441, -1.480191, 1.615206, -19.715332, -82.221970, -609.597046
1733468640.628501, 18.645294, 0.589123, 8.349180, -0.631001, -1.588974, 1.939086, -20.260941, -82.680267, -609.290161
1733468640.638450, 16.886604, 0.159514, 7.499238, -0.673987, -1.663255, 2.181558, -21.093491, -83.110153, -610.675049
1733468640.648474, 15.163227, -0.251391, 6.836493, -0.674263, -1.742328, 2.349406, -21.651047, -83.773026, -610.764893
1733468640.658488, 13.545495, -0.593313, 6.360945, -0.643958, -1.834588, 2.451849, -22.346268, -84.410599, -612.162476
1733468640.668484, 11.996896, -0.825551, 6.337153, -0.606529, -2.011384, 2.501154, -23.153702, -84.939178, -612.757324
1733468640.678479, 10.548853, -1.067066, 6.310966, -0.557867, -2.292410, 2.501833, -23.721344, -85.318771, -612.810120
1733468640.688486, 9.251644, -1.473481, 5.844546, -0.479763, -2.610067, 2.470391, -24.504074, -85.856735, -614.147827
1733468640.698488, 8.189816, -1.935712, 5.083189, -0.356970, -2.896209, 2.429368, -25.358353, -86.325851, -614.144287
1733468640.707781, 7.214179, -2.294842, 4.371064, -0.213696, -3.062934, 2.386861, -26.197815, -86.739639, -614.743835
1733468640.718486, 6.428731, -2.540847, 4.011934, -0.110073, -3.146785, 2.337326, -26.712509, -87.113007, -615.704529
1733468640.728488, 5.784242, -2.725649, 3.769970, -0.071319, -3.213183, 2.290324, -27.729095, -87.496323, -615.890564
1733468640.738486, 5.150377, -2.950704, 3.451990, -0.063766, -3.277722, 2.231694, -28.655685, -87.867249, -616.473022
1733468640.748491, 4.470723, -3.123086, 3.063381, -0.059808, -3.347751, 2.145510, -29.517349, -88.504562, -616.246155
1733468640.758483, 3.899257, -3.258359, 2.568529, -0.028269, -3.406344, 2.052311, -30.425873, -88.627548, -616.786316
1733468640.768441, 3.488053, -3.482815, 2.174085, 0.021300, -3.447903, 1.947082, -31.313507, -88.574127, -617.551758
1733468640.778487, 3.238756, -3.650110, 1.916708, 0.106560, -3.504133, 1.794507, -31.866745, -89.154541, -618.226868
1733468640.788485, 3.070564, -3.512443, 1.866280, 0.120834, -3.506942, 1.789807, -32.714081, -89.280228, -618.473999
1733468640.798478, 2.814683, -3.376273, 1.925537, 0.097913, -3.516515, 1.800607, -33.471100, -89.559891, -617.847534
1733468640.808494, 2.622998, -3.436428, 1.960552, 0.034130, -3.516620, 1.819124, -34.335312, -89.469086, -619.083801
1733468640.818476, 2.337190, -3.360112, 1.796549, -0.043039, -3.447433, 1.852231, -35.421341, -89.917221, -618.622314
1733468640.828484, 2.155530, -3.431789, 1.262792, -0.126060, -3.298097, 1.909741, -36.202713, -89.911423, -618.698486
1733468640.838487, 1.962796, -3.525911, 0.734272, -0.201216, -3.061048, 1.985446, -37.436981, -90.087067, -619.578064
1733468640.848484, 1.890970, -3.526060, 0.317830, -0.314758, -2.812542, 2.080548, -38.564072, -90.308105, -619.615479
1733468640.858484, 1.867477, -3.425205, 0.204854, -0.470061, -2.598192, 2.208638, -39.319305, -90.130600, -619.090515
1733468640.868482, 1.860444, -3.111115, 0.175675, -0.641333, -2.434416, 2.363275, -40.570587, -90.090927, -620.136169
1733468640.878490, 1.800140, -2.833089, 0.014365, -0.787154, -2.344373, 2.533154, -41.985031, -90.234589, -620.411987
1733468640.888495, 1.607108, -2.629881, -0.114622, -0.888066, -2.411023, 2.695173, -43.639633, -90.109650, -620.976746
1733468640.898481, 1.196951, -2.448819, -0.131232, -0.909988, -2.615551, 2.823428, -45.191269, -90.206268, -620.862671
1733468640.908484, 0.743250, -2.404676, -0.349853, -0.838706, -2.814560, 2.966468, -46.513199, -89.837341, -621.127319
1733468640.918487, 0.276530, -2.333449, -1.104774, -0.707331, -2.830678, 3.156979, -48.120529, -89.351288, -621.826050
1733468640.928542, -0.285808, -2.219724, -1.990928, -0.609415, -2.699374, 3.354779, -49.861725, -89.019211, -621.236084
1733468640.938489, -1.036240, -2.312051, -2.287510, -0.623652, -2.548297, 3.531995, -51.353302, -88.545502, -621.822388
1733468640.948479, -1.789965, -2.576161, -2.304419, -0.722669, -2.413012, 3.676393, -53.344559, -88.017715, -621.439026
1733468640.958493, -2.544139, -2.671929, -2.467075, -0.823846, -2.302736, 3.773632, -55.277374, -87.380554, -621.255249
1733468640.968477, -3.396474, -2.575114, -2.743905, -0.884445, -2.210679, 3.895721, -56.475372, -86.733810, -621.776245
1733468640.978480, -4.290409, -2.138172, -3.235165, -0.917087, -2.174455, 4.072413, -58.114120, -85.890030, -620.894348
1733468640.988480, -5.307646, -1.684171, -3.775506, -0.916846, -2.187783, 4.244127, -60.013077, -84.839584, -621.715759
1733468640.998483, -6.950816, -1.337461, -4.564545, -0.843012, -2.124696, 4.338496, -61.766830, -83.652603, -621.595825
1733468641.008485, -9.159767, -1.445799, -6.043264, -0.670702, -1.908817, 4.354223, -63.469254, -82.560928, -620.805237
1733468641.018493, -11.256489, -2.350657, -8.076540, -0.437441, -1.504579, 4.278373, -64.879517, -81.167206, -621.050903
1733468641.028475, -13.287370, -3.518130, -9.587581, -0.225150, -1.130300, 4.079938, -66.761261, -79.922745, -619.932190
1733468641.038477, -15.394118, -4.572776, -9.850793, -0.030193, -0.958803, 3.752500, -67.973145, -78.664139, -620.250061
1733468641.048498, -17.428591, -5.680692, -9.479692, 0.173574, -1.025416, 3.304596, -69.443039, -77.359238, -620.003235
1733468641.058494, -19.487754, -6.743419, -9.080459, 0.422987, -1.245011, 2.737047, -70.280518, -76.330399, -618.986206
1733468641.068480, -21.148133, -7.947403, -9.055469, 0.690272, -1.431609, 2.155663, -70.556961, -75.431442, -618.856140
1733468641.078480, -22.283882, -8.835352, -9.210943, 0.834529, -1.400292, 1.617589, -71.246155, -74.714096, -616.914429
1733468641.088482, -23.263111, -9.265112, -9.132233, 0.747921, -1.204872, 1.135934, -71.313019, -74.224319, -617.048096
1733468641.098480, -23.686286, -9.698761, -8.774450, 0.510053, -0.947604, 0.721763, -71.968536, -73.941223, -615.456726
1733468641.108496, -23.719505, -10.074501, -8.692299, 0.286722, -0.601663, 0.373670, -71.530136, -73.593201, -615.783691
1733468641.118479, -23.516298, -10.327987, -9.385719, 0.153183, -0.181261, 0.083917, -71.735672, -73.649475, -614.966736
1733468641.128474, -23.175124, -10.596288, -10.308086, 0.081318, 0.223245, -0.186452, -71.913940, -73.507111, -616.051453
1733468641.138470, -22.857443, -10.760590, -10.697742, 0.044226, 0.557935, -0.476820, -71.915848, -73.866180, -616.235291
1733468641.148482, -22.509237, -10.686818, -10.588806, 0.040263, 0.767757, -0.783667, -71.811966, -74.233780, -615.719299
1733468641.158483, -21.922807, -10.301651, -10.236858, 0.086944, 0.874375, -1.081681, -71.556534, -74.590103, -616.322998
1733468641.168490, -21.181053, -9.806800, -10.002226, 0.183210, 0.951237, -1.342163, -71.029770, -75.148361, -616.809204
1733468641.178481, -20.323031, -9.195081, -9.880571, 0.320619, 1.010968, -1.562224, -70.420227, -75.834549, -617.112915
1733468641.188482, -19.352182, -8.642170, -9.694422, 0.476156, 1.103520, -1.762147, -70.047043, -76.549896, -616.813660
1733468641.198466, -18.397644, -8.277952, -9.601796, 0.639984, 1.267205, -1.952892, -69.415833, -77.258072, -618.097168
1733468641.208472, -17.506552, -7.901763, -9.364920, 0.798043, 1.448329, -2.145295, -68.867264, -78.034302, -618.267334
1733468641.218481, -16.573412, -7.408258, -8.648754, 0.928996, 1.587830, -2.331690, -68.067932, -78.891602, -617.103394
1733468641.228475, -15.617976, -6.811953, -7.721749, 1.034914, 1.760007, -2.510694, -67.227798, -79.699905, -618.391418
1733468641.238523, -14.843601, -6.117036, -6.931513, 1.115090, 1.951584, -2.688195, -66.134201, -80.790466, -618.534058
1733468641.248467, -14.100351, -5.483769, -6.070199, 1.172694, 2.072109, -2.859707, -65.033173, -81.810730, -618.619568
1733468641.258468, -13.252056, -4.830003, -4.945224, 1.219346, 2.163367, -3.022345, -64.046677, -82.852646, -618.652710
1733468641.268464, -12.343756, -4.294300, -4.020314, 1.256475, 2.245655, -3.183331, -62.700989, -83.763367, -619.055481
1733468641.278501, -11.392809, -4.115483, -3.181744, 1.282099, 2.288813, -3.334625, -61.444702, -84.550949, -618.721924
1733468641.288494, -10.478224, -3.757400, -2.362778, 1.321275, 2.352417, -3.479532, -59.691040, -85.755630, -618.907471
1733468641.298464, -9.465027, -3.492542, -1.807622, 1.372250, 2.371405, -3.627211, -58.099945, -86.476913, -618.948975
1733468641.308483, -8.465448, -3.183839, -1.114052, 1.430521, 2.339891, -3.778456, -56.794327, -87.421204, -618.315491
1733468641.318467, -7.479336, -2.825607, -0.415544, 1.477996, 2.255469, -3.927072, -54.523544, -88.160980, -617.977661
1733468641.328528, -6.583606, -2.316540, 0.294337, 1.498055, 2.118508, -4.051479, -52.711990, -88.974823, -617.641174
1733468641.338467, -5.503073, -1.694047, 1.053898, 1.461152, 1.922825, -4.159060, -50.742630, -89.589508, -617.035400
1733468641.348468, -4.499154, -1.211915, 1.796549, 1.350602, 1.779633, -4.241959, -48.462265, -90.156372, -616.718384
1733468641.358468, -3.765481, -0.783652, 2.116474, 1.187340, 1.791606, -4.323121, -46.514618, -90.693802, -616.400024
1733468641.368463, -3.052009, -0.740257, 2.061108, 1.008018, 1.922199, -4.443415, -44.561798, -90.947189, -615.754639
1733468641.378499, -2.294693, -1.102829, 2.127697, 0.824174, 2.012354, -4.597005, -42.366577, -91.136017, -615.920532
1733468641.388462, -1.369783, -1.154454, 2.553416, 0.668586, 1.997524, -4.755532, -39.918182, -90.985565, -615.705566
1733468641.398466, -0.320823, -0.711527, 2.938583, 0.571848, 1.830875, -4.868707, -37.463654, -90.999603, -615.094238
1733468641.407755, 0.953491, 0.036512, 3.260753, 0.531761, 1.500187, -4.868790, -34.901184, -90.800827, -614.902710
1733468641.418516, 2.216582, 1.047763, 3.410391, 0.503401, 1.196054, -4.786769, -32.675369, -90.602692, -614.339294
1733468641.428470, 3.167678, 1.643470, 3.068169, 0.457264, 0.994760, -4.658278, -30.313126, -89.824707, -613.841675
1733468641.438465, 3.894319, 1.831714, 2.511817, 0.408337, 0.958391, -4.464743, -28.367157, -89.477402, -613.184631
1733468641.448465, 4.634875, 2.038363, 1.692252, 0.361721, 1.154600, -4.263483, -26.687164, -88.673889, -613.471680
1733468641.458463, 5.405658, 1.882890, 0.694767, 0.331064, 1.481448, -4.057762, -24.729645, -88.225388, -612.629639
1733468641.468494, 6.164321, 1.895460, 0.206500, 0.332516, 1.843333, -3.855287, -23.323715, -87.291031, -612.088684
1733468641.478457, 6.886921, 2.053776, 0.149338, 0.366778, 2.183070, -3.642513, -22.087952, -86.576599, -611.323914
1733468641.488456, 7.712771, 2.241422, 0.504428, 0.381252, 2.369799, -3.421731, -20.854446, -85.932068, -611.156982
1733468641.498457, 8.440758, 2.615067, 1.570896, 0.345920, 2.380877, -3.211849, -19.672043, -85.196487, -610.503235
1733468641.508461, 9.212439, 2.703203, 2.749741, 0.296544, 2.286315, -3.034092, -18.951050, -84.673141, -609.389648
1733468641.518463, 9.901820, 2.459444, 3.424008, 0.270315, 2.192658, -2.928905, -18.157425, -83.921951, -609.262939
1733468641.528484, 10.553042, 2.090587, 3.791967, 0.215973, 2.084125, -2.873450, -17.459229, -83.136108, -608.869385
1733468641.538468, 11.502942, 1.949030, 4.320636, 0.105208, 1.953317, -2.830144, -16.794876, -82.264679, -608.255371
1733468641.548457, 12.857461, 2.058714, 4.710442, -0.035979, 1.846421, -2.794935, -16.321472, -81.546707, -608.065552
1733468641.558475, 14.234127, 2.110938, 4.748001, -0.195591, 1.814106, -2.787489, -16.163528, -81.121490, -607.814270
1733468641.568468, 15.726463, 2.018162, 4.714482, -0.380336, 1.769190, -2.800676, -15.456253, -80.571777, -607.996033
1733468641.578464, 17.531991, 2.138172, 5.007473, -0.553071, 1.547188, -2.789406, -15.023361, -79.686417, -607.167847
1733468641.588458, 19.636643, 2.527678, 5.680393, -0.671607, 1.100706, -2.739171, -14.045624, -78.990982, -607.044189
1733468641.598467, 21.800553, 3.080440, 5.997924, -0.651902, 0.636902, -2.562279, -13.201736, -78.329269, -606.949036
1733468641.608399, 23.887249, 3.741090, 5.424513, -0.510275, 0.273503, -2.223058, -12.485199, -77.697449, -607.591797
1733468641.618468, 25.731682, 4.327520, 4.795885, -0.376089, 0.046970, -1.750412, -11.967270, -77.146103, -607.867676
1733468641.628465, 27.115681, 4.744111, 4.428076, -0.293237, -0.037661, -1.197186, -11.824188, -76.914047, -607.789978
1733468641.638458, 27.872099, 4.912603, 4.169502, -0.275432, -0.001554, -0.659002, -11.706406, -76.733597, -607.754150
1733468641.647683, 28.073660, 4.564097, 4.196736, -0.323814, -0.031516, -0.173190, -11.706406, -76.733597, -607.754150
1733468641.658462, 27.968765, 4.276343, 4.605845, -0.359836, -0.188582, 0.272081, -11.713120, -76.646713, -607.902527
1733468641.668454, 27.461643, 4.223970, 4.834043, -0.331737, -0.417398, 0.690585, -11.726364, -77.094986, -608.486938
1733468641.678463, 26.600329, 4.122366, 4.793790, -0.275736, -0.713956, 1.084854, -11.426910, -77.542679, -608.867798
1733468641.688460, 25.353847, 3.805434, 4.873996, -0.217666, -1.020349, 1.444418, -11.426910, -77.542679, -608.867798
1733468641.698482, 23.820960, 3.412336, 4.727052, -0.164324, -1.244186, 1.762461, -11.559219, -77.899826, -609.499512
1733468641.708476, 22.024860, 3.021183, 4.308665, -0.124144, -1.403504, 2.034651, -12.138321, -78.481583, -609.139404
1733468641.718469, 20.130597, 2.623596, 3.983353, -0.098229, -1.543182, 2.245461, -12.487717, -79.061340, -609.829956
1733468641.728518, 18.312351, 2.260426, 3.655796, -0.073694, -1.640709, 2.413417, -13.216141, -79.874695, -611.194580
1733468641.738451, 16.744149, 1.966088, 3.180398, -0.040652, -1.709584, 2.573953, -13.676666, -80.563431, -611.377197
1733468641.748456, 15.401001, 1.907580, 2.797475, -0.007263, -1.758518, 2.747639, -14.028198, -81.156555, -611.156128
1733468641.758458, 14.152276, 1.935862, 2.585439, 0.030305, -1.844431, 2.949417, -14.656219, -81.980347, -611.615051
1733468641.768455, 12.934674, 2.054375, 2.537854, 0.075240, -1.908485, 3.157553, -15.649368, -82.854279, -612.357849
1733468641.778466, 11.808352, 1.923891, 2.172139, 0.137106, -1.948447, 3.331120, -16.802429, -83.496323, -612.707703
1733468641.788465, 10.641179, 1.540968, 1.805677, 0.194341, -1.991663, 3.454340, -17.995804, -84.307938, -612.990601
1733468641.798472, 9.457845, 1.225233, 1.547402, 0.247256, -2.054389, 3.526696, -19.322479, -85.183670, -613.554810
1733468641.807469, 8.343793, 0.912939, 1.348235, 0.316284, -2.128154, 3.576803, -20.628448, -85.914795, -613.010254
1733468641.818467, 7.373243, 0.588076, 1.099986, 0.408666, -2.196450, 3.617724, -21.960205, -86.830353, -614.340088
1733468641.828458, 6.498761, 0.324115, 0.837372, 0.498620, -2.217633, 3.636905, -23.350601, -87.480530, -614.447021
1733468641.838458, 5.740398, 0.113874, 0.659603, 0.557131, -2.200592, 3.667821, -25.026917, -88.188354, -614.917603
1733468641.848460, 5.076007, -0.064494, 0.673519, 0.567801, -2.117380, 3.728695, -26.280060, -88.721527, -614.812683
1733468641.858464, 4.403236, -0.181660, 0.708235, 0.530732, -1.989202, 3.759899, -28.432922, -89.083389, -614.742798
1733468641.868461, 3.588609, -0.498592, 0.823306, 0.444312, -1.858270, 3.743937, -29.997726, -89.637253, -614.643250
1733468641.878453, 2.882320, -0.906954, 1.032948, 0.320140, -1.753553, 3.703585, -31.704926, -89.833664, -614.817993
1733468641.888515, 2.265214, -1.263690, 1.268029, 0.192246, -1.694366, 3.632310, -33.661591, -90.193024, -614.670898
1733468641.898447, 1.739687, -1.665167, 1.447445, 0.079801, -1.673186, 3.535955, -35.549088, -90.546478, -614.399719
1733468641.908463, 1.403002, -2.110189, 1.376816, -0.002269, -1.668861, 3.437233, -37.097565, -90.836212, -614.376343
1733468641.918462, 1.189020, -2.576760, 1.134552, -0.036181, -1.709848, 3.339806, -39.040863, -90.770370, -614.936584
1733468641.928454, 0.954688, -2.760664, 1.146823, -0.030677, -1.826484, 3.252326, -40.537506, -90.725357, -614.805237
1733468641.938450, 0.696114, -2.766949, 1.528249, -0.044640, -2.047880, 3.177814, -42.007278, -90.811432, -614.589966
1733468641.948443, 0.446219, -2.909554, 1.940201, -0.093350, -2.278163, 3.130307, -43.531631, -90.622437, -614.650513
1733468641.958455, 0.286855, -3.029563, 1.846229, -0.160539, -2.389485, 3.146853, -45.139481, -90.489731, -614.741699
1733468641.968446, 0.097713, -3.055151, 1.339107, -0.237105, -2.325724, 3.217071, -46.424561, -90.525131, -614.496216
1733468641.978458, -0.192883, -3.006968, 0.744746, -0.324722, -2.162689, 3.336928, -47.672180, -90.144211, -614.403503
1733468641.988453, -0.466869, -2.953697, 0.276979, -0.407758, -1.971666, 3.487867, -49.357422, -89.661896, -614.195190
1733468641.998458, -1.500416, -2.937985, -0.065841, -0.468555, -1.836912, 3.616216, -51.147644, -89.260117, -614.161987
1733468642.008457, -2.247108, -3.223344, -0.100556, -0.507499, -1.776841, 3.704695, -53.259018, -88.689819, -613.667358
1733468642.018482, -2.860772, -3.411887, -0.044293, -0.534708, -1.785895, 3.768760, -54.716278, -88.023300, -614.269775
1733468642.028456, -3.492691, -3.274819, -0.002843, -0.579002, -1.837605, 3.827090, -56.179596, -87.338669, -613.959412
1733468642.038477, -4.207660, -3.032556, -0.203956, -0.652907, -1.870216, 3.909010, -57.885849, -86.533295, -614.117371
1733468642.048500, -5.219809, -2.837578, -0.488866, -0.744872, -1.898802, 4.004454, -59.559158, -85.735611, -614.056213
1733468642.058466, -6.534973, -2.978387, -1.176002, -0.821727, -1.943359, 4.088246, -61.111526, -84.512222, -613.809387
1733468642.068458, -8.011298, -3.179799, -2.201618, -0.835339, -1.938097, 4.137672, -62.774094, -83.526886, -613.894226
1733468642.078463, -9.386617, -3.154211, -3.397073, -0.749469, -1.838470, 4.199675, -64.029160, -82.240067, -613.615723
1733468642.088460, -10.740089, -3.262698, -4.372411, -0.622203, -1.588651, 4.311931, -65.576309, -80.793930, -612.806763
1733468642.098461, -12.339715, -3.687669, -4.875642, -0.574389, -1.253113, 4.405504, -67.117508, -79.390762, -613.224731
1733468642.108463, -14.513800, -4.589535, -4.903924, -0.656379, -0.986631, 4.353840, -68.750031, -78.042542, -612.653259
1733468642.118451, -17.016190, -5.881057, -5.052364, -0.766669, -0.881263, 4.053732, -70.293640, -76.608170, -613.090088
1733468642.128456, -19.152117, -7.022493, -5.569362, -0.808370, -0.923895, 3.531984, -71.577118, -75.300415, -613.227112
1733468642.138458, -20.682012, -7.897723, -6.361543, -0.755519, -1.077160, 2.899266, -72.308990, -73.928558, -613.047791
1733468642.148455, -21.508011, -8.263138, -7.340024, -0.618867, -1.208843, 2.272682, -73.172775, -73.038040, -612.977783
1733468642.158467, -21.691617, -8.279748, -8.083573, -0.446444, -1.284369, 1.722621, -73.509659, -72.384567, -612.374512
1733468642.168454, -21.417032, -8.201637, -8.665963, -0.267715, -1.313998, 1.296845, -73.750427, -71.893250, -611.784851
1733468642.178452, -21.119253, -8.323741, -9.301324, -0.095100, -1.233551, 0.975362, -73.762039, -71.229065, -611.575134
1733468642.188462, -20.865617, -8.626907, -9.752780, 0.054615, -1.018301, 0.727819, -73.841492, -71.026550, -611.017395
1733468642.198448, -20.656274, -8.880244, -9.709086, 0.181305, -0.767695, 0.521934, -74.091705, -70.816818, -610.535461
1733468642.208480, -20.595970, -9.007436, -9.230994, 0.262144, -0.541845, 0.304119, -74.127762, -70.771744, -609.939148
1733468642.218454, -20.459501, -9.049633, -8.711602, 0.301104, -0.385291, 0.073123, -73.986572, -70.588959, -609.968018
1733468642.228445, -20.189704, -9.081656, -8.468740, 0.304269, -0.197433, -0.150591, -74.210144, -70.607910, -609.702271
1733468642.238447, -19.855114, -8.993370, -8.197148, 0.256833, 0.038249, -0.351834, -73.781799, -70.805832, -609.680054
1733468642.248470, -19.460520, -8.826524, -8.100332, 0.196335, 0.306775, -0.533670, -73.856339, -70.994797, -609.893921
1733468642.258445, -19.003826, -8.701876, -8.141333, 0.174626, 0.595572, -0.706069, -73.849335, -71.282898, -609.682495
1733468642.268446, -18.422185, -8.604312, -7.847744, 0.210753, 0.810088, -0.886564, -73.658020, -71.682724, -610.099487
1733468642.278376, -17.835605, -8.424896, -7.468712, 0.286164, 0.967846, -1.080685, -73.473297, -72.200546, -610.850525
1733468642.288443, -17.216854, -8.265981, -7.047033, 0.382979, 1.095433, -1.296110, -73.375336, -72.719299, -611.117065
1733468642.298448, -16.390405, -8.005163, -6.349722, 0.467250, 1.166041, -1.529532, -73.181351, -73.320526, -611.127441
1733468642.308503, -15.434071, -7.406313, -5.595848, 0.532997, 1.175282, -1.743786, -72.326431, -74.115356, -611.670776
1733468642.318452, -14.436437, -6.905476, -5.072565, 0.579318, 1.186435, -1.919836, -71.979706, -74.765579, -612.074524
1733468642.328446, -13.454964, -6.506093, -4.623353, 0.586154, 1.229722, -2.046582, -71.356644, -75.669556, -612.162598
1733468642.338458, -12.412888, -6.343437, -4.373758, 0.571847, 1.314888, -2.133991, -70.751617, -76.423386, -612.321777
1733468642.348443, -11.516260, -6.233005, -4.257190, 0.547231, 1.458177, -2.187486, -70.098129, -77.167389, -612.732666
1733468642.358442, -10.628909, -6.181679, -4.215291, 0.541347, 1.671308, -2.221991, -69.342285, -78.045502, -613.160522
1733468642.368441, -9.737069, -6.101324, -3.957765, 0.555039, 1.931448, -2.237393, -68.819168, -78.832214, -613.726074
1733468642.378463, -8.935310, -5.624578, -3.234267, 0.570369, 2.113061, -2.252655, -67.988068, -79.682098, -614.395630
1733468642.388441, -8.213458, -5.134814, -2.509123, 0.585294, 2.163520, -2.249664, -67.253662, -80.436508, -614.430176
1733468642.398451, -7.644985, -4.888212, -2.133234, 0.600975, 2.138054, -2.245359, -66.454147, -81.195923, -614.553345
1733468642.408448, -7.276877, -4.827309, -2.031630, 0.623464, 2.090264, -2.276649, -65.601776, -81.750458, -614.866089
1733468642.418459, -6.824971, -4.706701, -2.092832, 0.665961, 2.073730, -2.328949, -65.025986, -82.628738, -615.466431
1733468642.428448, -6.251560, -4.737975, -1.941249, 0.731114, 2.065352, -2.409416, -64.105087, -83.336487, -615.643982
1733468642.438457, -5.802946, -4.848707, -1.304990, 0.767879, 1.999423, -2.542267, -63.162781, -83.917236, -615.795532
1733468642.448442, -5.229236, -5.077802, -0.826448, 0.755448, 1.876457, -2.701050, -61.787155, -84.661438, -616.222107
1733468642.458439, -4.572626, -4.965275, -0.727987, 0.734882, 1.781759, -2.830556, -60.400360, -85.494125, -616.282104
1733468642.468438, -3.911228, -4.678569, -0.732326, 0.725288, 1.776299, -2.923458, -59.001373, -86.087082, -616.250977
1733468642.478450, -3.277662, -4.276643, -0.412551, 0.702715, 1.792717, -2.982419, -57.655640, -86.881546, -616.301758
1733468642.488442, -2.754529, -3.832069, -0.072874, 0.633122, 1.775767, -3.014209, -56.359451, -87.232758, -615.941833
1733468642.498437, -2.285116, -3.448249, -0.004639, 0.538887, 1.747877, -3.034721, -54.708008, -87.848129, -615.873779
1733468642.508450, -1.908777, -3.211971, -0.291344, 0.456934, 1.734208, -3.037410, -53.530289, -88.302948, -616.496094
1733468642.518442, -1.399710, -3.435230, -0.797568, 0.426867, 1.769308, -3.047220, -52.130524, -88.926270, -616.431824
1733468642.528451, -0.824653, -3.623624, -1.090110, 0.466284, 1.785835, -3.060017, -50.579788, -89.261093, -616.512573
1733468642.538437, -0.231639, -3.788226, -1.223587, 0.575048, 1.776431, -3.079815, -49.111862, -89.732788, -616.526917
1733468642.548437, 0.333692, -4.112041, -1.201141, 0.731778, 1.745616, -3.112488, -47.728485, -90.054535, -616.248047
1733468642.558436, 0.735170, -3.920206, -0.784700, 0.888640, 1.667393, -3.142730, -46.166824, -90.147598, -615.697632
1733468642.568463, 0.925957, -3.365050, -0.063446, 0.988843, 1.587788, -3.160582, -44.440781, -90.273209, -615.632385
1733468642.578456, 1.080383, -2.951901, 0.613963, 0.996404, 1.566203, -3.170001, -42.713058, -90.293259, -614.929810
1733468642.588443, 1.293617, -2.598008, 1.139041, 0.894200, 1.586575, -3.172330, -41.139145, -90.244598, -614.318726
1733468642.598438, 1.553538, -2.220023, 1.275212, 0.719783, 1.648917, -3.148080, -39.570786, -90.320251, -613.397400
1733468642.608448, 1.864485, -2.218976, 0.905607, 0.555741, 1.802769, -3.116907, -38.501022, -90.301804, -614.144653
1733468642.618449, 2.057068, -2.647089, 0.358382, 0.474041, 1.969279, -3.139565, -36.958405, -90.134933, -613.918030
1733468642.628449, 2.395848, -2.849399, 0.068684, 0.534850, 2.059061, -3.202554, -35.296478, -89.997040, -613.428711
1733468642.638432, 2.683601, -2.453458, 0.264410, 0.713335, 1.977253, -3.285145, -34.015396, -89.753418, -612.949219
1733468642.648490, 3.029114, -1.733252, 0.704045, 0.935988, 1.764263, -3.352876, -32.364182, -89.396988, -612.126648
1733468642.658430, 3.412635, -1.148319, 1.004817, 1.123207, 1.571506, -3.386586, -31.065201, -88.799026, -611.083252
1733468642.668435, 3.724181, -0.789189, 1.412878, 1.238616, 1.451813, -3.383167, -29.607391, -88.446198, -610.599609
1733468642.678435, 4.034828, -0.692672, 1.782333, 1.250351, 1.452331, -3.375170, -28.167709, -87.733810, -609.934204
1733468642.688460, 4.343381, -1.092055, 1.989881, 1.177602, 1.542557, -3.423624, -27.074936, -87.282211, -608.950928
1733468642.698439, 4.986673, -1.252317, 2.099715, 1.130952, 1.648573, -3.503516, -25.690964, -86.735474, -607.702515
1733468642.708439, 5.855768, -0.915782, 2.277933, 1.144537, 1.729949, -3.557554, -24.194229, -85.995819, -607.507812
1733468642.718437, 6.977003, -0.320374, 2.774281, 1.162004, 1.763825, -3.563491, -23.219513, -85.103546, -606.944702
1733468642.728480, 8.168418, 0.099509, 3.421464, 1.112761, 1.741200, -3.541233, -21.853561, -84.574066, -606.084351
1733468642.738433, 9.265860, 0.518794, 4.277840, 0.982929, 1.678237, -3.493885, -20.791000, -83.748779, -605.452209
1733468642.748442, 10.622923, 1.017835, 5.132121, 0.791199, 1.574265, -3.370381, -19.812393, -83.107300, -605.114624
1733468642.758435, 11.841272, 1.139790, 5.504270, 0.548834, 1.476275, -3.191747, -18.873718, -82.151413, -604.426575
1733468642.768491, 12.861053, 0.933140, 5.523124, 0.277619, 1.439203, -2.997891, -18.124908, -81.686401, -604.424805
1733468642.778433, 13.632734, 0.468366, 5.067777, 0.004659, 1.486905, -2.826450, -17.580444, -81.261261, -604.465759
1733468642.788436, 14.659098, -0.007781, 4.387225, -0.199298, 1.635468, -2.687167, -17.550491, -80.440445, -604.045898
1733468642.798429, 16.110284, -0.242712, 4.298789, -0.319114, 1.753523, -2.599995, -17.006714, -79.911697, -602.947998
1733468642.808456, 17.868376, 0.095020, 4.842273, -0.367605, 1.679185, -2.486063, -16.589600, -79.375031, -603.214294
1733468642.818451, 19.602227, 0.475099, 5.370194, -0.373164, 1.403307, -2.327563, -16.117935, -78.970993, -603.572144
1733468642.828416, 21.044733, 0.719757, 5.476287, -0.312849, 1.021467, -2.119548, -15.803360, -78.601379, -603.433594
1733468642.838434, 22.367530, 0.646883, 5.278018, -0.193476, 0.687848, -1.881717, -15.650482, -77.879074, -603.058472
1733468642.848447, 23.583784, 0.601094, 5.405658, -0.077957, 0.411450, -1.602765, -14.957031, -77.547577, -602.809937
1733468642.858421, 24.417565, 0.725144, 5.752369, -0.044695, 0.187293, -1.283917, -14.705444, -77.352158, -603.066772
1733468642.867514, 24.758290, 0.872836, 6.005556, -0.087577, 0.062035, -0.927079, -14.565414, -77.416336, -602.571533
1733468642.878430, 24.751556, 0.860117, 6.284330, -0.203620, 0.044606, -0.572742, -14.210876, -77.147461, -603.174622
1733468642.888429, 24.529943, 0.737564, 6.753744, -0.384694, -0.039057, -0.255291, -14.312363, -77.192978, -603.168152
1733468642.898436, 24.059183, 0.777068, 6.573430, -0.517846, -0.196550, 0.048305, -14.177902, -77.334656, -602.788147
1733468642.908453, 23.392847, 0.789039, 5.918018, -0.547976, -0.372725, 0.348744, -14.072601, -77.529175, -603.478821
1733468642.918443, 22.490532, 0.762703, 5.269937, -0.496477, -0.558159, 0.657448, -13.919342, -77.707520, -604.083740
1733468642.928430, 21.374834, 0.535553, 4.692785, -0.387178, -0.706581, 0.935097, -14.296921, -77.919250, -604.223999
1733468642.938428, 20.202274, 0.412551, 4.396203, -0.275970, -0.813475, 1.198490, -14.073959, -78.337646, -604.735718
1733468642.948425, 18.940230, 0.351798, 4.263325, -0.193795, -0.883291, 1.443180, -14.511169, -78.907532, -604.993469
1733468642.958426, 17.715446, 0.176423, 4.183418, -0.154457, -0.913974, 1.641481, -14.976944, -79.417633, -604.731689
1733468642.968438, 16.560843, 0.087987, 4.251354, -0.155034, -0.974808, 1.789743, -15.440475, -79.764969, -604.971069
1733468642.978442, 15.489437, -0.021697, 4.167258, -0.153307, -1.101633, 1.900854, -16.002151, -80.454834, -605.646667
1733468642.988444, 14.476241, -0.307056, 3.791967, -0.116983, -1.246548, 1.959701, -16.278549, -81.181259, -606.391968
1733468642.998429, 13.595175, -0.519991, 3.421314, -0.042711, -1.411058, 1.989320, -16.956680, -81.522537, -605.672974
1733468643.008436, 12.922853, -0.619799, 3.150320, 0.082794, -1.595538, 2.017380, -17.195068, -81.886963, -606.198608
1733468643.018436, 12.301109, -0.669928, 2.946963, 0.240449, -1.742348, 2.063525, -17.218445, -82.321823, -606.628662
1733468643.027835, 11.673379, -0.594660, 3.019088, 0.383159, -1.868672, 2.135874, -17.987564, -82.740295, -606.409668
1733468643.038428, 11.036073, -0.605134, 3.050063, 0.475161, -1.961308, 2.228739, -18.332657, -83.237915, -607.386963
1733468643.048428, 10.357765, -0.711676, 2.964321, 0.515194, -1.979612, 2.332637, -18.945633, -83.638763, -607.183777
1733468643.058433, 9.734525, -0.773926, 2.991405, 0.496138, -1.948521, 2.436473, -19.983521, -84.385956, -607.484619
1733468643.068431, 9.179968, -0.845004, 3.057096, 0.433261, -1.910135, 2.547238, -21.026672, -84.771942, -607.640869
1733468643.078427, 8.598775, -1.059883, 3.049465, 0.354052, -1.896196, 2.635464, -21.529282, -85.305786, -608.021240
1733468643.088448, 8.055291, -1.256956, 2.965368, 0.286487, -1.955009, 2.706183, -22.612915, -85.931107, -608.255737
1733468643.098426, 7.409007, -1.413327, 2.640206, 0.260631, -2.046688, 2.765736, -23.497528, -86.571716, -608.075378
1733468643.108430, 6.734740, -1.758092, 2.144606, 0.282626, -2.122565, 2.803968, -24.735703, -86.872421, -608.922302
1733468643.118426, 6.163723, -2.105102, 1.770213, 0.334877, -2.154860, 2.830947, -25.465714, -87.309891, -608.809265
1733468643.128418, 5.714361, -2.316839, 1.624466, 0.387578, -2.150208, 2.862598, -26.550323, -87.738434, -608.644592
1733468643.138430, 5.380968, -2.447173, 1.516727, 0.411803, -2.103432, 2.907392, -26.550323, -87.738434, -608.644592
1733468643.148440, 5.194221, -2.406173, 1.434127, 0.400330, -1.988530, 2.987327, -27.638657, -88.129211, -608.755310
1733468643.158433, 5.014805, -2.396147, 1.521515, 0.355968, -1.847890, 3.102737, -28.883148, -88.642960, -609.055969
1733468643.168450, 4.704307, -2.529923, 1.711256, 0.286636, -1.736983, 3.230270, -30.413681, -89.024750, -608.922729
1733468643.178427, 4.310760, -2.780416, 1.896208, 0.219135, -1.680814, 3.335788, -31.770432, -89.386429, -608.847351
1733468643.188431, 3.797653, -3.095254, 2.026392, 0.150815, -1.676705, 3.402451, -33.383591, -89.700607, -609.323730
1733468643.198428, 3.224391, -3.412186, 2.001403, 0.072417, -1.695142, 3.430641, -34.857117, -90.117371, -609.299316
1733468643.208433, 2.677166, -3.582025, 1.896058, -0.015015, -1.691341, 3.439005, -36.385147, -90.069641, -608.730896
1733468643.218419, 2.172738, -3.748721, 1.762581, -0.117407, -1.645180, 3.428179, -38.099823, -90.135971, -609.563232
1733468643.228426, 1.924938, -3.948787, 1.723975, -0.215127, -1.589657, 3.424167, -39.637115, -90.342285, -609.614258
1733468643.238423, 1.738190, -3.804087, 1.840692, -0.402100, -1.584684, 3.463374, -41.132233, -90.395187, -610.087708
1733468643.248419, 1.489044, -3.713407, 1.993023, -0.492535, -1.669691, 3.487068, -42.895340, -90.406296, -609.793457
1733468643.258426, 1.128567, -3.680337, 2.146851, -0.614845, -1.770986, 3.509599, -44.439224, -90.196945, -610.069580
1733468643.268417, 0.660500, -3.522619, 2.091335, -0.754667, -1.873524, 3.516507, -46.078522, -90.161316, -610.213562
1733468643.278419, 0.070928, -3.490447, 1.834108, -0.889404, -1.943634, 3.509404, -47.903656, -89.755402, -610.423706
1733468643.288419, -0.458939, -3.574244, 1.282095, -0.999395, -1.951188, 3.499686, -49.345581, -89.422485, -610.992188
1733468643.298421, -0.998981, -3.530849, 0.575805, -1.067394, -1.907051, 3.478669, -51.029953, -89.013947, -611.127441
1733468643.308428, -1.534534, -3.485209, 0.025438, -1.094728, -1.925662, 3.422357, -52.516037, -88.772949, -610.943542
1733468643.318430, -2.169296, -3.547758, -0.219518, -1.077146, -2.011207, 3.337577, -54.093430, -88.273468, -611.588013
1733468643.328417, -2.730437, -3.714454, -0.468066, -1.021921, -2.142470, 3.225595, -55.400421, -87.667343, -611.779663
1733468643.338441, -3.118298, -3.965396, -0.779013, -0.933755, -2.259600, 3.123194, -57.072601, -87.091171, -611.866333
1733468643.348426, -3.489549, -3.947739, -1.230320, -0.817180, -2.279711, 3.055419, -58.206268, -86.439392, -611.616943
1733468643.358419, -3.718794, -3.714454, -1.716194, -0.705110, -2.252842, 3.059752, -59.342316, -85.740295, -611.609985
1733468643.367657, -3.898060, -3.108871, -1.853262, -0.705110, -2.252842, 3.059752, -60.581589, -85.085342, -611.210876
1733468643.378418, -4.128651, -2.650531, -1.975965, -0.531499, -2.020339, 3.284731, -61.659363, -84.267044, -610.853271
1733468643.388428, -4.722413, -2.455852, -1.926584, -0.492769, -1.895944, 3.410344, -63.038712, -83.338654, -610.846436
1733468643.398435, -5.708076, -2.480692, -1.971475, -0.455513, -1.748805, 3.477062, -64.296921, -82.466675, -610.694946
1733468643.408417, -6.915502, -2.934842, -2.353500, -0.400835, -1.530308, 3.497883, -65.395096, -81.548141, -609.991272
1733468643.418416, -8.194006, -3.485808, -2.851943, -0.377591, -1.287238, 3.450556, -66.825333, -80.358795, -610.118835
1733468643.428418, -9.501838, -3.945046, -2.833388, -0.425917, -1.230032, 3.319711, -67.787857, -79.284622, -610.081787
1733468643.438417, -10.810269, -4.194492, -2.258929, -0.476626, -1.338356, 3.134072, -68.954773, -78.257629, -609.645996
1733468643.448412, -12.233024, -4.289362, -2.073678, -0.485495, -1.509432, 2.894410, -69.999695, -77.267593, -609.339905
1733468643.458415, -13.691841, -4.554071, -2.421436, -0.439233, -1.663633, 2.602016, -70.718307, -76.179932, -609.143555
1733468643.468415, -15.021969, -5.160702, -3.354277, -0.318741, -1.685639, 2.316267, -71.179092, -75.187225, -608.609985
1733468643.478414, -15.966931, -5.963657, -4.650587, -0.166329, -1.556955, 2.111509, -71.469467, -74.342117, -607.981262
1733468643.488421, -16.574011, -6.552481, -5.708675, -0.050651, -1.317558, 1.966405, -71.704773, -73.391327, -607.532776
1733468643.498421, -17.077840, -6.943185, -6.260837, -0.017101, -1.077889, 1.859695, -72.298019, -72.694473, -607.032837
1733468643.508421, -17.603817, -6.982839, -6.111050, -0.048021, -0.923617, 1.771567, -72.687836, -71.837662, -605.658691
1733468643.518413, -18.407071, -6.986729, -5.916970, -0.075201, -0.767377, 1.663042, -73.205429, -71.170822, -606.289368
1733468643.528430, -19.249830, -7.382820, -6.203975, -0.078289, -0.577500, 1.521116, -73.147720, -70.432159, -606.044861
1733468643.538419, -20.028245, -7.858219, -6.506542, -0.100592, -0.399520, 1.328456, -73.668823, -69.736160, -605.635254
1733468643.548416, -20.837485, -8.245182, -6.476914, -0.163970, -0.222527, 1.075071, -73.976730, -69.548447, -605.657410
1733468643.558437, -21.546468, -8.529792, -6.473772, -0.251968, -0.010276, 0.795536, -74.357559, -68.985397, -605.470886
1733468643.568425, -22.041619, -8.704419, -6.686257, -0.324335, 0.197900, 0.497649, -74.354721, -68.720963, -605.657227
1733468643.578413, -22.255900, -8.754398, -7.003938, -0.332189, 0.376776, 0.191897, -74.439774, -68.627655, -605.942139
1733468643.588415, -22.208016, -8.834604, -7.462876, -0.269757, 0.566963, -0.136224, -74.646072, -68.495224, -606.270081
1733468643.598414, -22.080824, -8.952219, -7.950695, -0.159717, 0.743042, -0.468512, -74.613342, -68.675827, -606.345642
1733468643.608426, -21.727829, -8.855553, -8.093898, -0.032959, 0.874796, -0.793380, -74.455658, -69.069946, -606.255310
1733468643.618420, -21.199758, -8.594286, -7.842507, 0.086245, 0.983719, -1.102097, -74.677567, -69.567490, -607.363647
1733468643.628414, -20.558860, -8.191911, -7.570915, 0.206298, 1.086287, -1.393269, -74.426559, -70.027618, -607.463379
1733468643.638411, -19.836410, -7.687632, -7.290643, 0.327887, 1.188357, -1.660857, -74.217667, -70.707230, -608.103882
1733468643.648410, -18.964022, -7.155072, -6.888717, 0.437937, 1.279279, -1.896186, -73.845535, -71.467911, -608.682251
1733468643.658413, -17.936162, -6.642413, -6.374562, 0.523159, 1.378627, -2.091153, -73.460632, -72.132278, -608.773987
1733468643.668414, -16.802657, -6.280889, -5.866093, 0.578679, 1.477307, -2.246912, -72.920670, -73.184418, -609.176392
1733468643.678414, -15.694441, -5.894973, -5.291635, 0.588667, 1.616528, -2.348304, -72.432541, -74.053955, -609.612915
1733468643.688426, -14.597298, -5.449652, -4.696376, 0.567828, 1.760075, -2.419651, -71.721725, -74.912994, -610.189880
1733468643.698393, -13.674184, -5.180753, -4.158878, 0.541850, 1.912423, -2.483508, -71.215424, -75.880585, -610.666626
1733468643.708415, -12.747927, -5.035605, -3.707870, 0.521776, 2.016074, -2.550127, -70.318909, -77.002808, -610.819824
1733468643.718297, -11.891551, -4.866514, -3.253122, 0.524487, 2.071378, -2.609935, -69.673935, -77.879898, -611.504028
1733468643.728407, -11.075727, -4.730045, -2.940529, 0.543746, 2.100478, -2.680067, -68.648361, -78.760315, -612.155273
1733468643.738406, -10.343400, -4.595670, -2.694824, 0.562811, 2.124148, -2.746853, -68.137177, -79.587677, -612.301025
1733468643.748454, -9.621698, -4.406827, -2.404078, 0.581402, 2.111557, -2.815058, -67.071289, -80.611847, -612.601929
1733468643.758402, -8.905083, -4.271555, -2.140865, 0.617116, 2.111469, -2.863976, -65.719055, -81.343216, -613.216003
1733468643.768404, -8.264186, -4.056227, -2.054824, 0.657471, 2.171811, -2.921837, -64.835678, -82.383774, -613.598938
1733468643.778420, -7.716512, -3.862446, -2.034922, 0.682017, 2.253681, -2.995866, -63.914246, -83.143372, -613.724304
1733468643.788423, -7.111976, -3.879804, -1.910573, 0.707745, 2.312145, -3.070565, -62.572845, -84.034760, -613.669556
1733468643.798426, -6.482900, -3.823091, -1.770063, 0.763581, 2.358516, -3.148159, -61.541000, -84.937790, -614.462402
1733468643.808412, -5.869086, -3.546860, -1.623718, 0.849001, 2.377367, -3.217039, -60.092285, -85.643921, -614.592651
1733468643.817550, -5.205144, -3.272125, -1.359458, 0.923080, 2.372055, -3.291353, -58.675217, -86.469757, -614.790894
1733468643.828415, -4.599112, -3.045873, -0.890044, 0.952190, 2.338386, -3.366989, -57.144714, -87.228012, -615.004333
1733468643.838408, -4.046201, -2.810344, -0.358831, 0.943491, 2.327343, -3.438486, -55.518570, -87.852615, -614.778320
1733468643.848406, -3.434183, -2.701108, -0.071676, 0.917487, 2.325320, -3.503158, -53.859634, -88.483749, -614.693420
1733468643.858417, -2.898480, -2.491017, 0.219668, 0.898232, 2.301665, -3.557796, -52.132065, -88.923340, -614.667236
1733468643.868425, -2.447622, -2.058265, 0.430956, 0.887208, 2.264415, -3.610854, -50.079086, -89.583389, -614.332153
1733468643.878418, -2.199374, -1.603666, 0.584784, 0.867984, 2.236356, -3.693310, -48.638504, -89.764755, -614.338867
1733468643.888413, -2.147599, -1.218200, 0.808791, 0.822338, 2.232246, -3.802475, -46.662964, -90.155899, -613.841675
1733468643.898420, -2.060211, -0.792032, 0.869095, 0.778123, 2.254547, -3.896398, -44.485291, -90.378143, -613.586487
1733468643.908468, -1.778144, -0.037409, 0.838419, 0.749495, 2.309175, -3.964288, -42.799118, -90.502609, -613.182983
1733468643.918419, -1.530194, 0.814477, 0.842160, 0.724749, 2.373049, -4.036836, -40.836670, -90.555237, -613.176575
1733468643.928416, -1.120037, 1.158345, 0.973093, 0.673123, 2.297804, -4.153584, -39.394745, -90.636169, -612.605774
1733468643.938416, -0.686687, 0.722899, 1.315913, 0.648564, 2.064312, -4.334921, -37.166229, -90.405045, -612.055359
1733468643.948458, -0.507271, 0.320973, 1.165078, 0.746622, 1.889399, -4.559774, -34.914276, -90.499695, -612.117249
1733468643.958413, -0.211438, 0.128688, 0.274585, 0.957194, 1.773971, -4.783495, -32.689667, -89.897064, -611.468201
1733468643.968405, 0.176722, 0.260818, -0.257377, 1.197309, 1.695787, -4.971521, -30.423050, -89.424133, -610.662659
1733468643.978415, 0.755371, 0.641796, -0.409708, 1.420998, 1.716277, -5.091094, -28.409195, -88.688126, -609.400269
1733468643.988403, 1.723975, 1.138293, -0.342670, 1.596408, 1.728652, -5.145353, -26.085464, -87.989029, -608.611816
1733468643.998404, 2.794782, 1.750760, 0.356137, 1.708619, 1.697981, -5.145786, -24.125519, -87.053452, -607.711304
1733468644.008417, 4.106205, 1.883489, 1.066018, 1.852633, 1.714113, -5.117560, -22.128174, -86.072250, -606.674316
1733468644.018411, 5.718251, 1.480365, 1.349582, 2.094747, 1.768415, -5.023906, -20.266541, -84.840881, -605.780823
1733468644.028470, 7.592762, 1.660080, 2.342427, 2.265549, 1.761634, -4.790576, -19.068390, -83.550613, -603.878479
1733468644.038421, 9.893440, 2.599205, 4.488530, 2.153457, 1.701134, -4.472034, -17.824997, -82.361588, -603.292786
1733468644.048414, 12.296171, 2.909105, 6.890812, 1.663457, 1.672988, -4.164966, -16.508820, -80.980759, -601.730713
1733468644.058419, 14.456040, 2.615516, 8.882787, 0.950394, 1.772233, -3.828872, -15.718277, -79.691177, -600.899231
1733468644.067969, 16.673520, 2.629582, 10.027216, 0.256210, 1.873176, -3.446164, -15.481598, -78.886703, -600.434814
1733468644.078472, 19.085827, 2.788796, 10.776601, -0.327550, 1.767627, -3.035416, -15.041351, -78.072479, -600.098877
1733468644.088418, 21.382765, 3.056647, 11.093683, -0.714976, 1.469622, -2.589312, -14.706650, -77.575150, -600.129211
1733468644.098411, 23.234530, 3.345598, 10.617686, -0.907458, 1.134393, -2.136033, -13.909622, -77.193222, -599.355713
1733468644.108415, 24.219295, 3.343353, 9.299827, -0.946852, 0.951337, -1.727835, -14.042419, -76.677856, -600.325195
1733468644.118407, 24.683022, 2.957737, 7.588721, -0.868664, 0.860966, -1.347633, -13.979355, -76.536880, -600.408752
1733468644.128399, 24.986786, 2.844162, 6.571635, -0.732335, 0.714811, -0.995046, -13.626801, -76.359482, -600.512695
1733468644.138405, 25.086595, 2.939032, 6.424990, -0.595824, 0.505453, -0.666650, -13.738617, -76.275681, -600.748474
1733468644.148403, 25.047988, 2.996044, 6.600664, -0.538856, 0.313234, -0.364327, -13.398270, -76.127747, -600.737976
1733468644.158402, 24.929176, 3.232920, 6.800580, -0.571195, 0.124060, -0.071025, -13.376022, -76.154724, -601.077515
1733468644.168400, 24.719983, 3.484461, 6.920290, -0.637930, -0.079146, 0.229781, -13.360596, -76.282730, -601.031921
1733468644.178402, 24.279449, 3.779098, 6.774094, -0.692409, -0.302885, 0.517707, -13.455688, -76.421188, -601.329834
1733468644.188402, 23.579594, 3.871873, 6.335207, -0.689852, -0.542119, 0.789323, -13.501678, -76.831711, -601.703125
1733468644.198405, 22.638823, 3.681833, 5.590760, -0.622289, -0.757013, 1.032391, -13.566376, -77.214691, -601.822510
1733468644.208409, 21.432444, 3.445855, 4.733337, -0.514717, -0.953598, 1.237791, -13.301819, -77.818649, -603.012939
1733468644.218414, 20.135236, 3.046322, 4.141520, -0.382385, -1.114496, 1.399610, -13.631500, -78.103882, -602.736633
1733468644.228410, 18.847455, 2.584241, 3.572299, -0.226501, -1.231570, 1.541368, -13.956238, -78.460846, -603.402832
1733468644.238397, 17.764677, 2.308609, 3.146131, -0.074050, -1.345581, 1.692242, -14.032211, -79.030350, -603.917236
1733468644.248399, 16.844107, 2.130241, 3.051709, 0.063542, -1.461867, 1.857533, -14.253494, -79.531036, -604.601074
1733468644.258453, 15.905579, 1.978808, 3.174861, 0.153644, -1.567561, 2.003652, -14.563583, -80.062027, -604.900391
1733468644.268392, 14.932037, 1.679682, 3.394679, 0.197147, -1.667945, 2.122119, -14.941437, -80.619507, -604.657349
1733468644.278394, 13.951013, 1.245883, 3.543718, 0.228062, -1.741553, 2.226998, -15.778183, -81.309036, -605.718872
1733468644.287655, 13.012187, 1.004368, 3.574094, 0.244428, -1.851074, 2.309889, -16.056076, -82.003632, -605.982117
1733468644.298453, 12.112565, 0.738013, 3.613150, 0.274706, -1.998963, 2.386370, -16.570389, -82.612732, -605.653992
1733468644.308420, 11.366023, 0.458789, 3.535188, 0.328724, -2.151349, 2.458734, -17.382767, -83.053207, -606.101562
1733468644.318397, 10.575638, 0.266654, 3.317316, 0.401706, -2.263496, 2.520040, -17.952896, -83.617828, -606.232544
1733468644.328409, 9.691579, -0.204854, 2.940229, 0.463163, -2.322860, 2.555228, -18.633209, -84.202454, -606.785156
1733468644.338395, 8.896704, -0.690129, 2.730587, 0.479232, -2.326137, 2.591323, -19.238770, -84.621506, -606.960693
1733468644.348411, 8.268675, -0.948403, 2.641104, 0.442750, -2.290864, 2.631072, -20.130966, -85.127594, -607.494202
1733468644.358411, 7.721151, -1.232565, 2.496105, 0.389223, -2.230117, 2.673337, -20.935150, -85.713654, -607.731812
1733468644.368394, 7.187693, -1.502362, 2.329109, 0.352970, -2.171952, 2.736420, -22.124634, -86.363708, -607.982666
1733468644.378393, 6.734440, -1.584812, 2.132336, 0.337859, -2.132134, 2.802345, -23.017944, -87.002502, -608.139648
1733468644.388406, 6.283882, -1.732504, 1.912069, 0.343711, -2.157994, 2.849921, -24.181274, -87.246140, -608.507996
1733468644.398409, 5.795165, -2.012177, 1.819144, 0.374214, -2.238356, 2.891536, -25.059448, -88.042755, -608.250122
1733468644.408406, 5.349095, -2.184709, 1.723676, 0.397296, -2.341693, 2.935330, -26.013367, -88.445496, -608.768799
1733468644.418409, 4.784213, -2.214487, 1.504307, 0.413734, -2.408134, 2.960854, -27.545929, -88.578476, -608.715637
1733468644.428436, 4.140921, -2.478897, 1.042974, 0.447494, -2.404289, 2.954172, -28.513763, -88.993286, -608.931213
1733468644.438405, 3.637092, -2.898480, 0.608875, 0.490563, -2.348105, 2.951507, -29.838181, -89.166397, -608.611694
1733468644.448404, 3.334225, -3.172018, 0.373645, 0.497472, -2.296238, 2.963093, -31.086517, -89.554138, -608.897095
1733468644.458398, 3.061286, -3.230526, 0.457592, 0.463795, -2.301598, 2.989463, -32.447479, -89.879684, -608.671875
1733468644.468386, 2.407070, -3.288586, 0.397288, 0.422569, -2.341163, 3.008512, -33.810104, -89.943085, -608.850342
1733468644.478397, 1.898153, -3.214066, -0.034117, 0.418206, -2.365438, 3.028820, -35.057175, -90.181778, -608.483459
1733468644.488393, 1.509245, -3.317316, -0.505625, 0.456967, -2.341873, 3.056195, -36.142105, -90.076080, -608.564148
1733468644.498385, 1.148768, -3.431041, -0.743100, 0.533464, -2.308800, 3.090814, -37.798874, -90.480515, -607.745667
1733468644.508417, 0.640449, -3.513940, -0.700005, 0.630265, -2.290873, 3.119612, -39.340408, -90.209900, -607.802246
1733468644.518391, 0.114173, -3.761889, -0.528520, 0.711735, -2.329381, 3.111644, -40.311203, -90.157593, -607.354980
1733468644.528398, -0.245555, -3.771317, -0.590620, 0.797880, -2.388582, 3.118379, -41.686356, -90.013962, -607.061401
1733468644.538396, -0.711377, -3.722684, -0.629974, 0.930332, -2.386746, 3.172791, -42.845795, -89.885864, -606.332764
1733468644.548396, -1.278504, -3.728221, -0.294487, 1.070404, -2.326789, 3.270422, -44.153534, -89.330582, -605.464111
1733468644.558391, -1.975965, -3.636643, 0.378433, 1.145891, -2.209807, 3.396097, -45.656494, -88.961227, -604.700745
1733468644.568403, -2.822016, -3.766977, 1.252317, 1.109135, -2.108691, 3.534662, -47.145721, -88.379593, -604.211670
1733468644.578405, -3.758897, -3.963601, 1.868076, 0.970207, -1.989244, 3.645835, -47.145721, -88.379593, -604.211670
1733468644.588385, -4.627094, -4.260183, 2.138321, 0.755421, -1.866723, 3.701750, -50.322205, -87.413330, -603.404053
1733468644.598385, -5.294627, -4.756979, 2.110638, 0.524042, -1.793382, 3.713870, -50.322205, -87.413330, -603.404053
1733468644.608396, -5.798308, -4.916942, 1.577330, 0.302584, -1.692201, 3.728445, -51.638748, -86.797974, -601.894165
1733468644.617467, -5.798308, -4.916942, 1.577330, 0.116251, -1.518176, 3.802072, -53.158218, -86.201553, -602.406128
1733468644.628388, -7.047033, -4.780173, 0.280271, -0.031292, -1.323974, 3.910654, -54.447479, -85.445831, -602.018555
1733468644.638394, -8.039131, -5.050119, -0.290297, -0.150506, -1.138260, 3.995928, -56.004517, -84.836411, -602.016479
1733468644.648400, -9.224111, -5.637148, -0.986112, -0.220003, -0.975604, 4.034590, -57.573914, -83.871368, -602.129517
1733468644.658386, -10.370784, -6.432472, -1.543512, -0.240903, -0.814018, 3.982847, -59.163193, -83.078888, -601.614502
1733468644.668385, -11.246613, -7.045088, -1.656937, -0.236108, -0.746415, 3.823381, -60.978149, -82.002853, -601.574829
1733468644.678386, -11.776479, -7.085789, -1.409287, -0.192322, -0.895944, 3.611545, -62.270538, -81.119263, -601.737366
1733468644.688389, -12.146533, -6.913856, -1.315763, -0.102229, -1.198764, 3.406558, -63.633545, -80.108902, -601.316895
1733468644.698411, -12.800001, -6.941090, -1.465401, 0.029712, -1.598391, 3.241024, -64.179321, -79.139114, -601.198120
1733468644.708394, -13.863475, -7.261913, -2.370260, 0.149989, -1.811268, 3.104015, -65.144547, -78.208710, -599.899170
1733468644.718385, -15.031696, -7.870040, -3.614646, 0.235090, -1.678771, 2.988200, -65.737976, -76.977112, -599.641296
1733468644.728387, -15.920394, -8.682423, -4.523844, 0.277784, -1.254296, 2.906860, -66.153259, -75.918167, -599.168701
1733468644.738386, -16.660202, -9.210643, -4.781520, 0.282445, -0.704527, 2.863305, -66.668121, -74.963211, -598.775879
1733468644.748383, -17.597831, -9.474754, -4.242675, 0.230603, -0.209689, 2.821433, -67.566116, -73.967087, -598.623840
1733468644.758382, -19.018640, -9.800964, -3.538181, 0.125561, 0.133329, 2.701044, -68.495346, -73.069748, -598.652344
1733468644.768385, -20.517560, -10.387543, -3.159897, 0.011755, 0.330180, 2.413742, -69.509430, -72.217651, -598.614197
1733468644.778397, -21.577892, -10.873416, -3.158850, -0.058199, 0.402029, 1.990757, -70.162186, -71.552902, -598.768372
1733468644.788397, -22.098631, -11.049540, -3.384354, -0.056707, 0.404913, 1.526276, -70.716751, -71.027023, -598.835083
1733468644.797571, -22.230911, -11.106702, -3.558532, -0.014601, 0.392854, 1.075723, -71.157639, -70.523544, -599.143433
1733468644.808396, -22.228067, -11.089643, -3.737199, -0.004494, 0.459558, 0.658604, -71.207153, -70.356171, -598.702698
1733468644.818385, -22.159533, -11.178677, -3.917363, -0.052212, 0.589672, 0.241747, -71.474945, -70.179718, -599.451477
1733468644.828385, -21.751621, -11.153239, -4.253599, -0.088779, 0.741010, -0.172527, -71.813797, -70.079010, -600.062134
1733468644.838390, -21.066281, -10.824635, -4.571728, -0.062397, 0.892529, -0.553994, -71.810303, -70.245361, -600.318176
1733468644.848407, -20.083162, -10.312575, -4.577564, 0.036704, 1.020241, -0.873687, -71.840149, -70.608719, -600.500427
1733468644.858382, -19.118149, -9.669432, -4.179079, 0.135700, 1.139891, -1.144206, -71.757538, -71.108948, -600.933472
1733468644.868382, -18.262521, -8.994267, -3.595492, 0.171469, 1.236556, -1.386337, -71.456345, -71.814316, -601.021057
1733468644.878384, -17.309629, -8.369530, -3.199252, 0.168546, 1.346663, -1.592965, -71.295670, -72.335205, -601.654602
1733468644.888385, -16.313791, -7.854927, -2.956989, 0.148886, 1.452796, -1.767931, -71.036774, -73.022293, -602.028503
1733468644.898382, -15.302989, -7.403470, -2.823961, 0.125858, 1.554056, -1.915521, -70.698868, -73.566513, -602.363403
1733468644.908389, -14.319570, -7.034164, -2.756474, 0.112461, 1.664125, -2.038702, -70.463242, -74.611069, -602.585083
1733468644.918382, -13.415460, -6.727407, -2.670433, 0.114537, 1.779189, -2.149517, -70.202438, -75.103912, -603.569214
1733468644.928382, -12.598888, -6.353014, -2.550872, 0.133375, 1.891704, -2.248513, -69.518677, -76.074921, -604.342346
1733468644.938379, -11.752986, -6.043115, -2.360982, 0.170636, 1.985965, -2.340913, -69.032730, -76.945084, -604.960327
1733468644.948374, -10.891223, -5.748927, -2.100463, 0.228276, 2.039454, -2.419108, -68.353378, -77.685364, -605.192139
1733468644.958378, -10.098144, -5.388749, -1.805827, 0.293134, 2.074120, -2.482970, -67.694031, -78.672104, -605.909058
1733468644.968373, -9.371803, -5.065981, -1.437120, 0.337245, 2.101849, -2.536940, -67.187744, -79.342941, -606.390869
1733468644.978374, -8.615984, -4.883423, -1.155801, 0.356462, 2.102240, -2.576482, -66.148941, -80.242783, -607.451843
1733468644.988378, -7.927501, -4.686051, -1.012598, 0.385026, 2.102878, -2.609224, -65.622482, -81.007919, -607.579468
1733468644.998383, -7.358280, -4.632930, -0.942567, 0.425470, 2.105897, -2.640311, -64.605377, -81.822556, -608.000977
1733468645.008376, -6.679523, -4.680215, -0.909198, 0.483039, 2.126807, -2.665261, -63.862000, -82.561737, -608.000122
1733468645.018421, -6.128109, -4.522048, -0.789488, 0.550364, 2.145304, -2.687576, -63.065308, -83.282288, -608.673828
1733468645.028389, -5.480028, -4.456657, -0.684592, 0.626198, 2.171080, -2.709598, -62.000580, -83.880981, -608.575806
1733468645.038385, -4.767304, -4.430321, -0.497096, 0.704555, 2.170985, -2.718946, -61.091354, -84.534241, -609.135498
1733468645.048372, -4.119823, -4.266168, -0.279822, 0.796454, 2.120425, -2.710979, -59.748337, -85.275589, -609.380859
1733468645.058379, -3.491345, -4.083610, -0.007781, 0.903103, 2.057802, -2.689268, -59.106125, -85.667908, -609.239258
1733468645.068375, -3.155109, -3.782689, 0.649577, 0.953105, 1.947927, -2.676808, -58.253571, -86.342117, -609.136780
1733468645.078377, -2.622998, -3.826084, 0.610073, 0.927670, 1.950488, -2.663319, -56.668564, -86.887863, -609.020264
1733468645.088402, -2.010232, -4.053084, 0.516699, 0.890717, 2.058023, -2.616784, -55.683746, -87.098022, -609.371704
1733468645.098392, -1.794005, -3.994426, 0.794426, 0.843034, 2.195321, -2.602811, -54.418152, -87.685562, -609.326111
1733468645.108393, -1.562516, -3.888782, 1.148768, 0.767888, 2.326149, -2.619777, -53.548325, -87.965286, -608.543274
1733468645.118381, -1.254711, -3.782240, 1.420061, 0.675341, 2.421108, -2.650646, -52.327362, -88.509537, -609.322571
1733468645.128393, -0.850091, -3.560627, 1.544260, 0.592298, 2.495192, -2.672405, -51.290039, -88.814774, -609.521179
1733468645.138373, -0.414347, -3.287389, 1.641525, 0.545540, 2.540251, -2.685910, -49.916656, -88.918457, -609.437012
1733468645.148391, -0.061501, -3.063231, 1.781585, 0.514849, 2.523373, -2.700521, -49.160660, -89.068710, -609.495850
1733468645.158370, 0.285658, -3.028964, 1.825579, 0.491816, 2.458211, -2.736794, -47.957886, -89.242325, -609.057312
1733468645.168399, 0.584335, -3.065925, 1.672948, 0.486986, 2.363481, -2.787683, -46.890579, -89.480469, -609.110779
1733468645.178396, 0.880617, -3.014599, 1.410933, 0.503439, 2.283503, -2.834614, -45.571304, -89.631256, -608.986816
1733468645.188388, 1.102231, -3.053954, 1.123180, 0.513005, 2.280036, -2.897340, -44.237671, -89.508713, -609.028564
1733468645.198372, 1.331475, -2.827851, 0.929698, 0.515279, 2.316540, -2.953845, -43.022049, -89.617416, -609.035461
1733468645.208379, 1.654842, -2.455852, 0.738013, 0.560241, 2.374662, -3.007499, -41.721298, -89.651627, -608.138550
1733468645.218427, 2.032677, -2.396895, 0.807594, 0.679387, 2.368138, -3.072936, -40.773300, -89.699463, -608.160950
1733468645.228376, 2.412009, -2.281375, 1.106271, 0.825094, 2.317238, -3.147998, -39.419113, -89.505005, -608.129395
1733468645.238376, 2.857330, -2.167650, 1.538424, 0.955431, 2.263996, -3.224559, -38.180344, -89.301407, -607.541748
1733468645.248368, 3.519925, -2.107197, 2.137424, 1.066072, 2.196379, -3.298839, -37.145508, -89.047791, -607.028503
1733468645.258431, 4.260931, -1.873313, 2.879327, 1.150938, 2.089507, -3.354565, -35.678558, -88.773636, -606.056641
1733468645.268369, 5.065383, -1.526752, 3.527856, 1.208159, 1.972901, -3.382275, -34.765762, -88.278717, -605.812317
1733468645.278375, 6.119131, -1.544110, 4.048745, 1.205696, 1.921863, -3.392285, -33.370453, -88.134064, -605.177368
1733468645.288385, 7.343914, -1.575983, 4.566640, 1.131821, 1.916521, -3.388607, -32.101044, -87.651993, -604.246521
1733468645.298379, 8.523358, -1.102081, 5.117606, 1.007909, 1.938124, -3.320345, -30.964172, -87.165985, -603.949219
1733468645.308381, 9.798719, -0.833930, 5.604826, 0.841074, 1.962441, -3.205390, -30.024261, -86.607239, -603.494507
1733468645.318383, 11.036222, -0.915632, 6.063465, 0.679786, 1.956712, -3.084803, -29.361969, -86.121902, -603.238953
1733468645.328375, 12.451944, -1.130662, 6.684761, 0.520584, 1.864406, -2.967075, -28.830490, -85.762451, -602.665100
1733468645.338366, 14.237569, -1.639130, 7.251588, 0.378411, 1.603560, -2.882942, -28.188232, -85.387894, -602.236328
1733468645.348377, 15.946131, -2.011129, 7.543082, 0.281378, 1.194077, -2.819711, -27.477966, -84.828766, -602.201782
1733468645.358378, 17.505355, -2.177377, 7.245004, 0.187852, 0.788103, -2.744729, -26.551498, -84.301834, -602.188843
1733468645.368386, 19.110518, -2.156876, 6.320692, 0.086910, 0.565722, -2.611408, -25.785507, -83.714935, -602.263855
1733468645.378384, 20.675877, -1.968183, 5.271134, -0.004317, 0.566886, -2.396039, -25.235260, -83.512054, -602.132507
1733468645.388402, 22.026805, -1.586458, 4.762666, -0.015647, 0.650135, -2.116338, -24.421936, -83.139053, -601.944946
1733468645.398388, 23.237972, -1.198597, 5.109675, 0.054925, 0.631706, -1.773478, -23.987610, -82.835007, -601.832886
1733468645.408408, 24.089859, -0.935235, 6.136937, 0.159016, 0.393707, -1.401180, -23.676300, -82.536942, -601.946106
1733468645.418381, 24.544158, -0.932242, 6.891261, 0.226292, 0.056087, -1.023753, -23.208878, -82.444672, -601.687744
1733468645.428389, 24.630948, -1.084274, 7.150433, 0.250166, -0.246998, -0.644209, -22.769547, -82.427612, -601.815247
1733468645.438375, 24.291570, -1.349432, 7.138013, 0.249933, -0.467959, -0.283117, -22.487289, -82.147034, -601.473755
1733468645.448340, 23.742550, -1.503708, 7.168240, 0.225040, -0.631629, 0.069150, -22.446198, -82.216232, -601.273804
1733468645.458370, 22.847418, -1.591396, 7.180660, 0.180612, -0.753741, 0.394937, -22.435150, -82.347626, -601.693115
1733468645.468381, 21.798159, -1.829619, 7.155371, 0.133319, -0.879558, 0.665993, -22.550629, -82.368774, -602.126038
1733468645.478372, 20.670340, -2.007987, 7.151181, 0.099732, -1.054606, 0.890437, -22.446533, -82.573212, -601.973450
1733468645.488382, 19.521871, -2.097021, 6.938845, 0.065102, -1.221606, 1.088850, -22.655899, -82.784058, -602.086670
1733468645.498383, 18.459744, -2.069039, 6.623858, 0.023588, -1.364004, 1.268888, -22.812515, -82.831757, -602.122314
1733468645.508378, 17.345991, -2.003797, 6.304532, -0.006675, -1.501036, 1.441252, -22.738419, -83.221100, -602.785461
1733468645.518422, 16.250045, -2.034473, 5.907842, -0.020345, -1.595087, 1.600883, -23.077942, -83.545349, -602.868835
1733468645.528372, 15.272014, -2.088043, 5.639991, -0.022054, -1.689907, 1.743067, -23.427444, -83.992569, -603.234253
1733468645.538362, 14.476989, -1.964592, 5.395633, -0.015349, -1.819947, 1.894726, -23.773544, -84.267563, -603.624512
1733468645.548415, 13.585448, -1.916409, 5.171924, -0.007989, -1.963033, 2.031100, -24.117111, -84.607635, -603.663818
1733468645.558379, 12.655301, -1.916110, 4.847959, -0.013757, -2.078252, 2.157095, -24.602707, -84.849838, -604.020386
1733468645.568380, 11.813739, -1.816601, 4.413860, -0.033208, -2.114530, 2.300144, -25.355270, -85.294250, -604.168823
1733468645.578382, 10.913819, -1.681627, 4.134038, -0.069124, -2.124117, 2.451728, -25.778549, -86.078583, -604.489258
1733468645.588380, 10.068815, -1.821838, 3.759944, -0.119558, -2.107779, 2.602612, -26.684723, -86.343323, -604.697266
1733468645.598366, 9.157522, -1.867178, 3.433435, -0.177728, -2.087491, 2.738766, -27.332306, -86.721436, -604.519714
1733468645.607799, 8.252813, -1.816002, 3.037643, -0.218077, -2.092145, 2.855908, -28.367798, -87.213837, -605.836609
1733468645.618374, 7.415441, -1.862988, 2.498649, -0.200878, -2.108296, 2.977602, -29.387192, -87.793365, -605.872192
1733468645.628375, 6.520907, -1.988833, 2.021903, -0.153480, -2.101489, 3.078916, -30.628571, -88.057526, -606.150208
1733468645.638383, 5.660491, -2.066046, 1.758242, -0.105509, -2.073294, 3.153682, -31.714767, -88.392578, -606.323608
1733468645.648391, 4.862175, -2.094926, 1.680281, -0.067303, -2.051471, 3.213949, -33.021545, -88.706284, -606.460022
1733468645.658409, 4.234894, -2.319981, 1.594538, -0.039123, -2.037877, 3.252296, -34.408844, -88.843811, -606.778137
1733468645.667381, 3.633500, -2.345569, 1.512986, -0.017197, -2.027849, 3.287041, -35.756485, -88.951050, -607.189575
1733468645.678374, 3.127576, -2.344821, 1.393276, 0.013370, -1.899987, 3.402948, -37.005157, -89.284500, -606.733154
1733468645.688381, 2.629731, -2.366668, 1.296909, 0.006236, -1.790711, 3.470362, -38.538452, -89.321335, -606.641968
1733468645.698359, 2.209698, -2.494010, 1.211616, -0.013787, -1.682802, 3.536397, -40.012939, -89.572311, -606.758118
1733468645.708370, 1.772009, -2.668338, 1.247379, -0.036398, -1.595431, 3.580486, -41.749329, -89.292603, -606.900330
1733468645.718361, 1.342399, -2.750040, 1.366640, -0.063639, -1.539847, 3.598498, -43.253143, -89.447235, -607.041382
1733468645.728366, 1.025018, -2.923470, 1.570297, -0.125453, -1.541687, 3.583995, -45.334030, -89.293030, -607.068726
1733468645.738360, 0.738462, -3.134010, 1.908777, -0.242515, -1.672237, 3.515540, -46.769485, -89.096710, -606.841736
1733468645.748402, 0.472256, -3.407099, 2.355595, -0.377084, -1.908121, 3.440133, -47.922058, -89.050644, -606.989258
1733468645.758354, 0.312443, -3.392584, 2.479794, -0.470513, -2.136297, 3.401030, -49.591019, -88.840240, -607.252319
1733468645.768354, 0.133626, -3.176956, 2.059462, -0.506700, -2.271564, 3.401376, -50.848801, -88.266296, -606.930542
1733468645.778354, -0.243460, -2.920477, 1.410783, -0.517654, -2.309973, 3.423526, -52.161682, -87.986954, -606.779846
1733468645.788360, -0.696264, -2.859275, 0.904859, -0.541603, -2.272558, 3.466536, -53.388718, -87.632431, -606.587952
1733468645.798354, -1.060033, -2.893393, 0.408062, -0.553926, -2.179050, 3.541935, -54.851837, -87.069778, -606.100220
1733468645.808364, -1.340154, -2.880823, -0.060454, -0.570833, -2.041467, 3.622976, -56.480911, -86.189240, -606.581177
1733468645.818362, -1.757643, -2.970007, -0.356437, -0.601198, -1.908104, 3.674560, -57.787109, -85.638733, -606.598816
1733468645.828359, -2.136526, -3.096152, -0.582539, -0.620951, -1.802446, 3.734239, -59.484314, -84.804871, -606.197266
1733468645.838365, -2.365771, -2.945467, -0.730531, -0.600313, -1.737938, 3.827621, -60.705948, -84.126526, -606.083862
1733468645.848376, -2.647837, -2.483386, -0.808193, -0.538718, -1.736426, 3.946599, -62.201355, -83.015854, -606.130188
1733468645.858378, -3.241599, -1.918803, -0.699705, -0.450990, -1.744936, 4.093815, -63.823349, -82.083405, -605.498962
1733468645.868360, -4.116979, -1.573739, -0.484377, -0.391750, -1.746798, 4.247699, -65.263519, -80.757599, -605.322083
1733468645.878358, -5.170129, -1.506102, -0.262464, -0.389468, -1.688231, 4.368811, -66.548492, -79.528580, -604.376343
1733468645.888368, -6.381146, -1.517176, -0.326659, -0.437565, -1.553798, 4.494884, -67.774490, -78.109619, -603.977783
1733468645.898360, -7.600543, -1.484854, -0.582240, -0.528458, -1.358947, 4.644980, -69.143677, -76.649185, -603.605347
1733468645.908364, -9.094076, -1.233762, -1.008408, -0.631556, -1.155697, 4.756380, -70.430634, -74.806320, -603.882568
1733468645.918357, -11.184513, -1.256657, -1.429338, -0.706430, -1.036221, 4.712407, -71.897217, -73.253372, -604.083130
1733468645.928356, -13.801226, -2.113033, -1.993771, -0.694768, -0.950144, 4.483564, -73.143082, -71.797455, -604.036743
1733468645.938355, -16.584635, -3.494936, -3.051410, -0.608370, -0.908305, 4.045098, -73.990341, -70.350555, -603.714355
1733468645.948354, -18.925266, -5.084536, -3.970933, -0.446254, -0.931743, 3.521411, -74.441055, -68.673981, -603.450928
1733468645.958353, -20.466833, -5.928343, -4.549282, -0.238027, -0.977459, 3.021169, -75.223145, -67.455704, -603.316895
1733468645.968358, -21.509657, -6.118233, -4.663007, -0.063310, -1.104747, 2.524842, -75.800186, -66.427551, -602.622131
1733468645.978358, -22.428432, -6.425588, -4.213346, 0.040227, -1.300159, 1.989339, -76.006256, -65.602509, -601.984436
1733468645.988363, -23.333889, -7.189488, -3.818303, 0.099265, -1.391411, 1.461632, -75.889313, -64.919388, -601.908203
1733468645.998369, -23.844154, -7.909544, -4.081665, 0.135324, -1.269084, 0.997990, -75.897461, -64.396576, -600.552979
1733468646.008359, -23.931243, -8.431630, -4.577714, 0.105684, -1.005173, 0.615120, -75.668549, -64.046997, -600.642883
1733468646.018358, -23.543981, -8.495525, -4.610783, 0.010436, -0.692401, 0.338000, -75.604004, -63.826477, -599.867004
1733468646.028361, -22.937499, -8.171859, -4.416105, -0.103838, -0.357840, 0.145211, -75.683289, -63.808395, -599.963745
1733468646.038361, -22.330420, -7.996484, -4.405331, -0.198902, -0.043624, -0.016376, -75.529251, -64.066574, -600.236389
1733468646.048352, -21.870284, -7.855376, -4.444686, -0.257399, 0.215511, -0.181554, -75.632202, -64.291168, -600.265320
1733468646.058365, -21.518336, -7.853879, -4.530727, -0.269524, 0.427644, -0.355286, -75.921616, -64.431870, -600.568848
1733468646.068376, -21.155615, -8.021623, -4.696825, -0.252684, 0.611937, -0.555705, -75.951096, -64.839325, -600.672791
1733468646.078377, -20.897490, -8.107216, -4.739472, -0.221235, 0.760899, -0.803727, -75.951096, -64.839325, -600.672791
1733468646.088382, -20.542849, -8.172009, -4.721366, -0.157458, 0.864758, -1.076429, -75.995361, -65.263763, -601.949158
1733468646.098371, -19.987843, -7.983765, -4.609736, -0.063529, 0.928469, -1.352558, -75.936829, -65.650330, -601.895752
1733468646.108357, -19.282002, -7.567473, -4.418948, 0.029015, 0.969869, -1.614807, -75.769424, -66.444351, -601.666321
1733468646.118376, -18.482339, -7.113472, -4.124761, 0.095516, 1.024135, -1.844211, -75.496628, -67.073822, -602.436523
1733468646.128375, -17.487847, -6.734889, -3.924695, 0.140796, 1.124988, -2.026072, -75.181488, -67.944550, -603.054871
1733468646.138349, -16.435297, -6.359897, -3.862895, 0.171443, 1.281332, -2.158978, -74.820435, -68.860107, -603.578857
1733468646.148375, -15.401001, -5.928193, -3.765181, 0.180505, 1.466605, -2.250297, -74.660706, -69.583527, -603.755981
1733468646.158354, -14.355932, -5.514894, -3.493439, 0.171133, 1.631363, -2.302402, -74.158432, -70.461670, -603.907104
1733468646.168358, -13.334357, -5.170129, -3.179500, 0.173701, 1.755773, -2.333523, -73.785950, -71.510757, -604.667725
1733468646.178418, -12.501923, -4.848857, -2.907758, 0.204139, 1.847178, -2.363395, -73.326736, -72.330795, -605.422852
1733468646.188374, -11.737424, -4.674828, -2.767547, 0.260548, 1.912789, -2.393847, -72.820770, -73.324142, -606.048401
1733468646.198362, -11.030536, -4.637569, -2.637961, 0.320144, 1.942413, -2.434970, -72.158936, -74.329117, -606.483398
1733468646.208357, -10.443208, -4.615572, -2.466477, 0.385699, 1.978602, -2.487847, -71.839661, -75.185104, -606.508911
1733468646.218355, -9.951798, -4.589685, -2.385223, 0.440833, 2.029695, -2.555235, -71.243149, -76.006699, -607.542297
1733468646.228365, -9.485079, -4.552724, -2.228702, 0.479458, 2.078502, -2.639446, -70.476654, -76.888870, -608.192383
1733468646.238364, -8.990377, -4.414459, -1.888277, 0.497753, 2.106985, -2.734377, -69.643188, -77.908539, -608.723877
1733468646.248355, -8.540716, -4.242376, -1.592892, 0.524471, 2.153147, -2.827435, -68.798218, -78.851685, -609.317993
1733468646.258361, -8.060529, -4.040814, -1.433229, 0.556270, 2.203030, -2.925407, -67.999725, -79.839951, -609.658752
1733468646.268360, -7.419332, -3.951331, -1.256058, 0.588808, 2.198108, -3.013118, -67.126389, -80.642548, -610.216309
1733468646.278363, -6.659622, -3.786280, -0.904260, 0.627792, 2.155592, -3.076297, -65.877487, -81.510452, -610.309631
1733468646.288358, -5.947197, -3.619734, -0.612916, 0.663965, 2.105592, -3.146274, -64.924377, -82.513504, -610.888184
1733468646.298362, -5.389348, -3.605817, -0.429161, 0.704116, 2.044627, -3.221622, -63.714264, -83.545685, -611.429688
1733468646.308359, -4.905570, -3.534291, -0.353294, 0.745323, 2.027596, -3.316070, -62.385498, -84.323395, -610.654175
1733468646.318365, -4.562451, -3.457526, -0.375141, 0.771795, 2.030597, -3.435058, -60.992889, -85.060089, -611.571533
1733468646.328351, -4.181623, -3.478925, -0.297928, 0.782162, 1.995006, -3.568191, -59.379791, -85.842560, -611.768311
1733468646.338348, -3.721038, -3.412037, -0.053870, 0.790595, 1.908110, -3.715355, -57.798279, -86.647278, -611.949219
1733468646.348345, -3.257760, -3.165883, 0.297330, 0.813765, 1.753398, -3.874690, -56.206955, -87.417862, -611.649292
1733468646.358363, -2.691831, -2.934992, 0.588674, 0.848447, 1.582258, -4.003516, -54.026199, -88.140182, -611.572815
1733468646.368350, -2.052729, -2.605340, 0.653019, 0.879451, 1.458291, -4.093454, -52.357559, -88.630692, -611.527527
1733468646.378349, -1.444003, -2.272846, 0.553360, 0.908593, 1.360229, -4.148945, -50.289246, -89.089905, -611.143372
1733468646.388365, -0.848146, -2.009483, 0.596455, 0.909575, 1.321849, -4.161891, -48.383240, -89.356522, -610.888428
1733468646.398356, -0.408511, -1.594987, 0.574908, 0.886958, 1.396802, -4.152106, -46.290619, -89.825806, -610.813477
1733468646.408412, -0.038457, -1.317559, 0.346561, 0.871452, 1.574319, -4.125038, -44.530838, -90.008026, -609.872009
1733468646.418371, 0.348506, -1.317559, 0.083199, 0.866727, 1.794519, -4.095114, -42.554779, -90.135086, -609.850220
1733468646.428363, 0.723049, -1.170166, 0.240168, 0.836792, 1.962809, -4.086776, -40.783768, -90.094711, -609.511108
1733468646.438365, 1.183933, -0.945410, 0.649278, 0.815943, 2.046628, -4.074049, -38.903885, -90.019318, -609.154663
1733468646.448353, 1.739986, -0.629076, 0.973692, 0.849435, 2.050676, -4.042810, -36.982666, -89.946365, -609.017639
1733468646.458363, 2.377143, -0.156371, 1.315614, 0.897519, 2.006968, -3.992071, -35.466324, -89.651184, -608.264404
1733468646.468348, 3.010858, 0.235979, 1.693149, 0.915579, 1.952590, -3.931574, -34.032837, -89.204819, -607.264526
1733468646.478350, 3.583821, 0.364068, 1.979855, 0.910211, 1.936754, -3.869381, -32.411407, -88.752487, -606.779114
1733468646.488356, 3.976170, 0.307805, 1.869423, 0.931289, 2.058670, -3.823096, -30.707367, -88.241547, -606.145874
1733468646.498354, 4.316297, 0.152481, 1.507300, 0.935404, 2.377518, -3.774391, -29.463043, -87.869537, -605.601685
1733468646.508343, 4.942979, 0.247052, 1.432780, 0.878621, 2.749592, -3.696040, -28.184036, -87.288483, -604.175964
1733468646.518366, 6.036979, 0.556951, 1.978957, 0.723458, 3.149754, -3.585147, -26.801956, -86.467865, -604.120728
1733468646.528364, 7.618499, 0.772280, 2.624494, 0.501404, 3.536293, -3.407223, -26.020340, -86.112213, -603.597473
1733468646.538370, 9.419238, 1.076343, 3.418471, 0.350634, 3.695255, -3.205111, -25.541260, -85.441864, -603.009521
1733468646.548367, 11.384878, 1.016488, 4.590133, 0.331523, 3.562954, -2.965341, -25.209274, -85.210068, -602.420959
1733468646.558355, 13.456311, 0.924910, 5.623381, 0.367876, 3.175129, -2.749198, -25.079865, -84.554581, -601.881409
1733468646.568353, 15.461156, 0.523432, 6.643910, 0.378300, 2.618018, -2.600030, -24.864319, -84.192993, -601.573547
1733468646.578348, 17.582718, -0.282067, 7.445818, 0.369405, 2.012483, -2.439984, -24.501816, -83.672287, -600.881226
1733468646.588351, 19.707572, -0.480786, 7.682993, 0.411880, 1.536343, -2.204361, -24.066055, -83.221161, -600.862183
1733468646.598363, 21.530906, -0.505775, 7.444321, 0.460066, 1.184657, -1.946802, -23.846008, -82.900604, -600.281982
1733468646.608352, 22.936901, -0.715717, 7.488764, 0.472676, 0.833116, -1.661200, -22.965561, -82.347946, -599.191406
1733468646.618347, 23.974937, -0.694019, 8.053047, 0.490996, 0.575999, -1.339143, -22.672318, -81.889145, -599.354980
1733468646.628374, 24.692748, -0.625485, 8.103026, 0.515311, 0.481808, -0.963667, -22.607239, -81.796326, -599.224487
1733468646.638358, 25.176527, -0.530914, 8.075941, 0.511438, 0.470525, -0.542290, -22.575378, -81.354553, -598.946838
1733468646.648354, 25.350855, -0.384868, 8.643517, 0.434792, 0.433861, -0.124430, -22.492874, -81.503616, -598.998474
1733468646.658339, 25.259725, -0.368408, 9.623344, 0.324567, 0.236960, 0.285055, -22.674759, -81.399109, -598.647034
1733468646.668340, 25.112332, -0.315436, 10.711060, 0.202187, -0.097950, 0.688387, -22.502274, -81.460068, -599.018433
1733468646.678348, 24.535030, -0.309750, 11.271602, 0.063669, -0.394046, 1.052699, -22.710388, -81.655502, -598.596436
1733468646.688355, 23.315933, -0.567276, 11.030985, -0.086668, -0.580160, 1.338629, -22.897156, -81.834412, -598.467285
1733468646.698348, 21.778406, -1.098490, 10.439617, -0.225439, -0.744210, 1.554633, -23.091446, -82.053802, -598.830688
1733468646.708341, 20.270957, -1.498770, 9.895235, -0.326398, -0.931019, 1.703849, -23.477997, -82.394867, -598.416016
1733468646.718343, 18.739566, -1.767370, 9.389760, -0.379690, -1.144491, 1.812812, -23.775848, -82.817856, -599.659790
1733468646.728339, 17.303793, -1.949479, 8.905083, -0.403600, -1.363574, 1.921764, -24.029846, -83.382858, -599.857544
1733468646.738409, 16.040553, -1.897704, 8.378958, -0.403879, -1.578309, 2.037111, -24.255432, -83.596695, -599.869751
1733468646.748335, 14.769980, -1.762581, 7.843554, -0.391054, -1.728541, 2.163222, -24.755051, -84.219238, -600.346924
1733468646.758334, 13.626898, -1.760037, 7.123797, -0.387278, -1.825725, 2.284298, -25.154678, -84.600296, -600.750488
1733468646.768379, 12.561029, -1.832163, 6.517167, -0.397516, -1.892751, 2.398712, -25.453812, -84.935654, -601.022034
1733468646.778330, 11.453113, -1.879448, 6.046556, -0.435068, -1.934328, 2.477749, -26.431137, -85.627747, -601.569824
1733468646.787511, 10.381408, -1.976413, 5.673659, -0.499144, -2.008206, 2.523078, -26.939468, -85.868881, -601.706848
1733468646.798384, 9.447370, -2.066046, 5.404312, -0.552100, -2.106774, 2.554301, -27.565857, -86.387314, -602.376160
1733468646.808346, 8.652196, -1.984045, 4.867861, -0.564928, -2.220825, 2.575379, -28.304504, -86.780411, -603.001282
1733468646.818359, 7.884705, -1.867777, 4.225467, -0.526083, -2.343444, 2.611664, -28.816605, -87.087357, -603.368652
1733468646.828336, 7.215675, -1.912967, 3.429395, -0.447293, -2.358104, 2.668048, -29.686081, -87.552597, -603.954041
1733468646.838397, 6.624756, -1.939303, 2.504335, -0.368984, -2.336257, 2.709707, -30.708252, -87.921051, -604.034302
1733468646.848344, 6.102072, -2.145504, 2.002301, -0.294077, -2.324569, 2.768141, -31.539078, -88.256439, -603.958618
1733468646.858330, 5.647622, -2.179023, 1.658434, -0.191431, -2.296727, 2.839988, -32.507355, -88.625763, -604.604797
1733468646.868336, 5.201852, -2.138621, 1.288679, -0.058437, -2.283577, 2.910718, -33.368042, -88.874969, -605.122131
1733468646.878389, 4.811896, -2.266411, 1.065420, 0.090009, -2.286897, 2.970330, -34.614548, -89.108414, -605.022888
1733468646.888337, 4.365976, -2.393902, 0.939575, 0.231893, -2.320070, 3.017804, -35.748337, -89.252701, -605.362305
1733468646.898344, 3.897910, -2.484583, 0.962918, 0.355838, -2.358938, 3.052864, -36.733124, -89.467316, -605.228210
1733468646.908355, 3.487155, -2.624793, 1.050157, 0.433380, -2.394393, 3.074695, -37.958328, -89.308624, -605.114319
1733468646.918339, 2.767547, -2.608782, 1.517625, 0.449095, -2.480293, 3.100923, -39.515564, -89.386124, -604.794250
1733468646.928335, 2.433107, -2.807501, 1.437269, 0.429960, -2.562907, 3.130937, -40.684799, -89.378189, -604.690002
1733468646.938340, 2.028936, -3.142988, 1.040879, 0.411820, -2.563275, 3.152036, -41.848892, -89.363388, -604.181030
1733468646.948334, 1.714099, -3.141641, 0.913687, 0.406337, -2.524335, 3.183771, -43.238556, -89.282486, -604.160767
1733468646.958330, 1.447145, -2.937536, 1.011849, 0.398518, -2.477417, 3.237361, -44.042038, -89.009415, -603.490845
1733468646.968358, 1.094001, -2.804508, 1.146972, 0.374174, -2.454827, 3.307281, -45.345703, -88.777344, -603.150391
1733468646.978336, 0.711976, -2.722656, 1.083676, 0.347728, -2.417081, 3.403076, -46.560745, -88.700455, -603.273743
1733468646.988338, 0.236278, -2.743306, 0.994641, 0.333566, -2.353164, 3.526413, -48.115417, -88.103821, -603.049194
1733468646.998340, -0.405219, -2.963273, 0.897377, 0.304423, -2.271915, 3.645488, -49.324829, -87.805878, -602.406555
1733468647.008347, -1.028609, -3.370886, 0.801609, 0.264581, -2.209382, 3.735595, -51.070694, -87.236893, -601.894043
1733468647.018339, -1.622969, -3.432238, 0.624288, 0.242850, -2.157876, 3.815794, -52.324051, -86.557510, -601.718079
1733468647.028325, -2.131438, -3.298911, 0.408211, 0.270006, -2.052210, 3.901777, -53.730103, -86.111191, -601.061707
1733468647.038329, -2.564938, -2.934842, 0.509516, 0.312261, -1.905502, 4.036849, -55.352066, -85.042267, -600.493225
1733468647.048325, -3.115156, -2.316091, 0.913388, 0.331412, -1.766917, 4.248615, -56.558609, -84.270920, -600.104492
1733468647.058341, -4.088399, -1.941847, 1.350479, 0.298917, -1.598238, 4.474885, -58.291367, -83.321152, -599.683716
1733468647.068330, -5.588965, -2.052579, 2.079215, 0.159281, -1.462108, 4.614923, -60.065933, -82.188492, -599.689453
1733468647.078336, -7.282114, -2.643049, 2.623446, -0.106281, -1.414478, 4.630891, -61.763245, -80.836044, -599.075378
1733468647.088347, -9.040655, -3.441216, 2.651279, -0.421244, -1.417512, 4.506159, -63.209427, -79.911392, -598.943298
1733468647.098337, -10.395923, -4.026299, 2.017265, -0.669676, -1.469690, 4.278912, -64.530090, -78.996170, -598.567871
1733468647.108334, -11.031733, -4.458303, 0.889596, -0.769637, -1.505572, 4.021966, -65.682983, -77.727951, -598.785767
1733468647.118329, -11.107001, -4.431967, -0.111031, -0.732052, -1.522695, 3.822777, -66.556656, -76.774399, -598.557739
1733468647.128328, -11.066898, -4.077026, -0.638803, -0.632355, -1.553963, 3.718240, -67.644669, -75.743011, -598.264221
1733468647.138337, -11.704653, -3.644125, -0.795025, -0.543943, -1.656346, 3.698174, -68.248184, -74.411301, -597.958374
1733468647.148343, -13.058874, -3.723133, -1.376217, -0.472137, -1.696140, 3.667302, -69.083023, -73.226913, -597.432861
1733468647.158328, -14.484022, -4.371363, -2.204461, -0.367617, -1.605641, 3.607655, -69.838333, -72.050674, -597.335754
1733468647.168331, -15.778387, -5.397578, -2.918681, -0.239975, -1.390388, 3.501805, -70.256805, -70.748260, -596.785156
1733468647.178337, -16.806697, -6.368277, -3.296217, -0.132774, -1.091728, 3.356552, -71.151367, -69.522583, -596.373962
1733468647.187538, -17.907581, -6.870910, -3.021482, -0.101452, -0.807335, 3.161738, -71.839493, -68.290970, -596.099182
1733468647.198334, -18.995297, -7.143250, -2.509273, -0.147235, -0.645183, 2.915230, -72.432144, -67.316895, -595.471191
1733468647.208391, -20.338294, -7.616853, -2.218228, -0.198013, -0.660975, 2.601601, -72.774261, -66.411133, -595.909607
1733468647.218329, -21.907544, -8.291120, -2.537106, -0.184754, -0.728989, 2.174458, -72.912170, -65.689835, -595.484009
1733468647.228329, -23.079505, -8.819940, -3.116502, -0.087807, -0.751346, 1.694233, -73.240814, -65.044388, -595.439270
1733468647.238324, -23.681198, -9.189096, -3.577536, 0.030244, -0.620815, 1.238863, -72.763107, -64.737930, -595.296814
1733468647.248324, -23.876775, -9.391855, -3.513641, 0.064536, -0.399949, 0.818460, -73.110916, -64.333130, -595.140259
1733468647.258396, -23.790134, -9.348011, -3.244443, 0.015731, -0.191172, 0.439311, -73.066513, -64.188965, -594.896301
1733468647.268326, -23.622690, -9.393501, -3.382259, -0.027412, 0.011682, 0.077448, -73.024384, -64.400314, -595.259521
1733468647.278331, -23.272987, -9.460987, -3.649661, 0.022337, 0.225764, -0.279938, -73.352417, -64.230682, -594.819153
1733468647.288331, -22.765416, -9.331551, -3.350536, 0.131587, 0.336350, -0.633392, -73.385818, -64.702988, -595.355591
1733468647.298325, -22.179585, -9.071630, -3.020585, 0.225633, 0.393150, -0.970625, -73.056412, -65.164780, -594.939209
1733468647.308333, -21.588666, -8.710255, -2.743456, 0.283549, 0.493829, -1.283874, -72.864487, -65.699539, -595.758179
1733468647.318325, -20.862325, -8.429685, -2.383877, 0.299378, 0.640942, -1.585455, -72.716431, -66.180923, -595.722412
1733468647.328323, -20.021362, -8.330475, -2.129193, 0.294133, 0.829021, -1.872469, -72.518066, -66.950729, -596.111633
1733468647.338330, -19.009662, -8.096292, -1.800739, 0.289183, 1.047327, -2.142204, -72.279984, -68.013153, -596.195007
1733468647.348322, -17.966239, -7.498640, -1.281646, 0.280689, 1.229833, -2.379381, -71.860550, -68.820969, -596.671387
1733468647.358333, -16.729634, -7.028927, -0.827496, 0.275343, 1.371658, -2.589226, -71.746796, -69.888474, -597.043030
1733468647.368323, -15.385140, -6.550236, -0.323666, 0.255096, 1.457532, -2.753453, -71.270279, -71.016983, -597.514038
1733468647.378332, -14.209736, -6.022165, -0.008978, 0.218033, 1.534417, -2.877518, -70.562988, -72.017624, -598.260437
1733468647.388334, -13.166613, -5.725284, 0.072724, 0.174299, 1.663309, -2.969267, -70.013840, -73.054459, -598.184753
1733468647.398330, -12.091766, -5.621735, 0.153977, 0.129178, 1.799600, -3.032060, -69.231674, -74.287338, -598.555054
1733468647.408372, -11.089194, -5.428403, 0.264110, 0.105959, 1.909891, -3.081379, -68.808960, -75.344391, -599.467651
1733468647.418331, -10.280552, -5.137059, 0.365864, 0.109179, 1.989883, -3.123427, -68.051102, -76.318115, -600.177612
1733468647.428322, -9.605687, -4.930110, 0.479140, 0.138908, 2.016691, -3.172781, -67.180283, -77.451538, -600.944458
1733468647.438323, -8.944139, -4.764312, 0.524181, 0.191527, 2.013209, -3.236369, -66.494797, -78.407684, -601.102173
1733468647.448318, -8.339154, -4.673332, 0.528520, 0.254047, 1.974565, -3.316901, -65.623856, -79.445053, -601.482910
1733468647.458361, -7.729082, -4.451270, 0.554258, 0.327900, 1.945947, -3.412745, -64.563766, -80.369629, -602.197144
1733468647.468319, -7.129484, -3.967043, 0.814477, 0.386163, 1.908249, -3.514394, -63.243423, -81.291351, -602.472534
1733468647.478342, -6.433220, -3.603872, 1.061978, 0.413800, 1.851925, -3.607162, -62.120621, -82.324905, -602.847534
1733468647.488328, -5.747880, -3.455432, 1.145177, 0.419524, 1.825690, -3.684880, -60.940506, -83.137939, -602.871704
1733468647.498329, -5.071069, -3.221099, 1.367688, 0.415989, 1.783985, -3.753679, -59.465332, -84.107590, -602.627747
1733468647.508327, -4.409970, -3.028216, 1.583764, 0.397595, 1.702747, -3.815590, -58.449249, -84.933243, -603.647339
1733468647.518326, -3.718195, -3.047669, 1.522413, 0.392912, 1.612157, -3.873752, -56.564697, -85.491089, -603.524841
1733468647.528332, -3.104082, -3.047669, 1.370381, 0.410185, 1.564691, -3.916174, -55.029465, -86.356369, -603.739136
1733468647.538316, -2.479794, -2.984223, 1.464354, 0.448438, 1.545906, -3.944997, -53.636688, -86.724289, -603.580811
1733468647.548327, -1.868525, -2.767697, 1.964143, 0.470373, 1.499435, -3.966427, -51.839767, -87.222855, -603.319824
1733468647.558330, -1.284340, -2.597709, 2.458097, 0.433145, 1.436698, -3.980719, -51.839767, -87.222855, -603.319824
1733468647.568341, -0.802806, -2.426972, 2.748544, 0.309396, 1.397861, -3.980058, -50.174606, -87.886719, -603.478394
1733468647.578320, -0.365565, -2.333299, 2.752584, 0.142782, 1.386883, -3.964470, -48.262146, -88.261200, -603.702942
1733468647.588328, 0.037858, -2.239027, 2.502988, -0.012790, 1.406917, -3.937115, -46.716431, -88.518890, -603.799316
1733468647.598324, 0.434398, -2.167351, 2.080861, -0.119950, 1.450240, -3.911731, -44.837601, -88.748596, -603.973267
1733468647.608332, 0.983269, -2.394351, 1.429338, -0.159030, 1.534129, -3.889949, -43.313568, -89.004395, -603.607300
1733468647.618317, 1.516876, -2.580650, 1.009755, -0.124632, 1.634889, -3.868209, -42.012802, -89.129364, -604.215332
1733468647.628363, 1.996166, -2.289156, 1.123030, -0.035774, 1.692550, -3.851142, -40.191086, -89.323059, -604.577209
1733468647.638311, 2.521843, -1.876904, 1.578677, 0.049186, 1.632459, -3.832240, -38.310471, -89.077148, -604.382996
1733468647.647937, 3.089867, -1.502661, 1.743278, 0.101818, 1.533736, -3.788523, -36.436630, -89.011215, -604.437744
1733468647.658320, 3.551499, -0.997035, 1.629254, 0.118073, 1.503127, -3.706228, -34.978210, -88.636307, -603.738586
1733468647.668370, 4.008791, -0.801758, 1.415572, 0.097335, 1.552681, -3.630099, -33.777863, -88.464920, -603.738220
1733468647.678323, 4.690391, -1.068113, 0.954389, 0.054922, 1.684746, -3.581639, -32.723053, -87.999374, -603.598450
1733468647.688314, 5.670667, -1.232415, 0.641347, 0.032265, 1.858823, -3.548353, -31.280563, -87.720505, -603.437256
1733468647.698317, 6.785317, -1.056890, 0.712724, 0.041135, 1.965833, -3.505355, -29.873032, -87.573212, -603.422119
1733468647.708321, 7.977330, -0.635810, 0.923414, 0.087085, 1.982299, -3.424271, -28.596588, -87.182709, -602.234375
1733468647.718331, 9.292346, -0.265158, 1.105373, 0.115478, 1.983043, -3.294305, -27.885406, -86.481812, -602.950806
1733468647.727354, 10.517429, -0.346710, 1.301847, 0.110443, 1.988189, -3.159051, -26.920380, -86.029053, -602.570312
1733468647.738305, 11.868207, -0.601094, 1.624765, 0.109746, 1.975734, -3.046523, -26.165451, -85.584335, -602.233154
1733468647.748317, 13.542054, -0.349703, 2.140117, 0.125481, 1.870861, -2.902377, -25.299271, -85.163223, -602.327026
1733468647.758314, 15.187020, -0.443675, 2.578256, 0.174197, 1.669818, -2.754688, -25.030899, -84.558411, -601.670288
1733468647.768317, 17.057190, -0.619649, 2.865111, 0.227208, 1.389277, -2.611274, -24.271439, -84.034149, -601.596130
1733468647.778312, 18.905813, -0.310797, 3.032256, 0.328097, 1.042938, -2.380015, -23.604935, -83.515198, -601.057861
1733468647.788326, 20.254347, -0.161010, 2.987814, 0.457295, 0.793218, -2.082657, -23.067734, -82.973373, -600.381714
1733468647.798323, 21.273978, -0.171036, 3.272275, 0.520379, 0.714752, -1.752764, -22.535233, -82.595490, -600.218079
1733468647.808325, 22.052991, -0.052822, 3.994127, 0.476650, 0.735316, -1.382868, -22.072083, -82.330994, -599.405518
1733468647.818343, 22.547095, -0.070030, 4.586991, 0.358105, 0.813529, -0.998467, -21.955582, -81.906677, -599.723328
1733468647.828313, 22.830060, -0.148740, 4.775834, 0.259547, 0.939350, -0.605173, -22.168137, -81.959274, -600.010925
1733468647.838316, 23.011869, -0.462380, 5.251232, 0.231436, 0.991400, -0.251849, -22.357452, -81.839371, -599.684326
1733468647.848318, 23.113922, -0.752827, 6.039374, 0.251384, 0.859756, 0.049281, -22.536942, -81.909958, -599.079834
1733468647.858310, 23.113473, -0.842759, 7.032219, 0.291784, 0.539466, 0.327587, -22.707703, -81.941055, -598.791870
1733468647.868311, 22.714689, -1.056591, 7.836970, 0.293400, 0.118454, 0.577289, -22.996338, -82.042084, -598.850464
1733468647.878314, 21.884649, -1.495628, 8.158990, 0.237740, -0.276758, 0.778964, -22.944397, -82.042496, -598.909912
1733468647.888374, 20.917242, -1.877802, 8.323442, 0.133073, -0.606162, 0.942785, -22.851974, -82.274933, -599.003113
1733468647.898313, 19.926791, -1.948132, 8.295161, -0.011633, -0.887684, 1.106250, -22.980743, -82.249680, -598.992737
1733468647.908333, 18.829648, -1.872116, 7.786692, -0.177582, -1.073606, 1.295015, -23.232666, -82.629776, -598.485901
1733468647.918311, 17.732655, -1.829619, 6.973262, -0.348665, -1.146485, 1.510899, -23.268799, -82.896042, -599.680725
1733468647.928329, 16.624289, -1.804480, 6.074239, -0.488326, -1.157075, 1.738281, -23.631927, -83.277115, -600.026611
1733468647.938333, 15.491831, -1.746869, 5.262755, -0.577134, -1.143205, 1.966195, -24.123978, -83.785675, -600.338867
1733468647.948324, 14.297873, -1.764826, 4.566640, -0.621651, -1.152608, 2.184588, -24.384552, -84.229538, -601.055420
1733468647.958329, 13.087454, -1.944690, 4.015974, -0.626001, -1.198014, 2.369187, -25.121994, -84.888870, -601.351440
1733468647.968320, 11.840524, -2.095076, 3.641581, -0.617576, -1.284341, 2.508137, -26.168976, -85.227097, -601.500427
1733468647.978321, 10.606912, -2.387019, 3.295020, -0.595496, -1.397681, 2.587669, -26.796875, -85.800568, -602.018738
1733468647.988325, 9.481637, -2.700659, 3.019836, -0.563462, -1.542859, 2.614637, -27.619720, -86.201172, -602.712219
1733468647.998312, 8.480562, -2.951751, 2.783110, -0.531060, -1.718730, 2.598588, -28.433624, -86.812729, -603.382263
1733468648.008304, 7.579294, -3.090765, 2.421735, -0.504004, -1.888276, 2.555900, -29.199463, -87.174667, -602.722778
1733468648.018297, 6.834847, -3.182642, 1.891719, -0.467631, -2.017627, 2.507752, -29.816528, -87.532883, -603.852356
1733468648.028357, 6.231808, -3.123236, 1.316512, -0.414467, -2.106577, 2.479484, -30.604233, -87.859238, -604.101868
1733468648.038301, 5.768829, -3.135506, 0.735020, -0.331221, -2.167310, 2.462918, -31.469254, -88.139099, -604.611084
1733468648.048298, 5.363012, -3.133411, 0.224756, -0.215448, -2.213551, 2.468079, -32.295303, -88.356262, -604.998962
1733468648.058308, 4.962432, -3.146729, -0.183605, -0.069201, -2.211053, 2.484663, -32.929962, -88.597214, -604.988037
1733468648.068354, 4.685453, -3.150620, -0.329053, 0.068175, -2.192734, 2.514756, -33.817291, -89.020538, -605.084717
1733468648.078327, 4.380192, -3.073856, -0.341174, 0.186220, -2.174256, 2.568659, -34.659851, -89.071396, -604.907898
1733468648.087534, 4.020463, -3.018939, -0.210540, 0.269574, -2.154224, 2.638692, -35.766373, -89.104141, -605.156372
1733468648.098333, 3.592799, -3.010260, 0.042946, 0.311255, -2.145617, 2.722932, -36.697296, -89.262146, -604.475037
1733468648.108294, 3.069217, -3.114856, 0.219219, 0.293776, -2.127815, 2.799430, -37.860336, -89.330673, -604.265564
1733468648.118326, 2.460641, -3.355324, 0.258873, 0.213150, -2.115275, 2.849824, -39.239288, -89.289917, -604.666748
1733468648.127910, 1.917456, -3.592200, 0.035165, 0.118389, -2.077771, 2.875542, -40.250198, -89.377258, -604.875366
1733468648.138304, 1.460313, -3.648763, -0.338331, 0.149678, -2.026816, 2.934624, -41.452942, -89.277344, -604.594971
1733468648.148310, 1.070657, -3.629460, -0.683245, 0.239760, -2.032798, 2.952165, -42.719910, -89.196808, -604.669678
1733468648.158306, 0.822109, -3.812018, -0.775572, 0.320082, -2.100277, 2.962925, -43.858978, -89.010406, -604.447144
1733468648.168302, 0.574908, -4.048146, -0.704643, 0.416425, -2.171249, 3.012396, -44.960785, -88.981094, -604.474609
1733468648.178304, 0.303615, -4.014029, -0.779163, 0.536376, -2.143350, 3.089521, -46.092484, -88.492569, -603.599426
1733468648.188301, -0.123301, -3.926491, -0.956484, 0.641324, -2.054197, 3.177116, -47.369156, -88.173187, -603.542603
1733468648.198302, -0.671574, -3.906290, -0.679953, 0.709774, -2.048180, 3.258383, -48.326477, -87.747772, -602.674438
1733468648.208307, -1.357213, -3.935768, 0.055366, 0.776144, -2.071531, 3.347863, -49.534790, -87.258362, -601.341187
1733468648.218308, -2.098967, -4.040963, 0.461333, 0.845475, -2.038959, 3.454353, -50.713516, -86.529343, -601.217529
1733468648.228302, -2.829049, -4.176685, 0.707038, 0.878903, -1.950390, 3.573314, -51.888199, -86.004288, -600.781311
1733468648.238304, -3.476830, -4.309413, 1.056890, 0.847272, -1.778160, 3.700140, -53.203400, -85.231796, -599.971497
1733468648.248300, -4.076128, -4.504990, 1.503409, 0.700031, -1.635876, 3.779113, -54.662567, -84.462357, -599.213623
1733468648.258308, -4.823419, -4.872350, 2.300080, 0.469223, -1.575634, 3.775630, -56.034241, -83.822220, -598.820740
1733468648.268307, -5.736806, -5.392341, 2.963872, 0.252183, -1.503310, 3.752211, -57.282410, -82.850769, -598.401245
1733468648.278306, -6.518513, -6.074389, 2.878728, 0.081245, -1.379199, 3.736404, -58.725464, -81.980972, -598.127197
1733468648.288305, -7.522582, -6.292112, 2.788347, -0.130900, -1.270456, 3.701377, -59.594284, -81.092575, -597.724243
1733468648.298298, -8.636484, -6.433669, 2.928109, -0.407138, -1.204384, 3.686500, -60.720291, -80.177429, -597.201599
1733468648.308303, -9.555408, -6.441450, 2.718466, -0.687122, -1.067238, 3.663075, -61.729279, -79.244293, -597.349915
1733468648.318298, -10.474034, -6.608146, 1.798494, -0.904384, -0.946617, 3.576032, -63.045425, -78.408966, -597.555969
1733468648.328297, -11.872098, -6.933458, 0.766893, -0.990418, -0.894630, 3.390856, -64.204590, -77.593246, -597.882080
1733468648.338297, -13.129203, -7.813627, -0.415993, -0.912675, -0.934023, 3.135567, -65.083054, -76.825089, -597.865417
1733468648.348296, -14.147487, -8.607155, -1.678335, -0.685101, -0.956973, 2.882333, -66.049774, -76.029190, -597.638672
1733468648.357361, -15.033641, -9.141960, -2.812588, -0.441355, -0.905387, 2.649627, -66.455368, -75.117996, -597.862793
1733468648.368319, -15.720777, -9.272144, -3.427449, -0.277704, -0.807098, 2.443563, -66.973923, -74.434189, -597.801147
1733468648.378307, -16.459089, -9.213935, -3.325396, -0.183368, -0.767947, 2.209581, -67.499603, -73.737244, -597.665039
1733468648.388298, -17.550246, -9.431509, -2.956839, -0.092715, -0.685403, 1.942025, -68.017822, -72.945831, -596.938049
1733468648.398299, -18.509872, -10.000580, -3.203591, 0.025496, -0.568480, 1.665428, -68.100220, -72.480560, -597.264404
1733468648.408304, -19.192369, -10.514436, -3.393930, 0.139410, -0.436867, 1.402905, -68.428024, -71.606262, -596.657104
1733468648.418315, -19.615993, -10.605565, -3.337667, 0.209241, -0.211343, 1.169897, -68.799072, -71.422684, -597.000244
1733468648.428310, -19.966744, -10.464008, -3.227683, 0.179709, 0.107992, 0.922995, -69.146622, -70.957047, -596.651611
1733468648.438315, -20.322133, -10.417471, -2.882918, 0.055688, 0.385407, 0.657316, -69.480164, -70.638992, -596.434937
1733468648.448303, -20.476110, -10.505757, -2.408417, -0.059990, 0.588566, 0.362547, -69.612823, -70.343460, -596.636292
1733468648.458307, -20.638018, -10.633098, -2.344672, -0.102265, 0.763966, 0.026742, -70.014404, -70.543060, -597.090027
1733468648.468295, -20.815489, -10.694300, -2.594117, -0.080296, 0.914295, -0.348245, -70.215393, -70.718460, -597.194702
1733468648.478305, -20.702512, -10.727221, -2.701108, -0.042292, 1.041225, -0.727803, -70.382339, -70.961395, -597.803162
1733468648.488299, -20.204369, -10.551097, -2.619257, -0.005886, 1.165420, -1.088930, -70.307098, -71.329132, -598.286255
1733468648.498291, -19.391238, -10.208726, -2.498649, 0.029823, 1.298574, -1.408515, -70.280502, -71.837799, -598.614441
1733468648.508294, -18.292299, -9.688436, -2.284817, 0.059521, 1.419276, -1.670051, -69.825485, -72.336365, -598.883057
1733468648.518293, -17.028161, -9.059958, -1.910274, 0.069877, 1.479527, -1.898466, -69.722153, -73.002319, -599.720398
1733468648.528293, -15.862933, -8.560318, -1.436970, 0.065483, 1.508226, -2.092130, -69.388382, -73.891449, -599.887878
1733468648.538339, -14.740950, -8.175600, -1.131709, 0.055903, 1.534287, -2.256980, -68.783081, -74.672729, -600.499634
1733468648.548289, -13.694235, -7.884106, -1.010652, 0.051544, 1.562603, -2.386714, -68.510574, -75.353165, -601.217041
1733468648.558298, -12.681338, -7.617901, -0.991648, 0.056975, 1.616329, -2.493674, -67.780548, -76.394180, -601.923340
1733468648.568307, -11.833491, -7.270592, -1.042824, 0.057133, 1.691988, -2.595667, -67.374954, -77.102921, -602.206238
1733468648.578297, -11.155034, -6.889315, -1.085022, 0.063771, 1.802972, -2.683739, -66.607162, -78.086990, -602.126404
1733468648.588297, -10.436924, -6.556821, -1.217302, 0.083072, 1.959045, -2.763363, -65.891937, -78.967285, -603.119873
1733468648.598294, -9.775226, -6.255001, -1.387739, 0.111970, 2.125303, -2.849502, -65.076874, -79.914749, -603.015869
1733468648.608288, -9.207351, -5.986701, -1.461211, 0.154817, 2.274812, -2.945472, -64.205902, -80.717621, -603.908813
1733468648.618288, -8.634838, -5.707926, -1.410185, 0.227992, 2.348907, -3.039646, -63.289566, -81.606705, -604.858276
1733468648.628340, -7.915231, -5.508908, -1.211466, 0.350549, 2.326762, -3.132702, -62.357574, -82.557220, -605.366516
1733468648.638289, -7.172280, -5.158307, -0.842160, 0.496000, 2.210511, -3.228134, -61.462677, -83.260254, -605.874756
1733468648.648305, -6.551134, -4.722563, -0.352097, 0.631528, 2.006148, -3.329989, -60.282028, -84.063812, -605.764832
1733468648.658292, -5.912631, -4.482544, 0.112827, 0.739342, 1.808855, -3.435527, -58.979630, -84.860153, -606.181030
1733468648.668330, -5.398027, -4.382287, 0.260818, 0.812587, 1.715593, -3.547566, -57.526871, -85.451248, -605.733154
1733468648.678302, -4.913949, -4.359093, 0.078260, 0.858910, 1.736724, -3.654491, -56.222427, -86.040665, -605.997620
1733468648.688288, -4.412065, -4.310012, -0.216675, 0.893752, 1.834669, -3.748581, -54.466537, -86.533646, -605.824219
1733468648.698305, -3.865439, -4.113687, -0.317681, 0.932605, 1.902057, -3.822948, -52.929062, -87.301056, -604.977234
1733468648.708306, -3.282301, -3.708768, 0.017657, 0.967622, 1.913554, -3.884270, -51.241699, -87.728989, -605.661377
1733468648.718347, -2.596362, -3.202095, 0.589871, 0.979115, 1.807100, -3.922863, -49.380081, -88.186493, -605.075867
1733468648.728285, -1.905635, -2.683302, 1.326687, 0.967800, 1.615331, -3.948967, -48.004700, -88.503983, -605.300110
1733468648.738284, -1.230769, -2.377592, 1.829320, 0.961384, 1.438282, -3.975738, -46.162354, -88.836823, -604.902832
1733468648.748284, -0.538995, -2.416498, 1.928978, 0.990501, 1.332625, -3.996533, -44.631958, -88.731659, -604.294189
1733468648.758303, 0.101155, -2.589628, 1.844583, 1.072840, 1.285501, -4.008152, -42.831360, -88.998398, -604.135071
1733468648.768291, 0.858022, -2.695572, 1.858649, 1.214143, 1.234601, -3.973161, -41.053696, -88.972748, -603.491211
1733468648.778288, 1.812261, -2.509722, 2.277933, 1.360205, 1.133281, -3.881370, -39.313736, -88.874405, -602.916626
1733468648.788292, 2.700510, -2.019659, 3.159299, 1.414733, 0.989929, -3.719304, -37.674255, -88.535034, -601.823669
1733468648.798299, 3.523367, -1.398812, 4.412364, 1.262278, 0.776198, -3.510661, -36.180801, -88.240036, -600.338806
1733468648.808292, 4.159626, -0.951246, 5.727529, 0.866270, 0.621172, -3.337132, -34.715775, -87.873825, -600.683899
1733468648.818287, 4.370316, -1.094898, 6.303783, 0.380419, 0.699570, -3.239325, -33.277237, -87.676498, -600.596497
1733468648.828330, 4.452168, -1.848473, 5.603928, -0.057269, 1.038827, -3.232537, -32.523178, -87.321030, -600.460938
1733468648.838292, 4.681861, -2.560599, 4.324826, -0.434592, 1.432687, -3.312041, -31.544250, -87.126694, -600.887024
1733468648.848283, 5.385607, -3.080290, 3.567809, -0.731643, 1.691287, -3.408552, -30.470383, -86.772446, -600.931580
1733468648.858286, 6.468235, -2.801066, 3.340660, -0.919441, 1.701678, -3.501122, -29.530334, -86.547974, -601.452759
1733468648.868286, 7.589769, -2.198176, 3.343952, -1.017372, 1.457011, -3.607115, -28.016602, -86.268127, -601.755188
1733468648.878289, 8.957906, -1.991228, 3.450643, -1.078717, 1.046169, -3.700498, -26.904449, -85.907837, -601.748901
1733468648.888296, 10.227581, -1.521665, 3.220501, -1.138629, 0.660011, -3.735969, -25.309433, -85.496872, -602.414551
1733468648.898285, 11.653777, -0.942268, 2.380585, -1.163576, 0.388680, -3.665581, -23.896500, -85.004013, -602.292603
1733468648.908293, 13.120375, -0.263063, 1.117194, -1.109602, 0.287299, -3.466192, -22.334198, -84.414597, -603.338013
1733468648.918286, 14.513800, 0.578948, -0.216077, -1.005825, 0.280166, -3.141952, -21.077393, -83.900711, -603.825500
1733468648.928283, 15.700426, 1.288529, -1.076044, -0.892934, 0.352415, -2.771979, -20.282028, -83.413239, -604.244995
1733468648.938290, 16.680104, 1.441160, -1.903839, -0.768090, 0.519088, -2.393286, -19.616119, -82.961548, -604.108276
1733468648.948284, 17.296311, 1.317559, -2.783708, -0.607794, 0.781036, -2.070322, -18.912247, -82.627502, -604.014709
1733468648.958283, 17.694946, 0.886453, -3.479374, -0.397763, 1.015028, -1.796539, -18.584290, -82.255493, -604.161987
1733468648.968301, 18.237083, 0.611270, -3.537583, -0.109666, 1.066943, -1.520875, -18.686646, -81.806717, -603.908691
1733468648.978303, 18.975395, 0.731728, -2.766799, 0.161601, 0.898068, -1.266320, -18.368362, -81.630829, -604.251953
1733468648.988288, 19.623775, 0.862661, -1.622969, 0.394916, 0.576336, -1.045992, -18.107437, -81.345718, -603.873657
1733468648.998294, 20.034380, 0.853084, -0.600496, 0.621416, 0.221871, -0.837511, -17.748001, -81.177048, -603.184021
1733468649.008292, 20.259136, 0.808492, 0.114473, 0.824904, -0.065420, -0.646870, -17.783035, -80.885040, -603.316650
1733468649.017471, 20.393211, 0.538097, 0.589123, 0.960123, -0.218354, -0.442192, -17.783035, -80.885040, -603.316650
1733468649.028295, 20.526987, 0.430208, 1.071106, 1.027629, -0.221029, -0.183835, -17.139343, -80.310059, -602.043579
1733468649.038305, 20.812346, 0.501735, 1.567903, 1.008537, -0.132870, 0.127754, -17.139343, -80.310059, -602.043579
1733468649.048293, 20.963779, 0.538097, 2.440589, 0.870386, -0.047515, 0.461770, -17.024719, -80.143906, -601.827148
1733468649.058291, 21.002685, 0.437840, 3.536086, 0.672302, -0.046997, 0.806958, -17.232681, -80.309174, -601.319092
1733468649.068297, 20.993557, 0.390405, 4.378845, 0.505183, -0.126329, 1.154216, -17.524185, -80.525787, -600.992065
1733468649.078285, 20.725856, 0.263512, 4.873397, 0.374052, -0.282782, 1.479994, -18.127869, -80.581131, -601.205017
1733468649.088300, 20.182821, 0.078560, 5.289989, 0.261330, -0.487261, 1.786029, -18.640274, -81.219467, -601.360840
1733468649.098289, 19.363704, -0.214880, 5.457283, 0.168827, -0.675654, 2.071910, -19.041641, -81.543793, -601.317017
1733468649.108279, 18.312500, -0.547973, 5.266495, 0.099324, -0.805175, 2.323689, -19.775497, -82.073959, -600.799500
1733468649.118287, 17.124078, -0.885705, 4.934300, 0.032982, -0.881202, 2.545356, -20.275726, -82.520111, -601.274353
1733468649.128273, 16.005088, -1.152060, 4.582502, -0.025786, -0.941407, 2.752646, -20.958435, -83.068848, -601.317627
1733468649.138277, 14.920814, -1.319654, 4.273051, -0.081314, -0.982331, 2.942380, -21.906509, -83.823502, -601.836548
1733468649.148288, 13.810952, -1.452831, 4.002956, -0.142091, -1.021414, 3.114883, -22.836105, -84.253296, -601.953003
1733468649.158288, 12.696900, -1.498172, 3.784335, -0.212784, -1.085596, 3.259774, -23.985886, -84.815186, -602.181763
1733468649.168333, 11.612028, -1.639878, 3.598635, -0.282201, -1.171548, 3.367490, -24.839539, -85.608047, -602.719055
1733468649.178278, 10.576236, -1.792808, 3.333327, -0.325281, -1.284615, 3.453904, -26.141388, -86.039093, -602.907837
1733468649.188277, 9.546430, -1.819893, 3.042881, -0.332956, -1.395953, 3.531393, -27.384735, -86.689041, -602.985352
1733468649.198328, 8.516026, -1.826776, 2.663100, -0.299268, -1.493816, 3.610253, -28.618042, -87.444931, -603.511353
1733468649.207767, 7.633164, -1.740585, 2.226608, -0.231976, -1.552983, 3.711257, -30.122101, -87.812088, -602.728638
1733468649.218280, 6.817340, -1.649006, 1.822586, -0.151143, -1.549101, 3.827726, -31.522018, -88.178802, -603.650269
1733468649.228276, 6.031593, -1.620875, 1.452981, -0.088782, -1.498978, 3.940708, -32.674057, -88.688278, -603.834106
1733468649.238334, 5.214721, -1.651101, 1.271171, -0.057756, -1.421645, 4.039451, -34.422806, -88.842606, -604.193787
1733468649.248277, 4.370914, -1.635090, 1.206378, -0.064090, -1.310433, 4.119040, -36.075699, -89.052521, -604.294556
1733468649.258274, 3.518878, -1.645415, 1.112556, -0.111676, -1.235357, 4.169802, -38.275742, -89.170670, -604.565796
1733468649.268278, 2.672977, -1.833958, 1.221043, -0.200725, -1.249229, 4.185472, -39.764465, -89.169846, -604.827881
1733468649.277472, 1.806425, -2.001403, 1.311424, -0.277980, -1.270996, 4.172322, -41.977890, -89.158691, -604.646118
1733468649.288334, 1.027861, -2.248604, 0.883011, -0.297424, -1.204953, 4.145751, -43.811508, -89.122147, -604.643188
1733468649.298287, 0.442778, -2.723105, 0.206949, -0.298704, -1.071002, 4.107743, -45.647018, -88.998184, -604.879211
1733468649.308289, -0.114922, -2.980183, -0.035464, -0.323560, -0.970171, 4.082943, -47.587051, -88.694687, -604.448120
1733468649.318285, -0.459836, -2.948310, 0.167744, -0.367971, -0.969840, 4.054282, -49.388336, -88.419662, -604.905579
1733468649.328286, -0.698209, -2.978836, 0.535852, -0.412123, -1.079714, 4.021436, -51.313019, -87.887115, -604.827698
1733468649.338287, -0.880617, -3.072659, 0.825102, -0.445450, -1.248356, 3.987852, -53.005569, -87.542770, -605.209351
1733468649.348286, -1.295413, -2.857480, 0.987159, -0.458863, -1.420220, 3.951155, -54.461594, -86.848969, -605.413269
1733468649.358317, -1.998709, -2.878279, 0.583736, -0.456700, -1.568004, 3.927753, -56.410995, -86.226013, -605.084351
1733468649.368286, -1.998709, -2.878279, 0.583736, -0.446437, -1.681161, 3.947395, -57.794342, -85.617477, -605.029236
1733468649.378282, -3.058443, -2.217180, -0.129586, -0.407720, -1.685568, 4.021986, -59.124756, -84.685959, -604.852783
1733468649.388294, -3.844040, -2.025195, -0.414496, -0.337299, -1.588799, 4.124674, -60.533630, -83.768738, -604.375000
1733468649.398282, -4.589834, -2.104803, -0.487220, -0.289690, -1.440601, 4.224683, -62.350800, -82.771378, -604.109192
1733468649.408280, -5.210681, -2.067992, -0.473154, -0.295687, -1.275974, 4.330296, -63.811371, -81.678329, -603.304260
1733468649.418293, -5.818808, -1.909974, -0.485574, -0.355471, -1.061697, 4.441057, -65.100510, -80.312027, -603.664062
1733468649.428291, -6.507290, -1.846528, -0.304662, -0.496712, -0.879731, 4.539542, -66.763367, -78.964706, -603.584045
1733468649.438269, -7.536498, -1.483956, -0.175824, -0.696570, -0.795993, 4.634018, -68.261887, -77.557236, -603.866150
1733468649.448275, -9.146599, -1.549198, -0.363170, -0.881325, -0.845163, 4.641734, -70.123596, -75.961990, -603.788696
1733468649.458281, -10.867431, -2.095675, -1.070807, -0.960910, -0.991329, 4.508456, -71.309677, -74.615128, -603.955566
1733468649.468275, -12.308890, -2.591723, -2.117671, -0.901767, -1.175484, 4.287921, -72.542557, -73.109589, -604.285156
1733468649.478279, -13.447183, -3.013701, -3.193566, -0.717700, -1.328510, 4.057830, -73.521347, -71.612732, -603.396118
1733468649.488268, -14.422072, -3.399467, -4.159177, -0.475724, -1.364127, 3.857698, -74.249573, -70.103180, -603.010254
1733468649.498277, -15.402049, -3.723283, -4.620510, -0.258910, -1.265070, 3.666143, -75.072372, -68.507950, -602.924805
1733468649.508270, -16.365266, -4.079869, -4.535516, -0.129362, -1.103335, 3.457087, -75.504181, -67.192413, -601.431274
1733468649.518282, -17.447745, -4.480898, -4.222025, -0.063401, -0.994938, 3.218737, -76.452011, -65.756958, -601.915039
1733468649.528287, -18.615217, -4.933851, -4.053084, -0.010757, -0.922263, 2.950060, -76.918198, -64.629395, -601.750000
1733468649.538293, -19.587263, -5.546019, -3.932027, 0.046879, -0.863369, 2.651074, -77.108185, -63.324051, -601.310303
1733468649.548280, -20.326772, -6.260987, -3.782988, 0.070086, -0.799388, 2.318928, -77.672882, -62.140503, -600.570984
1733468649.558280, -20.809952, -6.770503, -3.774010, 0.040299, -0.665157, 1.975798, -77.575027, -61.196838, -600.650574
1733468649.568283, -21.125687, -6.947674, -3.575142, -0.042641, -0.464952, 1.666146, -77.884109, -60.390549, -600.542114
1733468649.578271, -21.561731, -7.015011, -3.202694, -0.178522, -0.336443, 1.354851, -77.938492, -59.953781, -600.235107
1733468649.588278, -21.917719, -7.311443, -3.369240, -0.306161, -0.278862, 1.007046, -78.068542, -59.434082, -599.718140
1733468649.598284, -22.046108, -7.593360, -4.103662, -0.354868, -0.226249, 0.628976, -78.328171, -59.194992, -599.841858
1733468649.608275, -21.912482, -7.820360, -4.939088, -0.310800, -0.151980, 0.255259, -78.177658, -59.144531, -599.487488
1733468649.618277, -21.550209, -7.888745, -5.545570, -0.193490, -0.028477, -0.100155, -78.221542, -59.172363, -600.193481
1733468649.628268, -20.899136, -7.705888, -5.794866, -0.038255, 0.127837, -0.407074, -78.341766, -59.371460, -600.057861
1733468649.638268, -20.063410, -7.379977, -5.617396, 0.113479, 0.283680, -0.649167, -78.181778, -59.780411, -600.244629
1733468649.648270, -19.319412, -7.013215, -5.117307, 0.243371, 0.402513, -0.849331, -78.193527, -59.976227, -600.323730
1733468649.658275, -18.793136, -6.665607, -4.579809, 0.338427, 0.512870, -1.037467, -78.024658, -60.403030, -600.528015
1733468649.668303, -18.263718, -6.545747, -4.200178, 0.395113, 0.637660, -1.226621, -78.349838, -61.011581, -601.097534
1733468649.678265, -17.594988, -6.531232, -3.831022, 0.432742, 0.771721, -1.411986, -78.079910, -61.454285, -601.264404
1733468649.688268, -16.830639, -6.460155, -3.366098, 0.452092, 0.908214, -1.592908, -77.694977, -62.168228, -601.664124
1733468649.698266, -16.065692, -6.247071, -2.831892, 0.446458, 1.002647, -1.749194, -77.856689, -62.867111, -601.849182
1733468649.708277, -15.323190, -6.113145, -2.476502, 0.418063, 1.087455, -1.903332, -77.517044, -63.901337, -601.335144
1733468649.718268, -14.652514, -5.915623, -2.202217, 0.367598, 1.176352, -2.060636, -77.307785, -64.708725, -602.548096
1733468649.728263, -13.943232, -5.576545, -2.023549, 0.310439, 1.253719, -2.207232, -76.763519, -65.713699, -603.050537
