SamplingTime, AccelerationX, AccelerationY, AccelerationZ, GyroX, GyroY, GyroZ, MagneticFieldX, MagneticFieldY, MagneticFieldZ
1733468604.633211, 2.190395, -8.293515, -4.854992, -0.465955, 0.502280, -0.386835, -34.991562, -61.526398, -662.660461
1733468604.643208, 2.096872, -8.547300, -3.979014, -0.619379, 0.583065, -0.407235, -34.557190, -61.179092, -662.493530
1733468604.653220, 2.077718, -8.708909, -3.787777, -0.767566, 0.774393, -0.440332, -34.011276, -60.666443, -662.772705
1733468604.663239, 1.910573, -8.741081, -3.906589, -0.892570, 0.976233, -0.453667, -33.620071, -60.345047, -662.081116
1733468604.673234, 1.986589, -8.202535, -4.041562, -0.931373, 1.042052, -0.505559, -32.984985, -59.973633, -663.395935
1733468604.683243, 2.641104, -7.966556, -4.246117, -0.980797, 0.986888, -0.552040, -32.437607, -59.302322, -663.204102
1733468604.693236, 3.365499, -8.233959, -4.806958, -1.160657, 1.436001, -0.438761, -31.595505, -58.793015, -662.670654
1733468604.703233, 3.784485, -8.546402, -6.643012, -1.252224, 2.249780, -0.333204, -30.878586, -58.268219, -664.071472
1733468604.713231, 3.526509, -8.770559, -7.872734, -1.039328, 2.495000, -0.419082, -29.956421, -57.990356, -663.170593
1733468604.723247, 3.237858, -8.883087, -7.002441, -0.527280, 1.913392, -0.654296, -28.895416, -57.736481, -663.787659
1733468604.733208, 3.037194, -8.743026, -5.862352, 0.140055, 0.950250, -0.949164, -28.639908, -57.678391, -663.435852
1733468604.743215, 2.637063, -8.382998, -5.316923, 0.651458, -0.081973, -1.309998, -28.011459, -57.720596, -662.927246
1733468604.753212, 2.328361, -8.514829, -4.670788, 0.847109, -1.077331, -1.653417, -28.280701, -57.828812, -663.376404
1733468604.763202, 1.793257, -9.222914, -4.913500, 0.843377, -1.426397, -2.087723, -28.389267, -57.991013, -662.660767
1733468604.773231, 1.909525, -8.633342, -6.174796, 0.721966, -1.152727, -2.386088, -27.907242, -57.833817, -663.262695
1733468604.783222, 2.949208, -8.026262, -6.981193, 0.624494, -0.700258, -2.497624, -27.956268, -57.932587, -662.898193
1733468604.793223, 4.329764, -7.596802, -7.243507, 0.652750, -0.383742, -2.432029, -27.209793, -57.996643, -662.098511
1733468604.802420, 4.329764, -7.596802, -7.243507, 0.690221, -0.054354, -2.107442, -26.493668, -57.670410, -662.572998
1733468604.813220, 6.249914, -5.260959, -5.296124, 0.244945, 0.137118, -1.494819, -26.218597, -57.855148, -661.864746
1733468604.823202, 7.085789, -5.100398, -5.047725, -0.131388, 0.243007, -0.815933, -26.055527, -57.816818, -662.582031
1733468604.833216, 7.104345, -4.396203, -5.102044, -0.320479, 0.530935, -0.193816, -26.309738, -57.745804, -662.792419
1733468604.843218, 7.441179, -5.497536, -4.342783, -0.472078, 0.313211, 0.258583, -26.483322, -57.457199, -662.985596
1733468604.853249, 7.363517, -6.620117, -3.953575, -0.544427, -0.452585, 0.495796, -27.816803, -57.550491, -663.414368
1733468604.863224, 6.053589, -6.873454, -3.936965, -0.509714, -1.350494, 0.360640, -28.733932, -57.264297, -663.704895
1733468604.873227, 4.655375, -7.309498, -4.430620, -0.350809, -2.307079, -0.004063, -29.676025, -57.263809, -664.375732
1733468604.883214, 3.621380, -7.842656, -5.898265, -0.030229, -3.074088, -0.418188, -31.084808, -57.280273, -664.073120
1733468604.893210, 3.153014, -8.171560, -7.292439, 0.421628, -3.641630, -0.909344, -32.414825, -57.683029, -663.837158
1733468604.903226, 3.249231, -8.323741, -8.257153, 1.002010, -4.178153, -1.358091, -34.051178, -57.883865, -664.490234
1733468604.913216, 3.344849, -7.977330, -9.212289, 1.637665, -4.621185, -1.716091, -35.067383, -58.495132, -663.582764
1733468604.923214, 3.519925, -7.330746, -8.421305, 1.897969, -5.207595, -1.858984, -36.824677, -59.023712, -663.322632
1733468604.933205, 2.040309, -6.639121, -6.802077, 1.546379, -6.081650, -1.861859, -39.572495, -59.996948, -663.721619
1733468604.943230, 0.111779, -6.096535, -9.097667, 1.630790, -6.282501, -2.026369, -42.012451, -60.715591, -662.706726
1733468604.953221, 0.723199, -5.895871, -10.059538, 1.760339, -5.630005, -2.297374, -44.330750, -61.259750, -662.847961
1733468604.963209, 1.457620, -6.357204, -9.714922, 1.481633, -4.628732, -2.617852, -45.772202, -62.266632, -661.428284
1733468604.973219, 2.003947, -6.434267, -11.656769, 1.094336, -3.042179, -2.907462, -45.560928, -62.973160, -661.094604
1733468604.983205, 3.317316, -6.002712, -12.346299, 1.045199, -1.659784, -2.924452, -45.504196, -63.362961, -661.275452
1733468604.993214, 4.458752, -5.518635, -12.368147, 1.187529, -0.639387, -2.741416, -44.928894, -64.287720, -660.607910
1733468605.003245, 5.406706, -4.654328, -12.096255, 1.219098, 0.134185, -2.401145, -44.482040, -64.886978, -660.572449
1733468605.013204, 6.273557, -5.162198, -10.859650, 1.154624, 0.430197, -2.118583, -43.878571, -65.673706, -660.211670
1733468605.023206, 6.869413, -4.745158, -9.059958, 0.979524, 0.239605, -1.880848, -43.011780, -66.231171, -659.780823
1733468605.033205, 6.965930, -3.412934, -8.846126, 0.799503, 0.145786, -1.534845, -42.637436, -66.625763, -660.132263
1733468605.043211, 7.035511, -2.868553, -8.865878, 0.748176, -0.005655, -1.112955, -42.716827, -67.216034, -659.101562
1733468605.053234, 7.365761, -3.435979, -9.102755, 0.830732, -0.330710, -0.737765, -42.710648, -67.316071, -659.592712
1733468605.063206, 9.046641, -4.826711, -10.065074, 0.904577, -0.678445, -0.255528, -43.367661, -68.018204, -658.602966
1733468605.073227, 8.676736, -4.839879, -10.553491, 1.407883, -1.466783, 0.183708, -44.160202, -68.606720, -658.026367
1733468605.083215, 6.358551, -3.743484, -12.589760, 1.634352, -1.421962, 0.289427, -44.266968, -68.968185, -658.046021
1733468605.093212, 6.261735, -3.094356, -14.596550, 1.371510, -0.205464, 0.336030, -44.196182, -69.398773, -657.253540
1733468605.103217, 6.682516, -2.999935, -14.627225, 0.902351, 1.198514, 0.513418, -43.792236, -69.890671, -657.348206
1733468605.113220, 7.101950, -2.476802, -13.474268, 0.539660, 2.260942, 0.752199, -43.241516, -70.027542, -656.964722
1733468605.123216, 7.770681, -1.597082, -12.611457, 0.425777, 2.812737, 0.997915, -42.441986, -70.347855, -656.619934
1733468605.133203, 8.323592, -0.755520, -12.429648, 0.525713, 3.179752, 1.243527, -42.044189, -70.835785, -657.662964
1733468605.143265, 8.413225, -1.044770, -8.023269, 0.948132, 2.131478, 1.462268, -42.156464, -71.475113, -656.588684
1733468605.152968, 7.078457, -0.914884, -7.811083, 1.451689, 0.967001, 1.473961, -42.361526, -71.978485, -656.679932
1733468605.163215, 5.277718, -1.750461, -7.858817, 1.891275, -0.057711, 1.263076, -42.525681, -72.731583, -655.569885
1733468605.173209, 3.667917, -2.554015, -9.572766, 2.195513, -0.720028, 0.970950, -42.686996, -73.229324, -653.730103
1733468605.183210, 2.042853, -2.551770, -12.108226, 2.455719, -0.678775, 0.739654, -42.205582, -74.078293, -653.500854
1733468605.193210, 1.908029, -1.414225, -13.502250, 2.768075, -0.133657, 0.749694, -42.556259, -75.136581, -652.003235
1733468605.203210, 3.077896, -1.257554, -12.698397, 3.088411, 0.511466, 1.071284, -43.609192, -76.526154, -651.686035
1733468605.213195, 3.432088, -3.108572, -9.268254, 3.344851, 0.606606, 1.291636, -44.376785, -77.589600, -650.234558
1733468605.223210, 2.921674, -3.864391, -5.420921, 3.513581, 0.180574, 1.164988, -44.874481, -79.003876, -648.276672
1733468605.233212, 1.751957, -4.058770, -3.106028, 3.612648, -0.426155, 0.821916, -45.101685, -79.744980, -647.425415
1733468605.243266, 1.622521, -4.045004, -1.823933, 3.602170, -1.169571, 0.514688, -45.508362, -80.674927, -645.381226
1733468605.252737, 1.624017, -3.766827, -1.852514, 3.530456, -1.782401, 0.320528, -45.813843, -81.770142, -643.306396
1733468605.263203, 0.800561, -3.820697, -2.843264, 3.464763, -2.056011, 0.182029, -46.562698, -82.330811, -642.078186
1733468605.273198, 0.663792, -4.263175, -4.127304, 3.373524, -1.931074, 0.032765, -46.405472, -83.262939, -640.783813
1733468605.283248, 0.618003, -4.553772, -5.631013, 2.773482, -0.648644, 0.019186, -45.942657, -83.857880, -638.983398
1733468605.293205, 0.275483, -4.244770, -3.930232, 2.284351, 0.426642, 0.023276, -45.861084, -84.345169, -638.570801
1733468605.303201, -0.182408, -3.411887, -2.348263, 1.955684, 1.382207, 0.132555, -45.615082, -84.745972, -637.631348
1733468605.313209, 0.326210, -2.826804, -0.329352, 1.830693, 1.830095, 0.371956, -45.577484, -85.105423, -637.212891
1733468605.323193, 1.074099, -2.681805, 0.961871, 1.855942, 1.797519, 0.584395, -46.040039, -85.599915, -635.875610
1733468605.333258, 1.286584, -2.570475, 1.468394, 2.025766, 1.416019, 0.761790, -46.384644, -85.643799, -635.514282
1733468605.343190, 1.392976, -2.529624, 1.493084, 2.250103, 0.874206, 0.847092, -46.772018, -86.050720, -634.487061
1733468605.353204, 0.985813, -2.968062, 1.684770, 2.584343, 0.125389, 0.846371, -47.204254, -86.407410, -633.258362
1733468605.363218, 0.865055, -4.297293, 1.627010, 3.092821, -0.807810, 0.714108, -47.432297, -86.877930, -631.001831
1733468605.373242, 1.176750, -5.259762, 0.767342, 3.704867, -1.535425, 0.606158, -47.747482, -87.258804, -629.318298
1733468605.383194, -0.064344, -5.151574, -0.055964, 4.296241, -1.632589, 0.499445, -48.341675, -87.496704, -627.188293
1733468605.393192, -1.992275, -5.480627, 0.543783, 4.655999, -1.036886, 0.235844, -48.643692, -87.689880, -624.794800
1733468605.403207, -2.903418, -6.265326, 3.051260, 4.585532, -0.211466, -0.212736, -48.117462, -87.948257, -622.729492
1733468605.413213, -2.717868, -6.238541, 5.403264, 4.141768, 0.646092, -0.654657, -47.670670, -88.242569, -620.619507
1733468605.423212, -1.824082, -6.126612, 7.476493, 3.632473, 1.349298, -0.983797, -47.059235, -88.345383, -619.554199
1733468605.433204, -0.160711, -5.519832, 9.862016, 3.269614, 1.555814, -1.134959, -46.620819, -88.552063, -618.643555
1733468605.443205, 1.726369, -5.253028, 11.631331, 3.067568, 1.191225, -1.112945, -46.249725, -88.476547, -617.142395
1733468605.452944, 2.994997, -5.583727, 12.324901, 3.050543, 0.653486, -0.921092, -46.249725, -88.476547, -617.142395
1733468605.463198, 2.930952, -6.225523, 12.716204, 3.052790, 0.436613, -0.704697, -45.514954, -88.319275, -615.769531
1733468605.473196, 2.355296, -6.839486, 14.246547, 2.861426, 0.523318, -0.542810, -45.516006, -88.291901, -614.329834
1733468605.483195, 2.110788, -7.499537, 16.282367, 2.404004, 0.780848, -0.484602, -45.565460, -88.376663, -612.809875
1733468605.493193, 2.245462, -8.782081, 17.547254, 1.748785, 1.177196, -0.615441, -45.705292, -88.091797, -612.667908
1733468605.503028, 3.005621, -9.662848, 18.340183, 1.068203, 1.629164, -0.793456, -45.848404, -88.218948, -612.186523
1733468605.513209, 4.004901, -10.141090, 18.830097, 0.480608, 1.950197, -0.918009, -45.467865, -88.118439, -612.029541
1733468605.523199, 4.849306, -10.136002, 18.849849, 0.063433, 2.058726, -0.965600, -45.124435, -88.380646, -612.205078
1733468605.533202, 5.733664, -9.768343, 19.399169, -0.137741, 1.887964, -0.926267, -44.784943, -88.392990, -612.462158
1733468605.543204, 7.222109, -9.262717, 21.481825, -0.224310, 1.117609, -0.733402, -44.276031, -88.488953, -612.025391
1733468605.553202, 7.780856, -8.944737, 22.481853, -0.429821, 0.132100, -0.439615, -44.221939, -88.246582, -612.469421
1733468605.563207, 6.881534, -9.191639, 21.243452, -0.795759, -0.376455, -0.168500, -43.766708, -88.313477, -612.734558
1733468605.573195, 5.665280, -9.806500, 19.651308, -1.282044, -0.301887, -0.040647, -43.903488, -88.383163, -613.727783
1733468605.583191, 5.030367, -10.571448, 18.559402, -1.779827, 0.004953, -0.099330, -44.271866, -88.708084, -614.374207
1733468605.593190, 5.233725, -10.544363, 18.171691, -2.109004, 0.110863, -0.232489, -44.257477, -88.755676, -615.375427
1733468605.603201, 5.676802, -9.768343, 18.230948, -2.275647, -0.141639, -0.318458, -43.994293, -88.763138, -616.393188
1733468605.613194, 5.872827, -9.064148, 18.153585, -2.414151, -0.629851, -0.355635, -43.654068, -88.839828, -617.560364
1733468605.623200, 5.587618, -8.374468, 17.284340, -2.553768, -1.149575, -0.340695, -43.442780, -88.922333, -618.081177
1733468605.633191, 5.021988, -7.932888, 16.103849, -2.685332, -1.564345, -0.294845, -43.136108, -88.811462, -619.883911
1733468605.643189, 4.521899, -7.470059, 14.819959, -2.854427, -1.880071, -0.230467, -42.690002, -88.766479, -621.001831
1733468605.653188, 3.875165, -7.187244, 12.925098, -2.998577, -2.088892, -0.173649, -42.664032, -88.759796, -622.263855
1733468605.663246, 3.210624, -7.122301, 10.745476, -3.028307, -2.188879, -0.140078, -42.697601, -88.557877, -623.610901
1733468605.673207, 2.563292, -7.228244, 9.093776, -2.920839, -2.290084, -0.167470, -42.967392, -88.383850, -625.097473
1733468605.683222, 2.113631, -7.177667, 8.155399, -2.732774, -2.457952, -0.244360, -42.823700, -88.321640, -625.993774
1733468605.693199, 1.761684, -6.745962, 7.632865, -2.541470, -2.671757, -0.316906, -42.724335, -88.078354, -627.166992
1733468605.703193, 1.471835, -6.518364, 7.328202, -2.399060, -2.947847, -0.387824, -43.012939, -87.979797, -628.226196
1733468605.712224, 1.190966, -6.393267, 6.717980, -2.320341, -3.203889, -0.459573, -42.765381, -87.724258, -628.911499
1733468605.723197, 1.037288, -6.035932, 5.807286, -2.272156, -3.408605, -0.502270, -42.817856, -87.613876, -630.290649
1733468605.733193, 1.211915, -5.617695, 4.627543, -2.209213, -3.511440, -0.467856, -42.776810, -87.315369, -630.780090
1733468605.743252, 1.557428, -5.206491, 3.423259, -2.142029, -3.495753, -0.339557, -42.816711, -87.196915, -631.749146
1733468605.753188, 1.728913, -4.787655, 2.385822, -2.083045, -3.418142, -0.130754, -43.129028, -86.825790, -632.338135
1733468605.763182, 1.798345, -4.604948, 1.384896, -1.998879, -3.246322, 0.122400, -43.670776, -86.573120, -633.252563
1733468605.773249, 1.523012, -4.668244, 0.767192, -1.947858, -2.975780, 0.364817, -44.316437, -86.291138, -633.925781
1733468605.783215, 0.823306, -4.780323, 0.569521, -1.971420, -2.655239, 0.542320, -45.117065, -86.058380, -635.009949
1733468605.793192, 0.192135, -5.008670, 0.557849, -2.082455, -2.393448, 0.593745, -45.596390, -85.880356, -636.373169
1733468605.803201, -0.380080, -5.141997, 0.487968, -2.224012, -2.233949, 0.543262, -46.529175, -85.412903, -636.034912
1733468605.813196, -0.948852, -5.151873, 0.077363, -2.301867, -2.218816, 0.418218, -47.266632, -85.029419, -637.908508
1733468605.823179, -1.235258, -5.244798, -0.602142, -2.268081, -2.306967, 0.220240, -47.933685, -84.498306, -638.589233
1733468605.833193, -1.129465, -5.296722, -1.158494, -2.133831, -2.525472, 0.002024, -48.341263, -84.254410, -639.495178
1733468605.843185, -0.817021, -4.920833, -1.752256, -1.916593, -2.843987, -0.166167, -48.918304, -83.845596, -640.113403
1733468605.853190, -0.458041, -4.557213, -2.563891, -1.637345, -3.139366, -0.268238, -49.139175, -83.480423, -640.375366
1733468605.863186, -0.042946, -4.307468, -3.284845, -1.364517, -3.361824, -0.295251, -49.837280, -83.232971, -640.584839
1733468605.873194, 0.265756, -4.020762, -3.972130, -1.127921, -3.469369, -0.257366, -50.592575, -82.981476, -640.616394
1733468605.883181, 0.559046, -4.154838, -4.457106, -0.969935, -3.469965, -0.212949, -51.102509, -82.874542, -640.443665
1733468605.893192, 0.601992, -4.205116, -4.641310, -0.886497, -3.469588, -0.181052, -51.685364, -82.632828, -640.411499
1733468605.903197, 0.715717, -4.013580, -5.005228, -0.815966, -3.393298, -0.091882, -52.187149, -82.617859, -639.753662
1733468605.913185, 0.816872, -3.777302, -5.318569, -0.745485, -3.201889, 0.074820, -53.089493, -82.179001, -640.557007
1733468605.923180, 0.754024, -3.594744, -5.204695, -0.716962, -2.942291, 0.284303, -53.889420, -82.027222, -640.682007
1733468605.933185, 0.540940, -3.742736, -4.772691, -0.777174, -2.712800, 0.466093, -55.032196, -81.884476, -640.520264
1733468605.943196, 0.067038, -4.135235, -4.481197, -0.913502, -2.562942, 0.576022, -56.088837, -81.296860, -640.416260
1733468605.953193, -0.665139, -4.347571, -4.521599, -1.058993, -2.533850, 0.610898, -56.686569, -81.120804, -640.598267
1733468605.963193, -1.239897, -4.411466, -5.043236, -1.113907, -2.561208, 0.585171, -57.505981, -80.696198, -640.656250
1733468605.973195, -1.260846, -4.604199, -5.916372, -0.976906, -2.584991, 0.591142, -58.351288, -80.126999, -640.455139
1733468605.983175, -1.149516, -4.526986, -6.576872, -0.912284, -2.551422, 0.693342, -58.942810, -79.763840, -640.057190
1733468605.992746, -1.137096, -4.189404, -7.070078, -0.912284, -2.551422, 0.693342, -59.915894, -79.414413, -640.170593
1733468606.003184, -1.291672, -4.181024, -7.328801, -0.908167, -2.391744, 0.940926, -60.392349, -78.957947, -639.281128
1733468606.013179, -1.580323, -4.092439, -7.460332, -0.996137, -2.299944, 1.073927, -61.152695, -78.397064, -639.557251
1733468606.023192, -1.967585, -4.127903, -7.573458, -1.171696, -2.269773, 1.189163, -62.160080, -77.793182, -639.242737
1733468606.033186, -2.525733, -4.200926, -7.750779, -1.386917, -2.172942, 1.271091, -62.810455, -77.223099, -639.382263
1733468606.043178, -3.346196, -4.179977, -8.555380, -1.584131, -1.932634, 1.346020, -63.539490, -76.451126, -639.357422
1733468606.052640, -3.866785, -4.267365, -9.765949, -1.584131, -1.932634, 1.346020, -64.467712, -75.671219, -639.682373
1733468606.063206, -4.201674, -4.307169, -10.703129, -1.881538, -1.392632, 1.522431, -65.301163, -74.687592, -639.803040
1733468606.073170, -4.409820, -4.364031, -11.840225, -1.921011, -1.176863, 1.634796, -66.026581, -73.785385, -639.876343
1733468606.083168, -4.755184, -4.249409, -13.085360, -1.862622, -1.025360, 1.729977, -66.686142, -72.761703, -640.034424
1733468606.093169, -5.520281, -4.113987, -14.367305, -1.726517, -0.895585, 1.736959, -67.192047, -71.840530, -640.387817
1733468606.103163, -6.685658, -4.396652, -15.664663, -1.570665, -0.745095, 1.620346, -68.255386, -70.872711, -639.841309
1733468606.113177, -7.985560, -4.797232, -16.747291, -1.426428, -0.656685, 1.413790, -68.661133, -69.996613, -640.454956
1733468606.123171, -8.889521, -5.234174, -17.476026, -1.264415, -0.639683, 1.183698, -68.961349, -69.167114, -640.942871
1733468606.133179, -9.494207, -5.490952, -18.264916, -1.045455, -0.616354, 0.969205, -69.259552, -68.587189, -640.974060
1733468606.143180, -9.989657, -5.467908, -19.175311, -0.775091, -0.558324, 0.775613, -69.689987, -67.943848, -640.945984
1733468606.152299, -10.246585, -5.566369, -20.064607, -0.775091, -0.558324, 0.775613, -69.682419, -67.582947, -640.680298
1733468606.163180, -10.302699, -5.608268, -20.677672, -0.222971, -0.252653, 0.536818, -70.009644, -67.264435, -640.277100
1733468606.173186, -10.286388, -5.588965, -20.817583, -0.023498, -0.005475, 0.468879, -69.963486, -67.022339, -641.067749
1733468606.183177, -10.363302, -5.651513, -20.897789, 0.145049, 0.334791, 0.389941, -69.934113, -66.848694, -640.893433
1733468606.193182, -10.553342, -5.534646, -20.849456, 0.321321, 0.663751, 0.309233, -70.050461, -66.961227, -641.036255
1733468606.203199, -10.790966, -5.053860, -20.336050, 0.499165, 0.945165, 0.201916, -69.853394, -67.156006, -640.810303
1733468606.213185, -10.912622, -4.826262, -19.681684, 0.664887, 1.199542, 0.065872, -69.701767, -67.075897, -641.498169
1733468606.223186, -11.047146, -4.767903, -18.989461, 0.835032, 1.453412, -0.098324, -69.605286, -67.360901, -642.072144
1733468606.233189, -11.041460, -4.694132, -18.304270, 1.041250, 1.634228, -0.295909, -69.200592, -67.806030, -642.281250
1733468606.243183, -10.866982, -4.694132, -17.446248, 1.295659, 1.774649, -0.501787, -68.570969, -68.342789, -642.248169
1733468606.253176, -10.566959, -4.496909, -16.594062, 1.591280, 1.859478, -0.696714, -68.102539, -68.914932, -642.669800
1733468606.263177, -10.093356, -4.238635, -15.574431, 1.889193, 1.894569, -0.866929, -67.314087, -69.796112, -642.595581
1733468606.273177, -9.499444, -3.945794, -14.363564, 2.156261, 1.908925, -0.994195, -66.609604, -70.616089, -642.727051
1733468606.283173, -8.769212, -3.617788, -13.144766, 2.369071, 1.915444, -1.058679, -65.870148, -71.738739, -642.631714
1733468606.293171, -7.886201, -3.388095, -11.979538, 2.532504, 1.875939, -1.072577, -65.202820, -72.738342, -642.354980
1733468606.303192, -6.975656, -3.259257, -10.755951, 2.652155, 1.833642, -1.037267, -64.561493, -73.730042, -641.156372
1733468606.313176, -6.218340, -3.118148, -9.613767, 2.710446, 1.870629, -0.969254, -63.865402, -74.881958, -641.404846
1733468606.323176, -5.754164, -3.142090, -8.509591, 2.703490, 1.985352, -0.905219, -63.128571, -75.908585, -641.179688
1733468606.333181, -5.654206, -3.373281, -7.392247, 2.624309, 2.245133, -0.879476, -61.934799, -76.753754, -640.836609
1733468606.343175, -5.944055, -3.604920, -6.620117, 2.504159, 2.663557, -0.910473, -61.146805, -77.670853, -640.274231
1733468606.353188, -6.192154, -3.875315, -5.938069, 2.354660, 2.987418, -0.996855, -60.731155, -78.656067, -640.323975
1733468606.363172, -6.082469, -4.016722, -4.737227, 2.202769, 3.080470, -1.098556, -59.291824, -79.379333, -640.034241
1733468606.373189, -5.635951, -3.674501, -3.536834, 2.087770, 3.004676, -1.191635, -58.050415, -80.172455, -640.058838
1733468606.383190, -4.917241, -3.373131, -2.969109, 2.079216, 2.859008, -1.250729, -57.158264, -80.914062, -639.762573
1733468606.393184, -4.106804, -3.294870, -3.104082, 2.220195, 2.711661, -1.278997, -55.951904, -81.754227, -639.483459
1733468606.402660, -3.465158, -3.268534, -3.479224, 2.491431, 2.612259, -1.279853, -54.911240, -82.485703, -637.938110
1733468606.413180, -2.923769, -3.248632, -3.554492, 2.790884, 2.513679, -1.279072, -53.661987, -83.232132, -637.838684
1733468606.422383, -2.636315, -3.013851, -2.946065, 2.991621, 2.437140, -1.320143, -52.912918, -83.889435, -636.450500
1733468606.433167, -2.702904, -2.761113, -1.966388, 3.033720, 2.411603, -1.391560, -51.735458, -84.737579, -635.671875
1733468606.443174, -2.636615, -2.438045, -0.921917, 2.939517, 2.480457, -1.447725, -50.781311, -85.632751, -634.697571
1733468606.453176, -2.365172, -2.337788, -0.151284, 2.819486, 2.660034, -1.503917, -49.677505, -86.234329, -633.860474
1733468606.463172, -2.019808, -2.764405, 0.313341, 2.731743, 2.826920, -1.553776, -48.427780, -86.906509, -632.634033
1733468606.473165, -1.597381, -3.025972, 0.920421, 2.733601, 2.919978, -1.596246, -47.245026, -87.468689, -631.824524
1733468606.483165, -1.058536, -3.285892, 1.449839, 2.887394, 2.930229, -1.661000, -46.475525, -88.108414, -630.694885
1733468606.493223, -0.616806, -3.535039, 1.956961, 3.112258, 2.906918, -1.727556, -45.307861, -88.390900, -629.487549
1733468606.503170, -0.059256, -3.322853, 2.887706, 3.221728, 2.823815, -1.780932, -44.266190, -89.039001, -627.232666
1733468606.513175, 0.719009, -2.815282, 4.718822, 3.111480, 2.590732, -1.817742, -43.333725, -89.132751, -626.288086
1733468606.523190, 1.788169, -2.409764, 6.843676, 2.759702, 2.264229, -1.804085, -42.493622, -89.341995, -624.815491
1733468606.532497, 2.944419, -2.109741, 8.233959, 2.255446, 2.016821, -1.721737, -41.230255, -89.500946, -623.743286
1733468606.543169, 3.879056, -2.187702, 8.295161, 1.894612, 1.963448, -1.576943, -40.314651, -89.530396, -622.871887
1733468606.553174, 4.471621, -2.802712, 6.933458, 1.821979, 2.141585, -1.372009, -39.539642, -89.689224, -622.222412
1733468606.563171, 4.794090, -2.967613, 5.525967, 1.823809, 2.475796, -1.146680, -39.308960, -89.581787, -621.319580
1733468606.573227, 5.172972, -3.061585, 5.128230, 1.774047, 2.936851, -0.959237, -38.926849, -89.524246, -620.603210
1733468606.583165, 5.673959, -3.583072, 5.498284, 1.673351, 3.303266, -0.815003, -38.454453, -89.741486, -620.018127
1733468606.593165, 6.252458, -3.800795, 6.795492, 1.539716, 3.407112, -0.691914, -38.301849, -89.820786, -619.518250
1733468606.602312, 6.892009, -3.869928, 8.220940, 1.465614, 3.264803, -0.557194, -38.191742, -89.707840, -618.342651
1733468606.613182, 7.396287, -3.960608, 9.231144, 1.494675, 2.910421, -0.411456, -38.043411, -89.495010, -617.918335
1733468606.623168, 7.715764, -3.999065, 10.028563, 1.561049, 2.388216, -0.304202, -37.893860, -89.475281, -617.089783
1733468606.633167, 7.762301, -4.084957, 10.609007, 1.730983, 1.849814, -0.187159, -38.128052, -89.468323, -616.588989
1733468606.643169, 7.740304, -4.638466, 10.501118, 2.025199, 1.611245, -0.123389, -38.266312, -89.474152, -615.534729
1733468606.653170, 7.417087, -5.950190, 10.268132, 2.258144, 1.557019, -0.173385, -38.450256, -89.356522, -614.592957
1733468606.663175, 7.119458, -7.128137, 11.545439, 2.304578, 1.482327, -0.284740, -38.408432, -89.317993, -613.646545
1733468606.673167, 7.272088, -7.647379, 13.943681, 2.223809, 1.255604, -0.450605, -38.265762, -89.107635, -612.403198
1733468606.683162, 7.504775, -8.129512, 16.386814, 2.052231, 1.014474, -0.649988, -38.268509, -89.074051, -611.747925
1733468606.693218, 7.607426, -8.356662, 18.257284, 1.754852, 0.736042, -0.863459, -38.102081, -88.982849, -610.944153
1733468606.703167, 8.035240, -8.450784, 20.047997, 1.353722, 0.295303, -1.000762, -37.343155, -88.847748, -609.383301
1733468606.713175, 9.041403, -8.138490, 21.757008, 0.933791, -0.300509, -0.978041, -36.799713, -88.692734, -609.618713
1733468606.723167, 10.035895, -7.311144, 22.682218, 0.518930, -0.892215, -0.867972, -36.076019, -88.466125, -609.591553
1733468606.733171, 10.633697, -6.911013, 22.470780, 0.144201, -1.319057, -0.731800, -35.694641, -88.428314, -609.580688
1733468606.743162, 10.772710, -6.946477, 21.289540, -0.189924, -1.486020, -0.565758, -35.051941, -88.536774, -609.621216
1733468606.753162, 10.774955, -6.706608, 19.802891, -0.516671, -1.512656, -0.357811, -34.607483, -88.610428, -609.956909
1733468606.763173, 10.727819, -6.395212, 18.678215, -0.845077, -1.423349, -0.140713, -34.697235, -88.584991, -610.516113
1733468606.773160, 10.749666, -6.261436, 17.669508, -1.175337, -1.375132, 0.082352, -34.616638, -88.610840, -610.828857
1733468606.783156, 10.815207, -5.993734, 17.027712, -1.454788, -1.470365, 0.303846, -34.728302, -88.869324, -611.786621
1733468606.793156, 10.558280, -5.705532, 16.316784, -1.649735, -1.680552, 0.478637, -34.761765, -88.908585, -612.668091
1733468606.803173, 9.980828, -5.611709, 15.199589, -1.752377, -1.918996, 0.630895, -34.869324, -89.091141, -612.921631
1733468606.813165, 9.280823, -5.520730, 13.768455, -1.789193, -2.141460, 0.758765, -34.891006, -89.334106, -614.385864
1733468606.823160, 8.423699, -5.377377, 12.431892, -1.775301, -2.357540, 0.864332, -35.312515, -89.484512, -614.922546
1733468606.832405, 7.606977, -5.278466, 11.240478, -1.735043, -2.575139, 0.937698, -35.312515, -89.484512, -614.922546
1733468606.843161, 6.825270, -5.308693, 10.162189, -1.679445, -2.764685, 0.979971, -35.462784, -89.725433, -616.748840
1733468606.853176, 6.012439, -5.299865, 9.086145, -1.604484, -2.947315, 0.987599, -35.921906, -89.785538, -617.717896
1733468606.863161, 5.305102, -5.218163, 8.247725, -1.519511, -3.158229, 0.969554, -36.176956, -89.785812, -618.361816
1733468606.873159, 4.707150, -5.239411, 7.502081, -1.419930, -3.319967, 0.940424, -36.922485, -89.770203, -618.913818
1733468606.883159, 4.162170, -5.196615, 6.574328, -1.308248, -3.419913, 0.916569, -37.125290, -89.786804, -619.943298
1733468606.892937, 3.754258, -5.012560, 5.848286, -1.236484, -3.487363, 0.897396, -37.423660, -89.894241, -620.179077
1733468606.903164, 3.483713, -4.799327, 5.456984, -1.213813, -3.580369, 0.896923, -37.876892, -89.934250, -620.383057
1733468606.913160, 3.338116, -4.605546, 5.101296, -1.193093, -3.640365, 0.947089, -38.497925, -89.923706, -621.178955
1733468606.923171, 3.371335, -4.433912, 4.307618, -1.152238, -3.586248, 1.065171, -38.789764, -90.066818, -621.987183
1733468606.933157, 3.317166, -4.128202, 3.423409, -1.122894, -3.469838, 1.193533, -39.954330, -90.033188, -622.428345
1733468606.943156, 3.198504, -4.024653, 2.822464, -1.109282, -3.374800, 1.305510, -39.954330, -90.033188, -622.428345
1733468606.953168, 2.934543, -3.993828, 2.485181, -1.100770, -3.273463, 1.396483, -40.628235, -90.100464, -622.953003
1733468606.963210, 2.539799, -3.875913, 2.151190, -1.120517, -3.130652, 1.470309, -41.081406, -89.883179, -623.535461
1733468606.973170, 2.224064, -3.939659, 1.824831, -1.151512, -2.949009, 1.516846, -42.124512, -89.799789, -623.976318
1733468606.982274, 1.906084, -4.042011, 1.465700, -1.193225, -2.777542, 1.549507, -42.970581, -89.710114, -624.728882
1733468606.993154, 1.787720, -4.235492, 1.329081, -1.254615, -2.700421, 1.582483, -44.350357, -89.484665, -624.815674
1733468607.003165, 1.603816, -4.305822, 1.483358, -1.330367, -2.715741, 1.607702, -45.197571, -89.519547, -625.681213
1733468607.013159, 1.284340, -4.080767, 1.702427, -1.417460, -2.820983, 1.636107, -46.224335, -89.232834, -626.113525
1733468607.023157, 1.128268, -3.986346, 1.643171, -1.486751, -2.937216, 1.677063, -47.450928, -88.901932, -626.702087
1733468607.033157, 0.964564, -4.006846, 1.088314, -1.488593, -2.998343, 1.726993, -48.343216, -88.767990, -627.033508
1733468607.043206, 0.661847, -4.037223, 0.352097, -1.456334, -3.013267, 1.780142, -49.448395, -88.417267, -627.548706
1733468607.053176, 0.250044, -4.187459, -0.231938, -1.432892, -3.009864, 1.814761, -50.399445, -88.056885, -627.944153
1733468607.063167, -0.435146, -4.441992, -0.641945, -1.439835, -2.920856, 1.804652, -51.756790, -87.532944, -628.370911
1733468607.073163, -1.178097, -4.872799, -1.100435, -1.492495, -2.864628, 1.756039, -52.877396, -87.212067, -628.474915
1733468607.083162, -1.824232, -5.078700, -1.220295, -1.571611, -2.811167, 1.708478, -54.064194, -86.620605, -628.797302
1733468607.093162, -2.321927, -4.710891, -1.366341, -1.661469, -2.736167, 1.706526, -54.841232, -86.207657, -628.871643
1733468607.102415, -2.492663, -4.218733, -1.639878, -1.776349, -2.662553, 1.799249, -55.643204, -85.600677, -629.260498
1733468607.113213, -2.565686, -3.576488, -1.921646, -1.926841, -2.617763, 1.951780, -56.946228, -84.787109, -629.379578
1733468607.123155, -2.897882, -3.142539, -2.211045, -2.130657, -2.570983, 2.100898, -57.966034, -84.114883, -629.830627
1733468607.133160, -3.423259, -3.058593, -2.839074, -2.382563, -2.415263, 2.251276, -59.363846, -83.180588, -629.595703
1733468607.143149, -4.148852, -2.943521, -3.893870, -2.692374, -2.100641, 2.412426, -60.350586, -82.116013, -630.603394
1733468607.153204, -4.963030, -2.734029, -5.351939, -3.020761, -1.638217, 2.541259, -61.825790, -81.099411, -631.595520
1733468607.163169, -5.786486, -2.632125, -7.044041, -3.293717, -1.172426, 2.592129, -62.801971, -79.807434, -632.312378
1733468607.173167, -6.647501, -2.813337, -8.605509, -3.443453, -0.883600, 2.607816, -64.044861, -78.485397, -633.272644
1733468607.183195, -7.395539, -2.743157, -9.840468, -3.449970, -0.738892, 2.601584, -65.089691, -76.875748, -634.668640
1733468607.193148, -8.098686, -2.715773, -11.274745, -3.334039, -0.660715, 2.515790, -66.226532, -75.556046, -635.771912
1733468607.203186, -9.263316, -3.726425, -13.825168, -3.153154, -0.673565, 2.327753, -67.294891, -74.161987, -636.917053
1733468607.213152, -9.622895, -3.961207, -14.805444, -2.963552, -0.787973, 2.085586, -68.038971, -72.692078, -637.586121
1733468607.223148, -9.969456, -4.073884, -16.093225, -2.770238, -0.923615, 1.804770, -69.039017, -71.437943, -637.950500
1733468607.233160, -10.269030, -4.272453, -17.711406, -2.513649, -1.020945, 1.518321, -69.711319, -70.198349, -638.537842
1733468607.243156, -10.453982, -4.126107, -19.258360, -2.154952, -1.049610, 1.292156, -70.209473, -69.245468, -638.640808
1733468607.253155, -10.444705, -4.050540, -20.430621, -1.737399, -0.980540, 1.162326, -70.474014, -68.256439, -638.981201
1733468607.263169, -10.444705, -4.050540, -20.430621, -1.349917, -0.823187, 1.102172, -70.827164, -67.597534, -639.192505
1733468607.273149, -10.724976, -4.410269, -21.368848, -1.031199, -0.564664, 1.060899, -71.237106, -66.907059, -639.574707
1733468607.283157, -11.040861, -4.510077, -21.180006, -0.780717, -0.301718, 1.001615, -71.591110, -66.299423, -639.411987
1733468607.293160, -11.456704, -4.483741, -20.909760, -0.562518, -0.078308, 0.902224, -71.783127, -65.823929, -639.597351
1733468607.303165, -11.809699, -4.435857, -20.542998, -0.331069, 0.071408, 0.775132, -71.746445, -65.485962, -639.149719
1733468607.313150, -12.104186, -4.454861, -20.056527, -0.103852, 0.152964, 0.604856, -72.224091, -65.384338, -639.640991
1733468607.323147, -12.342558, -4.583998, -19.761591, 0.097988, 0.211359, 0.402513, -72.405136, -65.251648, -640.007324
1733468607.333154, -12.435783, -4.741118, -19.860801, 0.294122, 0.391560, 0.182276, -72.102753, -65.215637, -640.070251
1733468607.343163, -12.311434, -4.735282, -19.735255, 0.489872, 0.651178, -0.028057, -71.988220, -65.339645, -640.275513
1733468607.353155, -12.025327, -4.643853, -19.441366, 0.701870, 0.942814, -0.221538, -71.822571, -65.664032, -640.143738
1733468607.363153, -11.623849, -4.277541, -18.857480, 0.958427, 1.214944, -0.389979, -71.583755, -66.183746, -640.451355
1733468607.373150, -11.125257, -4.002507, -18.009484, 1.241794, 1.423229, -0.536235, -71.145950, -66.619858, -640.501892
1733468607.383155, -10.556484, -3.872172, -16.997186, 1.541214, 1.546376, -0.675479, -70.405685, -67.331070, -640.685913
1733468607.393151, -10.023774, -3.686921, -15.859491, 1.836352, 1.590704, -0.799492, -69.874008, -68.317413, -640.950684
1733468607.402454, -9.508273, -3.435380, -14.763845, 2.102086, 1.620563, -0.911198, -69.462662, -69.300919, -640.003357
1733468607.413162, -8.952668, -3.221997, -13.570934, 2.314473, 1.660810, -0.995555, -68.704178, -70.094910, -640.700134
1733468607.423154, -8.436269, -2.974646, -12.318168, 2.447221, 1.721289, -1.041619, -67.990250, -71.209030, -640.339722
1733468607.433145, -8.051551, -2.782212, -11.146655, 2.508367, 1.829663, -1.061321, -67.167603, -72.109695, -640.119263
1733468607.443145, -7.729979, -2.537255, -10.065074, 2.498587, 1.959670, -1.057444, -66.605774, -73.163040, -639.664246
1733468607.453159, -7.593360, -2.384774, -9.113529, 2.461266, 2.103034, -1.060713, -65.638596, -74.179535, -639.878723
1733468607.463145, -7.462427, -2.378340, -8.378958, 2.429875, 2.232384, -1.089491, -65.311447, -75.109924, -639.483887
1733468607.473160, -7.282114, -2.491915, -8.017732, 2.432183, 2.357649, -1.151615, -64.208237, -76.161102, -639.030151
1733468607.483152, -6.977901, -2.447473, -7.734020, 2.499468, 2.466679, -1.237237, -63.124924, -77.231781, -639.395386
1733468607.493153, -6.682067, -2.243816, -7.287202, 2.636844, 2.536961, -1.345302, -62.382660, -78.149139, -638.793579
1733468607.503159, -6.304382, -2.021005, -6.534674, 2.823250, 2.557004, -1.462719, -61.079117, -79.378983, -638.064209
1733468607.513145, -5.813571, -1.683573, -5.553650, 3.019049, 2.505752, -1.567697, -60.159027, -80.275803, -637.699951
1733468607.523157, -5.207987, -1.263091, -4.631284, 3.188027, 2.421751, -1.651281, -58.911972, -81.225372, -637.008911
1733468607.533145, -4.649390, -0.995090, -3.745280, 3.307585, 2.341178, -1.719440, -57.698792, -82.421387, -636.299377
1733468607.543144, -3.983203, -0.985663, -2.911648, 3.378342, 2.269462, -1.770944, -56.499908, -83.249603, -634.996216
1733468607.553153, -3.362806, -0.831237, -2.182764, 3.430409, 2.251355, -1.801708, -55.197678, -84.221985, -633.585693
1733468607.563144, -2.654721, -0.611120, -1.336413, 3.424721, 2.339300, -1.789685, -54.156693, -85.064392, -632.709595
1733468607.572631, -1.910723, -0.821510, -0.221314, 3.333018, 2.413361, -1.744593, -53.093903, -85.928925, -631.732178
1733468607.583145, -1.252317, -1.063175, 0.588375, 3.195099, 2.443297, -1.693618, -51.906036, -86.754715, -630.613037
1733468607.593153, -0.799065, -1.075894, 0.984615, 3.091032, 2.456516, -1.638626, -50.991531, -87.264404, -629.125305
1733468607.603148, -0.496797, -1.158195, 1.168520, 3.094074, 2.442920, -1.596497, -50.238831, -87.957794, -627.461792
1733468607.613169, -0.062997, -1.204882, 1.436970, 3.176302, 2.439467, -1.572235, -49.197952, -88.238235, -626.872803
1733468607.623144, 0.569670, -1.158794, 2.142960, 3.273554, 2.401983, -1.548105, -48.396393, -88.792892, -625.447876
1733468607.633137, 1.124826, -1.397316, 3.219154, 3.372531, 2.363197, -1.520270, -47.316666, -88.948822, -624.045837
1733468607.643147, 1.522862, -1.515829, 4.618864, 3.430902, 2.307966, -1.473069, -46.532043, -89.295273, -622.796448
1733468607.653148, 1.960253, -1.726519, 6.063166, 3.364618, 2.232906, -1.410711, -45.949631, -89.630920, -621.401733
1733468607.663151, 2.296788, -1.970428, 7.201908, 3.162153, 2.209677, -1.349275, -45.233841, -89.629868, -619.732788
1733468607.673146, 2.560748, -2.209549, 7.894431, 2.846065, 2.260103, -1.312207, -44.697479, -89.668732, -618.783997
1733468607.682922, 3.138349, -2.504634, 7.857022, 2.471802, 2.432105, -1.264073, -44.081161, -89.572052, -617.852356
1733468607.693144, 3.813215, -2.486827, 7.589021, 2.159523, 2.592571, -1.200158, -43.804703, -89.699738, -616.885620
1733468607.703135, 4.419098, -2.826056, 7.011270, 2.119751, 2.654032, -1.110908, -43.350494, -89.929001, -615.600220
1733468607.712239, 4.723012, -3.810073, 6.859537, 2.422294, 2.744520, -1.013395, -43.366913, -89.706985, -615.324707
1733468607.723165, 4.631733, -4.648642, 8.593239, 2.765213, 2.771804, -1.030872, -43.305267, -89.493286, -613.849121
1733468607.733143, 4.579060, -5.350741, 11.238383, 2.886412, 2.679836, -1.190247, -43.072586, -89.584259, -612.689697
1733468607.743137, 4.917840, -6.022614, 13.494169, 2.817746, 2.620455, -1.459158, -42.800827, -89.310089, -611.628540
1733468607.753139, 6.238242, -6.156390, 16.207847, 2.614063, 2.485815, -1.721329, -42.255753, -89.399429, -610.777039
1733468607.763151, 8.272116, -5.828684, 19.072959, 2.299389, 2.072722, -1.852427, -41.586990, -89.128098, -609.878662
1733468607.773195, 10.154557, -5.400421, 20.923527, 1.931504, 1.463281, -1.835082, -40.911606, -88.923569, -608.834290
1733468607.783151, 11.519103, -5.334281, 21.381717, 1.506970, 0.892732, -1.712541, -40.282349, -88.889938, -608.313721
1733468607.793150, 12.303653, -5.705682, 20.709545, 1.110793, 0.510703, -1.559304, -39.607086, -88.628067, -607.392761
1733468607.803160, 13.169905, -5.846940, 19.572898, 0.791776, 0.374359, -1.348608, -39.312668, -88.735443, -606.693420
1733468607.813148, 13.964032, -5.941211, 18.989760, 0.531582, 0.379860, -1.094831, -38.970245, -88.478622, -607.579712
1733468607.823146, 14.426262, -6.076484, 19.239206, 0.297900, 0.316265, -0.845283, -38.636292, -88.534790, -607.655762
1733468607.833149, 14.668974, -6.002264, 19.546412, 0.043074, 0.157376, -0.595851, -38.424850, -88.287537, -607.621948
1733468607.843144, 14.358177, -6.146963, 19.355175, -0.229396, -0.032970, -0.372168, -38.029160, -88.401413, -607.468750
1733468607.853143, 13.824270, -6.266673, 18.691832, -0.468705, -0.182688, -0.177133, -38.185516, -88.519745, -607.986450
1733468607.863150, 13.281385, -6.152799, 18.147300, -0.652844, -0.361958, 0.011734, -37.862869, -88.583282, -608.014648
1733468607.873200, 12.576442, -6.056881, 17.955166, -0.807907, -0.632637, 0.187845, -37.930664, -88.666107, -609.170410
1733468607.883172, 11.921927, -5.847239, 17.825879, -0.958558, -1.045666, 0.354286, -37.555496, -88.897217, -609.132446
1733468607.893151, 11.210849, -5.767931, 17.306936, -1.091883, -1.509599, 0.514764, -37.658432, -88.939438, -609.376770
1733468607.903156, 10.323798, -5.861754, 16.236727, -1.254428, -1.836943, 0.659226, -37.812866, -89.126099, -609.623535
1733468607.913135, 9.345617, -5.917269, 14.983961, -1.426465, -2.011072, 0.792096, -37.718704, -89.306808, -610.784851
1733468607.923142, 8.467842, -6.039224, 13.728801, -1.574789, -2.083238, 0.904813, -37.975891, -89.387589, -611.675598
1733468607.933147, 7.592163, -6.031742, 12.590957, -1.681048, -2.130226, 0.986502, -38.130692, -89.665833, -612.089172
1733468607.943192, 6.703016, -6.162376, 11.685949, -1.739979, -2.189933, 1.024405, -38.351166, -89.629684, -613.209473
1733468607.953133, 6.019771, -6.263980, 11.064953, -1.772301, -2.301358, 1.018882, -38.661407, -89.763947, -613.960571
1733468607.963142, 5.368848, -6.108506, 10.521170, -1.798967, -2.502934, 0.994386, -38.786362, -89.948593, -614.676636
1733468607.973142, 4.634426, -5.838410, 9.732879, -1.801083, -2.732417, 0.968596, -38.909134, -90.001068, -615.437378
1733468607.983097, 4.066701, -5.603479, 8.850915, -1.773296, -2.991668, 0.936388, -39.140961, -90.069183, -616.256714
1733468607.993148, 3.639635, -5.135862, 7.907300, -1.724966, -3.272761, 0.922561, -39.767426, -90.193298, -616.973938
1733468608.003146, 3.195062, -4.800075, 6.754193, -1.631284, -3.538024, 0.901900, -39.878906, -90.306641, -617.237122
1733468608.013147, 2.973748, -4.651934, 5.495291, -1.500851, -3.739002, 0.898116, -40.170197, -90.274704, -618.286621
1733468608.023146, 3.092261, -4.251953, 4.385878, -1.377253, -3.816465, 0.969009, -40.391281, -90.197510, -618.623779
1733468608.033135, 3.255815, -3.847781, 3.527258, -1.286475, -3.766845, 1.125148, -41.073364, -90.245468, -619.274719
1733468608.043145, 3.295170, -3.576339, 2.891896, -1.249355, -3.638475, 1.339950, -42.081253, -90.281891, -619.714844
1733468608.053143, 3.126977, -3.280505, 2.353351, -1.248149, -3.435021, 1.593107, -42.898407, -90.036865, -620.472778
1733468608.062976, 2.747646, -3.206883, 2.049736, -1.292049, -3.176228, 1.839623, -43.779861, -90.122452, -620.839294
1733468608.073146, 2.196830, -3.258060, 1.902941, -1.390741, -2.896151, 2.045702, -44.806122, -90.002991, -621.430115
1733468608.083137, 1.630751, -3.153612, 1.802535, -1.538700, -2.606658, 2.199080, -46.254898, -89.915665, -622.290344
1733468608.093140, 0.993294, -3.052009, 1.818097, -1.720020, -2.372136, 2.305113, -47.477402, -89.557465, -622.793945
1733468608.103133, 0.341772, -3.074903, 1.823185, -1.906211, -2.254585, 2.339138, -48.843643, -89.300644, -623.264771
1733468608.113133, -0.340276, -2.921525, 1.708263, -2.059652, -2.276286, 2.309008, -49.979324, -88.855530, -624.637878
1733468608.123138, -0.848146, -2.878279, 1.176600, -2.154927, -2.384889, 2.244123, -51.286041, -88.233185, -625.372437
1733468608.133132, -1.051653, -3.155857, 0.192284, -2.183534, -2.490834, 2.160327, -52.626328, -87.920578, -626.197266
1733468608.143130, -1.209371, -3.399018, -0.880617, -2.155644, -2.553452, 2.082928, -53.875549, -87.303024, -626.840515
1733468608.152241, -1.495329, -3.252224, -1.747767, -2.087036, -2.570708, 2.007821, -54.878906, -86.749146, -627.389526
1733468608.163128, -1.704971, -3.171120, -2.509572, -1.986239, -2.556623, 1.947879, -55.598038, -86.238754, -627.749634
1733468608.173131, -1.722778, -2.970007, -3.013552, -1.861927, -2.535680, 1.954497, -56.806702, -85.575729, -627.849304
1733468608.183129, -1.861492, -2.538153, -3.168726, -1.776570, -2.471497, 2.017044, -57.861343, -84.920471, -628.091248
1733468608.193128, -2.287510, -2.308310, -3.073856, -1.739828, -2.501646, 2.140510, -59.150482, -84.244766, -628.574158
1733468608.203127, -2.940080, -2.365022, -3.233968, -1.725766, -2.565249, 2.254307, -60.469543, -83.440659, -628.059265
1733468608.213138, -3.736002, -2.213290, -3.456629, -1.757702, -2.575875, 2.322532, -61.669891, -82.381775, -629.052612
1733468608.223130, -4.337994, -2.030433, -3.674800, -1.889073, -2.586098, 2.353037, -62.932297, -81.436264, -629.333923
1733468608.233125, -5.076306, -1.854758, -4.247314, -2.097739, -2.594387, 2.364931, -64.159149, -80.580872, -629.776123
1733468608.243138, -5.939416, -1.709909, -5.562329, -2.301851, -2.542493, 2.360219, -65.084488, -79.351761, -629.630188
1733468608.252311, -6.654983, -1.782932, -7.663690, -2.410022, -2.312864, 2.391555, -66.298065, -78.226227, -629.863770
1733468608.263144, -7.071574, -2.105700, -9.821015, -2.415313, -1.859130, 2.497924, -67.059357, -76.947998, -630.262146
1733468608.273141, -7.461679, -2.507178, -11.202769, -2.369933, -1.343741, 2.631928, -68.564209, -75.833389, -630.584106
1733468608.283136, -8.118588, -2.959533, -12.024878, -2.331554, -0.954152, 2.707031, -69.524673, -74.445267, -631.044067
1733468608.293140, -8.911069, -3.221548, -12.698397, -2.307819, -0.751302, 2.711722, -70.248352, -73.102112, -631.999268
1733468608.303138, -9.872790, -3.300407, -13.403788, -2.248928, -0.763934, 2.681070, -71.106323, -71.755615, -631.668640
1733468608.313147, -11.164013, -3.685275, -14.578593, -2.081297, -0.844099, 2.623606, -71.651840, -70.603165, -632.486145
1733468608.323146, -12.619987, -4.241478, -15.671846, -1.843187, -0.880916, 2.544055, -72.404968, -69.194031, -632.670349
1733468608.333131, -14.264504, -4.825364, -16.479589, -1.664051, -0.838848, 2.414025, -72.961197, -67.998337, -632.908508
1733468608.343133, -15.804574, -5.588815, -17.546805, -1.595547, -0.610001, 2.189575, -73.615799, -67.027451, -632.920410
1733468608.353130, -16.926258, -6.274903, -18.757822, -1.588737, -0.247877, 1.880427, -73.754425, -66.196121, -633.721802
1733468608.363151, -17.796251, -6.354062, -19.758748, -1.567345, 0.101553, 1.503163, -74.087341, -65.572983, -633.828003
1733468608.373140, -18.174385, -6.219388, -20.852000, -1.435817, 0.342029, 1.082994, -74.265961, -65.063904, -634.518677
1733468608.383173, -18.119318, -6.105962, -21.993585, -1.116647, 0.441321, 0.666024, -74.265961, -65.063904, -634.518677
1733468608.393141, -17.670256, -6.048502, -23.016358, -0.613270, 0.493988, 0.266324, -74.324341, -64.903931, -635.042725
1733468608.403179, -16.955287, -6.137835, -23.417986, -0.020236, 0.543492, -0.098466, -74.073334, -65.018036, -635.154968
1733468608.413395, -16.289250, -5.919364, -23.081750, 1.101740, 0.766541, -0.655147, -73.712280, -65.342453, -634.806030
1733468608.423331, -15.639823, -5.349395, -22.139033, 1.101740, 0.766541, -0.655147, -73.680176, -65.755905, -634.899231
1733468608.433227, -14.901062, -5.076605, -20.840328, 1.546571, 0.955983, -0.868944, -73.490173, -66.687103, -635.040039
1733468608.443122, -14.180856, -4.864569, -19.193716, 2.161705, 1.367691, -1.211976, -73.050400, -67.384933, -634.758728
1733468608.453130, -13.530831, -4.616320, -17.555184, 2.373423, 1.605691, -1.361817, -72.529861, -68.281860, -635.026306
1733468608.463121, -12.850877, -4.455759, -15.864579, 2.527532, 1.804061, -1.497899, -72.080597, -69.374252, -634.689453
1733468608.473124, -12.047323, -4.255394, -14.075811, 2.641699, 1.918281, -1.598118, -71.398254, -70.456085, -634.508545
1733468608.483126, -11.092935, -4.000262, -12.239907, 2.721004, 1.976262, -1.655340, -70.665955, -71.547958, -634.379883
1733468608.493123, -10.208726, -3.793912, -10.643872, 2.745358, 2.010842, -1.699251, -69.841324, -72.717758, -634.642883
1733468608.503132, -9.513211, -3.700388, -9.090634, 2.700808, 2.002345, -1.735179, -69.174835, -73.830307, -634.398987
1733468608.513120, -8.891317, -3.605069, -7.550713, 2.599673, 2.014933, -1.775318, -68.287262, -75.071671, -633.968994
1733468608.523126, -8.257003, -3.596540, -6.370073, 2.462018, 2.046497, -1.792117, -67.247284, -76.108078, -634.090332
1733468608.533121, -7.579294, -3.566313, -5.371092, 2.302596, 2.173308, -1.791093, -66.569092, -77.232605, -633.655518
1733468608.543126, -7.105242, -3.485509, -4.733786, 2.117288, 2.420888, -1.795766, -65.199097, -78.207687, -633.491455
1733468608.553130, -6.804920, -3.506308, -4.245518, 1.926206, 2.727372, -1.820926, -64.395584, -79.014664, -633.148071
1733468608.563125, -6.351667, -3.678541, -3.791518, 1.777304, 2.956230, -1.861647, -63.115631, -79.832230, -633.492493
1733468608.573120, -5.663634, -3.762039, -3.249530, 1.725346, 3.042151, -1.908655, -62.510803, -80.786575, -633.564575
1733468608.583126, -4.983830, -3.612850, -2.775478, 1.790386, 3.019933, -1.954985, -61.130554, -81.599915, -633.586609
1733468608.592345, -4.255693, -3.305644, -2.427571, 1.790386, 3.019933, -1.954985, -59.979141, -82.564285, -633.526306
1733468608.603127, -3.425205, -3.139696, -1.926734, 2.042268, 2.771355, -1.988207, -58.662064, -83.182175, -633.117310
1733468608.613127, -2.634669, -3.153463, -1.456872, 2.116443, 2.716026, -1.956375, -57.044754, -84.082260, -632.662476
1733468608.623120, -1.847575, -3.120992, -1.023072, 2.145899, 2.727426, -1.883546, -55.785873, -84.648132, -632.577515
1733468608.633133, -1.233313, -2.913743, -0.440982, 2.121039, 2.793735, -1.800969, -54.919693, -85.451324, -632.028625
1733468608.643119, -0.712275, -2.841468, 0.223409, 2.024875, 2.866832, -1.736299, -53.866730, -85.948959, -630.770386
1733468608.653117, -0.279972, -2.775029, 0.993743, 1.873486, 2.916302, -1.656069, -52.327591, -86.478912, -630.736816
1733468608.663117, 0.284012, -2.502539, 1.474529, 1.760327, 3.012888, -1.550877, -51.620789, -87.004150, -630.207886
1733468608.673118, 0.931644, -2.642600, 1.395969, 1.729154, 3.109455, -1.446000, -50.525818, -87.329849, -629.986755
1733468608.683119, 1.388038, -2.972850, 1.458069, 1.731029, 3.152871, -1.324420, -49.390427, -87.706299, -629.239136
1733468608.693124, 1.822885, -2.855385, 1.786074, 1.771996, 3.166914, -1.168882, -48.434494, -87.979263, -628.453308
1733468608.703116, 2.283769, -2.736273, 1.987038, 1.845236, 3.180348, -0.943365, -47.266220, -88.247345, -628.127686
1733468608.713117, 2.701557, -2.352752, 2.367865, 1.864962, 3.147716, -0.706071, -46.788269, -88.644684, -627.755127
1733468608.723118, 2.862567, -1.905485, 3.176806, 1.776542, 3.086605, -0.510494, -46.359009, -88.698929, -626.835205
1733468608.733114, 2.852392, -1.856703, 3.853767, 1.623688, 3.027155, -0.382783, -45.832565, -88.751862, -626.250366
1733468608.743113, 2.632874, -2.053926, 3.871574, 1.562323, 2.935978, -0.334952, -45.586884, -88.805908, -625.754272
1733468608.753116, 2.265214, -2.517653, 3.353079, 1.708255, 2.867688, -0.355283, -45.391205, -89.012268, -625.325317
1733468608.763112, 1.945139, -3.066523, 2.390760, 2.042539, 2.881109, -0.396590, -44.733017, -89.115341, -624.441162
1733468608.773114, 1.807622, -3.421913, 1.775899, 2.453067, 2.909626, -0.433086, -44.569458, -89.168503, -623.584595
1733468608.783119, 1.838148, -3.605817, 2.150442, 2.789947, 2.905766, -0.508719, -44.314301, -89.164368, -622.529419
1733468608.793137, 1.620725, -3.581277, 3.544616, 3.000080, 2.933145, -0.616233, -43.777954, -89.524048, -621.396118
1733468608.803130, 1.572392, -3.807828, 5.377826, 3.075422, 2.899067, -0.717784, -43.756546, -89.469772, -619.413818
1733468608.813123, 1.913865, -3.979911, 7.797616, 3.039438, 2.720318, -0.814240, -43.382751, -89.388489, -618.810547
1733468608.823175, 2.476951, -4.485686, 10.300604, 2.943081, 2.415323, -0.891254, -43.099976, -89.659332, -617.876953
1733468608.833117, 3.168127, -5.076456, 12.403611, 2.773195, 2.178363, -1.032552, -42.979034, -89.361603, -616.719727
1733468608.843137, 3.796905, -6.136488, 13.763816, 2.556045, 2.032778, -1.271683, -42.837860, -89.393509, -615.769653
1733468608.853113, 5.027524, -7.630021, 15.033192, 2.298089, 1.736918, -1.461219, -42.447449, -89.400818, -614.858154
1733468608.863121, 7.093571, -7.942764, 17.089961, 2.005566, 1.259858, -1.529430, -41.975815, -89.381836, -613.749390
1733468608.873113, 9.260922, -7.762900, 18.865112, 1.662671, 0.782085, -1.502993, -41.422836, -89.244446, -612.928894
1733468608.883120, 11.126304, -7.944260, 19.736152, 1.317728, 0.386988, -1.398953, -41.000061, -89.336700, -612.344116
1733468608.893118, 12.593800, -8.077587, 19.873221, 1.043655, 0.097065, -1.187961, -40.026138, -88.887848, -611.407715
1733468608.903127, 13.738378, -8.152107, 19.502119, 0.804272, -0.057674, -0.862218, -39.477448, -88.942703, -610.496826
1733468608.913119, 14.354137, -7.847295, 19.160796, 0.506640, -0.075279, -0.455439, -39.234375, -88.860352, -610.942627
1733468608.923115, 14.433295, -7.549816, 18.961179, 0.156211, 0.099600, 0.008672, -38.932449, -88.856888, -611.053101
1733468608.933126, 14.160057, -7.430405, 18.517504, -0.204046, 0.300990, 0.458302, -39.034607, -88.786301, -611.134644
1733468608.942493, 13.361890, -7.412299, 18.427871, -0.536322, 0.330664, 0.804888, -39.478668, -88.837845, -611.274048
1733468608.953116, 12.271181, -7.591265, 18.482040, -0.775115, 0.172819, 1.032152, -40.061279, -88.900986, -611.544373
1733468608.963108, 10.999112, -7.844153, 18.116774, -0.914214, -0.112632, 1.141810, -40.472794, -88.989105, -611.671265
1733468608.973104, 9.557354, -7.971644, 17.545757, -1.004306, -0.465118, 1.136292, -40.843079, -89.115479, -612.054138
1733468608.983154, 8.237700, -8.259846, 16.940024, -1.075006, -0.872349, 1.069500, -41.337555, -89.115479, -612.423523
1733468608.992618, 7.042395, -8.161235, 16.351948, -1.127303, -1.303796, 0.975197, -41.378433, -89.111954, -613.020813
1733468609.003127, 6.018125, -7.918523, 15.601665, -1.171318, -1.677933, 0.869555, -41.992172, -89.311111, -613.080200
1733468609.013114, 5.288642, -7.796568, 14.430153, -1.178561, -1.965576, 0.758444, -42.200180, -89.337585, -614.162170
1733468609.023110, 4.697124, -7.641992, 13.106608, -1.154456, -2.151489, 0.667211, -42.044159, -89.311157, -614.239990
1733468609.033192, 4.438850, -7.309947, 11.894095, -1.132247, -2.242350, 0.665340, -41.802475, -89.217087, -614.611206
1733468609.043108, 4.568137, -6.766762, 10.869077, -1.139906, -2.261696, 0.738477, -42.153946, -89.394806, -614.956421
1733468609.053114, 4.721515, -6.165219, 10.200945, -1.191953, -2.293710, 0.857187, -42.572784, -89.346085, -615.238770
1733468609.063123, 4.533870, -5.792322, 9.968109, -1.317689, -2.326553, 0.947247, -42.783630, -89.258316, -615.897339
1733468609.073106, 4.053683, -5.637597, 9.713126, -1.495173, -2.392668, 0.986170, -43.176300, -89.399078, -616.551270
1733468609.083172, 3.582175, -5.532551, 9.326014, -1.645161, -2.537779, 1.008608, -43.425003, -89.570175, -617.180786
1733468609.093116, 3.204789, -5.208885, 8.729409, -1.727176, -2.773065, 1.011352, -43.839066, -89.529327, -617.615906
1733468609.103116, 2.749441, -4.969016, 7.936479, -1.735461, -3.041488, 0.997262, -44.260040, -89.630508, -617.729248
1733468609.113109, 2.273594, -4.787505, 6.875998, -1.697393, -3.222093, 0.985311, -44.722733, -89.611359, -618.934692
1733468609.123123, 1.979406, -4.620809, 5.535993, -1.637531, -3.300347, 0.990747, -45.182953, -89.410980, -619.421631
1733468609.132886, 1.771410, -4.455310, 4.321085, -1.558153, -3.260536, 1.049315, -45.597778, -89.535812, -620.034912
1733468609.143103, 1.789666, -4.242376, 3.166182, -1.467572, -3.099645, 1.170068, -46.145767, -89.247681, -620.408875
1733468609.153116, 1.826776, -4.041562, 2.236633, -1.381681, -2.916582, 1.312526, -46.785370, -89.391541, -621.111633
1733468609.163098, 1.708113, -3.911527, 1.902642, -1.320569, -2.766484, 1.445972, -47.609100, -89.090210, -621.343933
1733468609.173166, 1.402254, -3.893271, 1.919551, -1.300081, -2.631202, 1.547551, -48.465149, -89.063477, -622.130249
1733468609.183104, 1.036689, -3.922750, 1.940351, -1.342646, -2.520484, 1.620741, -49.288498, -88.882294, -622.243164
1733468609.192238, 0.819266, -3.948936, 2.141464, -1.482154, -2.559336, 1.646330, -50.181686, -88.746216, -622.527649
1733468609.203096, 0.444124, -3.905691, 2.579303, -1.673612, -2.655337, 1.637180, -50.989670, -88.286682, -622.536865
1733468609.213120, 0.048632, -3.686771, 2.488473, -1.856449, -2.690650, 1.667756, -52.097137, -87.932739, -623.488464
1733468609.223112, -0.050578, -3.585018, 1.719635, -1.993639, -2.627393, 1.743515, -52.952408, -87.576965, -624.144592
1733468609.233105, -0.124798, -3.755455, 0.668730, -2.081315, -2.497418, 1.833834, -53.834030, -87.231277, -624.858459
1733468609.243113, -0.356287, -3.905242, -0.276081, -2.132833, -2.359797, 1.907594, -55.306641, -86.766342, -625.369873
1733468609.253112, -0.800112, -3.986495, -0.904110, -2.150850, -2.238590, 1.949621, -56.055374, -86.281494, -626.236633
1733468609.263102, -1.403152, -4.211999, -1.652448, -2.115513, -2.052514, 1.950978, -57.299622, -85.575928, -626.793213
1733468609.273107, -1.968483, -4.783615, -2.566435, -2.052078, -1.857700, 1.897151, -58.391327, -85.028412, -627.212036
1733468609.283127, -2.458845, -5.247791, -3.005621, -1.980185, -1.759828, 1.841318, -59.472229, -84.473495, -627.898682
1733468609.293115, -2.554613, -5.374384, -3.032406, -1.886439, -1.737388, 1.799330, -60.310791, -83.926834, -628.516357
1733468609.303111, -2.433556, -5.537190, -2.956390, -1.804296, -1.839263, 1.774426, -61.233063, -83.300034, -628.358215
1733468609.313102, -2.404527, -5.584625, -2.528127, -1.781343, -2.045600, 1.761614, -62.247116, -82.502365, -629.076660
1733468609.323110, -2.773982, -5.322759, -1.959654, -1.832227, -2.303160, 1.713122, -62.958221, -81.765579, -629.533569
1733468609.333022, -3.440917, -5.031564, -1.718438, -1.951130, -2.488074, 1.662823, -63.800842, -81.115372, -629.649109
1733468609.343107, -4.112490, -4.778078, -2.215534, -2.108014, -2.473801, 1.640790, -64.570740, -80.168365, -629.709229
1733468609.353103, -4.652981, -4.677073, -3.351134, -2.280797, -2.301368, 1.679084, -65.413559, -79.304749, -629.864868
1733468609.363100, -4.868310, -4.459949, -4.630236, -2.453734, -1.914303, 1.815012, -66.472061, -78.225342, -629.962830
1733468609.373095, -4.782567, -4.166659, -6.278644, -2.594412, -1.449218, 1.991111, -67.012146, -77.273148, -630.466919
1733468609.383104, -5.022885, -3.792565, -7.741950, -2.689187, -1.077857, 2.130487, -68.037354, -76.247498, -631.487122
1733468609.393103, -5.818658, -3.386000, -8.689306, -2.731328, -0.984625, 2.159039, -69.137924, -74.967957, -631.608704
1733468609.403104, -6.959495, -3.430292, -9.275437, -2.686870, -1.165691, 2.090233, -69.757248, -73.884293, -631.452209
1733468609.413153, -8.161684, -3.847183, -10.287885, -2.533988, -1.349489, 2.007772, -70.226761, -72.691940, -632.588196
1733468609.423097, -9.337686, -3.903147, -12.026823, -2.325015, -1.339170, 1.907522, -70.778305, -71.450531, -633.297852
1733468609.433102, -10.468198, -4.158429, -13.936798, -2.123919, -1.158086, 1.800535, -71.551453, -70.411636, -633.441833
1733468609.443160, -11.396101, -4.684704, -15.633538, -1.948709, -0.837716, 1.642405, -72.261963, -69.329376, -633.938354
1733468609.453099, -12.477532, -5.069872, -17.103877, -1.784480, -0.509044, 1.380828, -72.650284, -68.565521, -633.967163
1733468609.463095, -13.500903, -5.455488, -18.258631, -1.567070, -0.284935, 1.061053, -72.885483, -67.760712, -634.144165
1733468609.473141, -13.885173, -5.917269, -19.333478, -1.233744, -0.164259, 0.760189, -73.042938, -67.480133, -634.525024
1733468609.483114, -13.856592, -6.007800, -20.402040, -0.821404, -0.080707, 0.498839, -73.044037, -67.072067, -634.655151
1733468609.492761, -13.575273, -6.090550, -21.289690, -0.414519, -0.020593, 0.256905, -73.070251, -66.978760, -635.066040
1733468609.503111, -13.327174, -6.266075, -21.623232, -0.028680, 0.068395, 0.046185, -73.136978, -66.939087, -634.451050
1733468609.513109, -13.037775, -6.392219, -21.805940, 0.366616, 0.228270, -0.139058, -73.063873, -67.258133, -634.911255
1733468609.523111, -12.623129, -6.627749, -21.862204, 0.775243, 0.379841, -0.290676, -72.896271, -67.617737, -634.819580
1733468609.533094, -12.219556, -6.768857, -21.316326, 1.193284, 0.484969, -0.447974, -72.955124, -68.054749, -634.872498
1733468609.543117, -11.950807, -6.987926, -20.311509, 1.575917, 0.556266, -0.622037, -72.834244, -68.596710, -634.710144
1733468609.553103, -11.715727, -7.250540, -19.037046, 1.895869, 0.675169, -0.808685, -72.276398, -69.364395, -633.980591
1733468609.563104, -11.499650, -7.424419, -17.602769, 2.106891, 0.801829, -0.978771, -72.005692, -70.244095, -633.985168
1733468609.573097, -11.196035, -7.444770, -15.693244, 2.188081, 0.890272, -1.123802, -71.239685, -70.999802, -633.619507
1733468609.583096, -10.704625, -7.350648, -13.659369, 2.153547, 0.962943, -1.232867, -70.931961, -71.869095, -633.119873
1733468609.592167, -10.144232, -7.208043, -11.833940, 2.018657, 1.013345, -1.312472, -70.383255, -72.502945, -632.928589
1733468609.603107, -9.531167, -7.034763, -10.312874, 1.832944, 1.064131, -1.364566, -69.752213, -73.513031, -632.076904
1733468609.613118, -8.990826, -6.778883, -9.270798, 1.642115, 1.138222, -1.398464, -69.249863, -74.218597, -632.715271
1733468609.623098, -8.397662, -6.569540, -8.800038, 1.510250, 1.256749, -1.391289, -68.398315, -74.916077, -632.425415
1733468609.633098, -7.737162, -6.417508, -8.878149, 1.463919, 1.442778, -1.361941, -67.795929, -75.674011, -632.629089
1733468609.643101, -6.998850, -6.030844, -8.806023, 1.473360, 1.675802, -1.338348, -67.391983, -76.453979, -632.274536
1733468609.653088, -6.665607, -6.065111, -8.249222, 1.507788, 1.875534, -1.335022, -66.836838, -77.274292, -632.798279
1733468609.663096, -6.409128, -5.773917, -7.284059, 1.569133, 1.956256, -1.358325, -66.014709, -77.867783, -632.709961
1733468609.673099, -6.071845, -5.216217, -6.215048, 1.650008, 1.905653, -1.396167, -65.362732, -78.734695, -632.479614
1733468609.683098, -5.695207, -4.763563, -5.345654, 1.730580, 1.744674, -1.450939, -65.061996, -79.470474, -632.454163
1733468609.693098, -5.371242, -4.468029, -4.766706, 1.794585, 1.570686, -1.524804, -63.672531, -80.091171, -631.865234
1733468609.703102, -5.105336, -4.251204, -4.428375, 1.817268, 1.462489, -1.611367, -62.964218, -80.849686, -630.778198
1733468609.713101, -4.810550, -4.394408, -4.627693, 1.813693, 1.521094, -1.709725, -62.060287, -81.889648, -631.294067
1733468609.723093, -4.450671, -4.714782, -4.891504, 1.833483, 1.768520, -1.830939, -61.306747, -82.376297, -630.978760
1733468609.733092, -3.930531, -4.612280, -4.501249, 1.906693, 1.998160, -1.955894, -60.034927, -83.428909, -631.085266
1733468609.743096, -3.267636, -4.328866, -3.811569, 2.049340, 2.120023, -2.061383, -58.741394, -84.067352, -630.099060
1733468609.753088, -2.525135, -3.872172, -2.960730, 2.239239, 2.111469, -2.132869, -57.489822, -84.865295, -629.567749
1733468609.763092, -1.801337, -3.190124, -2.110040, 2.395894, 2.071990, -2.142919, -56.318817, -85.393219, -628.760437
1733468609.773091, -1.022025, -2.758719, -1.311424, 2.459742, 2.115932, -2.067705, -55.175507, -85.943787, -627.875427
1733468609.783092, -0.427515, -2.557905, -0.482432, 2.435615, 2.256179, -1.910115, -54.084488, -86.650864, -627.141113
1733468609.793097, -0.038756, -2.788497, 0.290447, 2.338115, 2.473841, -1.737009, -53.460617, -87.149628, -626.586670
1733468609.803110, 0.183156, -3.422960, 0.971447, 2.170887, 2.712751, -1.639569, -52.233200, -87.650986, -625.320251
1733468609.813102, 0.348356, -3.499275, 1.609352, 1.977480, 2.895162, -1.590667, -51.264694, -87.867493, -625.172363
1733468609.823097, 0.673070, -2.994697, 1.855506, 1.798540, 3.079250, -1.537993, -50.184280, -88.297272, -625.060547
1733468609.833093, 1.207575, -2.556858, 2.188001, 1.629864, 3.219401, -1.455536, -49.306686, -88.559769, -624.373352
1733468609.843088, 1.761085, -2.075623, 2.549974, 1.469270, 3.271531, -1.331328, -48.536240, -88.526733, -623.815735
1733468609.853095, 2.142212, -1.846528, 2.763358, 1.329445, 3.208087, -1.194228, -47.664764, -88.690109, -623.970947
1733468609.863090, 2.322974, -1.991976, 2.495207, 1.270258, 3.023160, -1.067816, -47.421860, -88.775864, -623.431763
1733468609.873087, 2.552369, -2.381782, 1.569698, 1.340315, 2.846557, -0.966253, -46.755249, -88.801376, -622.886536
1733468609.883090, 2.574365, -2.452560, 0.785149, 1.561573, 2.662986, -0.877407, -46.250931, -88.970413, -622.500854
1733468609.893094, 2.442086, -1.851017, 0.349254, 1.895796, 2.513395, -0.758124, -46.250931, -88.970413, -622.500854
1733468609.903091, 2.180220, -1.728464, 0.228197, 2.255323, 2.505118, -0.674814, -45.810684, -88.996796, -621.741943
1733468609.913090, 1.996914, -1.744176, 0.851887, 2.549927, 2.543422, -0.657544, -45.625031, -89.127640, -619.850830
1733468609.923086, 1.980753, -1.510442, 1.958307, 2.732315, 2.534082, -0.680423, -45.345993, -89.067749, -619.140930
1733468609.933148, 1.990629, -1.486500, 2.805855, 2.871225, 2.456040, -0.716437, -44.899307, -89.135437, -618.362915
1733468609.943084, 1.870919, -1.137545, 3.526958, 3.042747, 2.342582, -0.723836, -44.608032, -88.956558, -616.997620
1733468609.953085, 1.781735, -1.179444, 4.276044, 3.217005, 2.256772, -0.714107, -44.071640, -88.911072, -615.793152
1733468609.963089, 1.781735, -1.565658, 5.059247, 3.420399, 2.247969, -0.648066, -44.043854, -88.740356, -613.877197
1733468609.973080, 1.502960, -1.875558, 6.273108, 3.613508, 2.408044, -0.536590, -43.720871, -88.579208, -612.717773
1733468609.983093, 1.201889, -2.671181, 8.177246, 3.662552, 2.712109, -0.498948, -44.066422, -88.407928, -611.339905
1733468609.993089, 1.440711, -3.498677, 10.752210, 3.484059, 2.959172, -0.567512, -44.437546, -88.216629, -609.736633
1733468610.003085, 2.140865, -3.831620, 13.541904, 3.169332, 2.948762, -0.654251, -44.536774, -87.887726, -608.701050
1733468610.013085, 2.936788, -4.070442, 16.101904, 2.821536, 2.609028, -0.747048, -44.633423, -87.728790, -607.079224
1733468610.023090, 4.081515, -4.750246, 18.147749, 2.498231, 1.968244, -0.857505, -44.842865, -87.437561, -606.934021
1733468610.033101, 5.291784, -5.551256, 19.014301, 2.198097, 1.254386, -0.956736, -44.758087, -87.364319, -606.014221
1733468610.043089, 6.601413, -6.508787, 18.748395, 1.900924, 0.825834, -1.017069, -44.457840, -87.182251, -605.590515
1733468610.053086, 8.188918, -7.090279, 18.211196, 1.597373, 0.785870, -0.967567, -44.088287, -86.879791, -604.569153
1733468610.063092, 9.647436, -7.557148, 17.988385, 1.276486, 1.061924, -0.831084, -44.046478, -86.592865, -604.078979
1733468610.073094, 10.788871, -7.962516, 18.616265, 0.954983, 1.472169, -0.643153, -44.304169, -86.629532, -603.540039
1733468610.083088, 11.435755, -7.753173, 19.804238, 0.629870, 1.769066, -0.390259, -44.408875, -86.497162, -603.485168
1733468610.093099, 11.647791, -7.795970, 20.904822, 0.360657, 1.837303, -0.124471, -44.645401, -86.602188, -604.018188
1733468610.103087, 11.752687, -7.748834, 22.509536, 0.216806, 1.483408, 0.147688, -44.685303, -86.745132, -603.757996
1733468610.113092, 11.427225, -7.638850, 24.179641, 0.113804, 0.706260, 0.416171, -45.049057, -86.482834, -603.647461
1733468610.123085, 10.176255, -7.854777, 24.535180, -0.066567, -0.097920, 0.605088, -45.143463, -86.589111, -603.586548
1733468610.133086, 8.619276, -8.286332, 23.614909, -0.355963, -0.575415, 0.681935, -45.214462, -86.477097, -603.752930
1733468610.143082, 7.609671, -8.425046, 22.524948, -0.696610, -0.785141, 0.709449, -45.477554, -86.671585, -604.525085
1733468610.153082, 6.901286, -8.340501, 21.384111, -1.018387, -0.939990, 0.714455, -45.686996, -86.678009, -604.599609
1733468610.163086, 6.363040, -8.224232, 19.861998, -1.254333, -1.071652, 0.702667, -45.702408, -86.832840, -605.124878
1733468610.173099, 6.035782, -7.847594, 18.578406, -1.403985, -1.253105, 0.707348, -45.669769, -86.893112, -605.477417
1733468610.182764, 5.557241, -7.527370, 17.205182, -1.500725, -1.471792, 0.721132, -45.580170, -86.969070, -605.885559
1733468610.193082, 5.094711, -7.254730, 15.522657, -1.528575, -1.599514, 0.757372, -45.563690, -87.078232, -606.312927
1733468610.203101, 4.609586, -6.885724, 14.232332, -1.510860, -1.673683, 0.814764, -45.830215, -87.191559, -606.765076
1733468610.213090, 3.964948, -6.717980, 13.357850, -1.461072, -1.752031, 0.855985, -45.838379, -87.288055, -606.893188
1733468610.223080, 3.390489, -6.642563, 12.810475, -1.406485, -1.860426, 0.881519, -45.812286, -87.400986, -607.817688
1733468610.233127, 2.838625, -6.493374, 12.511350, -1.376807, -2.017959, 0.885050, -46.021713, -87.458267, -607.974854
1733468610.243087, 2.392556, -6.391920, 12.123938, -1.374976, -2.187088, 0.881927, -46.066391, -87.647202, -608.362427
1733468610.253089, 2.164059, -6.083966, 11.623699, -1.417011, -2.309605, 0.908762, -46.089264, -87.752243, -608.835815
1733468610.263089, 1.939004, -5.634754, 11.177330, -1.514229, -2.397118, 0.972326, -46.289047, -87.888580, -609.153564
1733468610.273143, 1.707964, -5.361515, 10.637438, -1.641362, -2.469499, 1.032986, -46.473587, -87.899780, -609.800781
1733468610.283094, 1.289427, -5.249886, 9.792883, -1.792175, -2.520274, 1.074066, -46.728119, -87.958923, -610.152283
1733468610.293095, 0.869245, -5.251681, 8.672397, -1.918843, -2.534146, 1.076840, -46.996353, -88.046570, -610.773132
1733468610.303088, 0.604985, -5.293730, 7.475745, -2.002338, -2.522306, 1.041519, -47.180420, -88.417145, -610.880981
1733468610.313094, 0.529268, -5.323657, 6.432322, -2.028489, -2.517877, 0.981043, -47.443787, -88.244522, -612.087158
1733468610.323094, 0.642394, -5.074361, 5.601085, -2.006274, -2.536728, 0.960395, -47.703232, -88.562515, -612.684448
1733468610.333083, 0.723498, -4.797980, 4.932654, -1.957757, -2.570705, 0.978016, -48.002869, -88.463577, -613.194641
1733468610.343083, 0.592415, -4.626645, 4.344728, -1.922333, -2.604884, 1.009401, -48.206161, -88.621521, -613.856201
1733468610.353072, 0.419434, -4.530578, 3.772065, -1.899249, -2.650197, 1.031127, -48.670563, -88.561722, -614.660522
1733468610.363122, 0.281468, -4.541651, 3.188179, -1.838381, -2.715304, 1.046440, -48.890747, -88.754868, -615.331909
1733468610.373073, 0.300921, -4.629638, 2.574365, -1.727613, -2.771795, 1.059642, -49.445114, -88.746826, -615.745361
1733468610.383097, 0.280870, -4.736180, 2.261922, -1.608599, -2.834753, 1.073843, -49.999237, -88.660782, -616.268433
1733468610.393079, 0.024241, -4.603302, 2.019509, -1.520454, -2.866170, 1.112721, -50.464005, -88.565857, -616.407959
1733468610.403075, -0.028730, -4.561403, 1.682376, -1.467032, -2.778438, 1.173887, -50.609024, -88.577515, -616.259277
1733468610.413087, -0.163105, -4.715679, 1.482160, -1.476954, -2.591407, 1.244893, -51.277740, -88.522293, -617.183167
1733468610.423097, -0.566977, -4.892401, 1.288230, -1.565659, -2.301198, 1.289617, -52.176620, -88.124435, -617.670349
1733468610.433074, -0.852635, -5.032313, 1.256806, -1.725225, -1.954103, 1.292197, -52.889694, -87.931747, -618.298340
1733468610.443075, -1.032499, -5.126884, 1.372027, -1.939845, -1.653648, 1.261726, -53.274231, -87.844650, -619.175903
1733468610.453075, -1.100884, -5.162797, 1.573290, -2.158337, -1.495248, 1.183149, -54.086212, -87.673584, -620.053284
1733468610.463138, -0.973542, -4.897938, 1.789366, -2.339625, -1.553459, 1.074765, -54.826370, -87.641907, -620.975952
1733468610.473082, -0.776918, -4.513220, 1.682824, -2.428673, -1.825953, 0.994288, -55.224014, -87.333679, -621.771973
1733468610.483077, -0.527622, -4.464139, 0.939425, -2.408458, -2.177016, 0.952800, -55.824066, -87.073761, -622.845642
1733468610.493090, -0.486322, -4.472668, -0.177470, -2.308178, -2.444166, 0.953540, -56.281342, -86.717514, -623.836731
1733468610.503079, -0.683245, -4.366575, -1.186177, -2.179283, -2.534974, 0.979121, -56.672394, -86.464218, -623.628052
1733468610.512768, -0.700304, -4.503493, -1.857900, -2.077040, -2.493359, 0.999792, -57.626602, -85.983871, -624.251526
1733468610.523090, -0.550517, -4.526089, -2.227805, -2.002784, -2.401605, 1.051682, -58.141968, -85.557266, -624.613586
1733468610.533076, -0.460435, -4.078223, -2.271798, -1.969491, -2.252270, 1.150312, -58.657257, -85.160904, -625.364380
1733468610.543092, -0.581192, -3.778798, -2.103755, -2.022588, -2.048348, 1.276130, -59.337082, -84.728439, -625.901978
1733468610.553086, -0.850839, -3.531747, -1.761235, -2.150303, -1.898995, 1.398071, -60.145645, -84.103806, -626.076721
1733468610.563073, -1.150863, -3.201945, -1.582717, -2.304940, -1.827393, 1.528811, -61.191437, -83.594299, -626.844971
1733468610.573088, -1.518073, -3.383905, -1.836951, -2.466424, -1.803651, 1.621352, -61.945801, -82.947678, -627.301270
1733468610.583083, -1.944391, -3.454234, -2.253093, -2.637472, -1.851707, 1.655363, -62.912491, -82.315018, -628.774109
1733468610.593131, -2.276587, -3.164536, -3.029713, -2.790220, -1.911005, 1.654327, -63.831833, -81.469803, -629.400208
1733468610.603069, -2.408866, -2.784008, -4.268712, -2.886429, -1.975407, 1.686741, -64.300461, -80.594604, -629.026733
1733468610.613070, -2.587533, -2.099116, -5.861006, -2.891079, -2.012926, 1.847156, -65.273575, -79.564636, -630.113953
1733468610.623151, -3.148076, -1.619827, -7.599495, -2.802015, -2.007561, 2.093334, -65.967606, -78.203278, -630.859192
1733468610.633065, -4.302380, -2.104653, -9.344569, -2.673945, -1.950416, 2.267376, -67.432220, -77.243896, -631.077881
1733468610.643069, -5.557990, -2.716521, -10.889128, -2.522396, -1.880029, 2.320519, -68.263977, -76.137802, -631.621155
1733468610.653125, -6.716185, -2.862867, -12.346000, -2.314522, -1.772946, 2.340522, -69.352997, -74.876099, -631.361572
1733468610.663061, -7.791630, -3.388693, -13.692739, -2.063271, -1.585417, 2.315470, -69.958542, -73.832245, -631.326599
1733468610.673089, -8.864681, -4.002956, -14.671368, -1.817593, -1.341221, 2.228491, -70.839630, -72.717560, -631.964722
1733468610.683078, -10.095151, -4.279785, -15.106365, -1.592709, -1.102524, 2.108841, -71.651779, -71.735062, -632.137085
1733468610.693135, -11.282226, -5.031864, -15.105018, -1.421523, -1.018613, 1.918946, -72.203796, -70.689713, -631.920532
1733468610.703083, -12.367847, -5.989694, -15.515025, -1.289768, -1.070739, 1.659409, -72.851059, -70.058884, -631.768066
1733468610.713067, -13.205070, -6.635380, -16.459388, -1.151590, -1.106163, 1.362795, -73.147552, -69.312256, -631.731873
1733468610.723124, -13.599365, -7.181707, -17.530494, -0.993483, -1.089154, 1.052894, -73.377838, -68.874924, -631.434265
1733468610.733068, -13.692589, -7.345860, -18.535460, -0.805707, -0.985043, 0.788519, -73.483429, -68.359497, -631.724121
1733468610.743072, -13.770251, -7.255179, -19.268834, -0.585445, -0.774986, 0.597209, -73.641876, -68.319016, -631.370483
1733468610.753070, -13.811401, -7.330447, -19.716400, -0.361056, -0.467865, 0.463948, -73.850601, -67.873032, -631.410767
1733468610.763068, -13.807062, -7.476942, -19.777901, -0.153422, -0.096821, 0.341693, -74.044220, -67.846695, -631.376404
1733468610.773075, -13.814843, -7.651569, -19.491794, 0.031831, 0.257320, 0.215638, -74.087753, -67.699829, -631.591064
1733468610.783079, -13.867515, -7.878869, -19.059491, 0.224594, 0.561373, 0.046310, -73.857376, -68.075989, -632.170776
1733468610.793076, -13.763517, -7.918074, -18.373702, 0.428569, 0.753164, -0.168431, -73.762802, -68.248917, -631.652405
1733468610.803081, -13.569587, -7.703493, -17.581670, 0.653742, 0.809607, -0.421945, -73.705368, -68.689590, -631.716675
1733468610.813078, -13.212551, -7.360973, -16.900670, 0.919653, 0.782243, -0.680344, -73.326797, -69.219421, -632.223999
1733468610.823066, -12.634501, -7.079355, -16.174478, 1.186253, 0.764062, -0.914885, -72.852753, -69.963074, -632.155212
1733468610.833071, -12.143241, -6.827964, -15.330971, 1.413723, 0.798594, -1.125081, -72.439651, -70.743408, -632.194031
1733468610.843072, -11.585243, -6.635081, -14.455441, 1.717237, 1.111317, -1.435055, -71.838348, -71.528961, -631.701599
1733468610.853060, -10.876260, -6.444293, -13.397952, 1.796386, 1.315326, -1.524361, -71.200317, -72.449677, -631.710449
1733468610.863058, -10.338013, -6.253505, -12.250382, 1.819836, 1.526115, -1.593686, -70.726288, -73.264709, -631.428833
1733468610.873064, -9.899575, -6.086809, -10.960506, 1.784861, 1.686707, -1.660601, -70.013428, -74.164581, -631.644287
1733468610.883089, -9.522638, -5.844097, -9.625140, 1.731113, 1.796489, -1.730644, -69.193695, -75.044327, -631.502869
1733468610.893065, -9.096470, -5.577891, -8.532935, 1.679330, 1.848948, -1.798234, -68.419525, -75.971710, -631.520325
1733468610.903065, -8.491485, -5.396680, -7.623886, 1.633542, 1.825324, -1.862541, -67.496429, -77.046219, -630.954102
1733468610.913075, -7.782801, -5.344457, -6.764817, 1.602720, 1.744431, -1.910914, -66.653244, -77.914902, -631.310181
1733468610.923064, -7.255778, -5.141698, -6.088006, 1.616518, 1.726745, -1.952577, -65.776672, -78.767761, -631.184753
1733468610.933064, -6.888118, -4.869657, -5.769876, 1.634523, 1.776225, -1.981155, -64.721146, -79.740677, -631.470215
1733468610.943060, -6.479159, -4.692935, -5.327248, 1.629691, 1.865191, -2.001003, -63.655579, -80.451218, -630.713684
1733468610.953065, -6.037279, -4.559907, -4.862175, 1.629182, 1.996611, -2.020565, -62.954193, -81.108505, -630.770569
1733468610.963060, -5.702390, -4.344279, -4.545392, 1.656436, 2.151190, -2.047718, -61.535278, -82.123245, -630.874573
1733468610.973060, -5.354931, -4.123863, -4.226215, 1.709605, 2.267954, -2.087934, -60.537018, -82.761032, -630.407166
1733468610.982182, -4.952855, -3.895516, -3.605967, 1.709605, 2.267954, -2.087934, -59.475220, -83.738266, -630.463867
1733468610.993057, -4.477606, -3.718794, -2.787449, 1.826991, 2.194112, -2.252038, -58.000702, -84.482697, -629.878296
1733468611.002276, -4.001758, -3.474585, -1.916708, 1.826991, 2.194112, -2.252038, -57.210434, -85.294098, -628.901794
1733468611.013064, -3.385551, -3.246089, -1.319654, 1.970735, 1.898769, -2.438894, -55.848511, -85.880188, -628.888733
1733468611.023120, -2.685396, -3.210774, -0.858770, 2.043836, 1.726317, -2.523171, -54.596436, -86.623428, -628.174744
1733468611.033057, -2.044499, -3.036746, -0.352546, 2.098026, 1.565140, -2.589620, -53.416702, -87.325943, -627.371887
1733468611.043057, -1.173009, -3.074305, -0.090980, 2.139254, 1.486068, -2.610137, -51.817154, -87.766708, -626.380249
1733468611.053065, -0.195277, -3.318962, -0.242114, 2.210978, 1.538755, -2.532901, -50.397842, -88.434021, -625.848511
1733468611.063075, 0.592565, -2.863764, -0.435146, 2.280996, 1.780390, -2.380033, -48.893585, -88.777573, -624.580750
1733468611.073068, 1.215207, -2.305915, -0.489016, 2.281525, 2.123944, -2.188312, -47.954086, -89.120407, -623.940369
1733468611.083060, 1.793407, -1.984943, 0.027982, 2.166100, 2.410743, -1.990399, -46.990402, -89.377640, -622.739380
1733468611.093057, 2.197877, -1.507898, 1.063624, 1.953967, 2.603282, -1.800692, -45.929840, -89.642883, -621.981750
1733468611.103059, 2.473360, -1.095347, 1.803881, 1.751734, 2.659264, -1.642866, -45.347702, -89.753586, -620.617432
1733468611.113072, 2.712481, -1.182287, 2.132037, 1.741924, 2.416292, -1.545377, -44.975677, -90.057175, -620.971069
1733468611.123075, 2.853290, -1.427094, 2.347215, 1.998030, 2.081960, -1.491084, -43.833481, -89.940292, -620.113281
1733468611.133058, 3.021183, -2.011129, 1.522114, 2.454943, 1.904460, -1.477090, -43.338547, -89.921417, -619.056641
1733468611.143058, 2.910152, -2.486378, 0.718410, 2.925044, 1.806441, -1.509748, -42.526291, -89.961166, -617.491577
1733468611.152171, 2.682254, -2.560000, 1.548899, 3.233896, 1.704120, -1.548796, -41.906982, -89.829666, -615.545959
1733468611.163058, 2.745551, -2.349610, 3.223643, 3.317091, 1.761489, -1.560505, -40.970169, -89.624283, -614.220032
1733468611.173058, 2.876035, -1.987636, 4.703708, 3.125674, 1.893154, -1.555455, -40.492004, -89.356979, -612.774902
1733468611.183058, 2.926912, -1.693149, 6.380697, 2.696782, 1.980464, -1.583916, -40.178284, -89.392624, -611.445862
1733468611.193059, 3.084330, -1.880196, 7.822306, 2.250733, 2.078909, -1.654463, -39.354538, -89.102615, -610.403809
1733468611.203054, 3.563021, -2.495057, 8.267029, 1.964207, 2.227019, -1.702456, -38.866760, -89.075760, -609.245544
1733468611.213054, 4.129699, -2.888455, 8.272116, 1.822154, 2.312912, -1.742257, -38.406387, -88.726181, -608.843628
1733468611.223064, 4.737826, -3.187431, 8.555979, 1.735857, 2.361248, -1.794999, -38.278976, -88.533432, -607.906006
1733468611.233055, 5.777358, -3.570802, 9.033024, 1.644563, 2.418330, -1.820772, -37.756714, -88.454788, -607.303101
1733468611.243063, 6.950816, -3.750667, 9.554960, 1.605437, 2.443184, -1.797281, -37.365570, -88.264053, -606.752502
1733468611.253057, 8.280346, -3.912425, 10.583718, 1.603697, 2.254205, -1.682187, -37.182892, -87.928238, -605.928345
1733468611.263062, 10.020183, -3.825186, 12.497433, 1.553193, 1.894385, -1.491741, -36.727692, -87.674652, -605.516846
1733468611.273056, 11.610232, -3.875315, 14.379276, 1.394227, 1.553804, -1.343505, -37.020767, -87.358093, -604.643066
1733468611.283063, 12.534544, -4.662259, 15.633389, 1.127910, 1.281403, -1.274044, -36.703751, -87.339996, -604.369263
1733468611.293059, 13.394361, -5.388151, 16.443377, 0.853266, 1.007463, -1.211667, -36.372437, -87.218155, -603.804443
1733468611.303056, 14.383765, -5.519982, 16.867151, 0.660621, 0.821520, -1.113358, -36.014023, -86.995178, -603.101196
1733468611.313059, 15.142428, -5.659593, 16.663195, 0.516392, 0.693467, -0.993616, -35.646652, -86.883987, -603.353088
1733468611.323103, 15.569793, -5.772869, 16.508170, 0.423357, 0.535238, -0.850265, -35.233780, -86.622070, -603.535522
1733468611.333050, 15.722273, -5.647622, 16.612916, 0.384509, 0.294047, -0.686492, -34.961639, -86.762238, -603.166321
1733468611.343047, 15.671247, -5.521927, 16.892140, 0.355549, -0.088400, -0.501870, -34.386322, -86.766541, -603.245605
1733468611.353064, 15.628451, -5.361066, 17.461661, 0.295144, -0.543236, -0.272846, -34.396622, -86.406387, -602.430054
1733468611.363080, 15.437214, -5.032313, 17.750162, 0.162041, -0.841318, -0.028876, -34.396622, -86.406387, -602.430054
1733468611.373074, 14.927698, -5.019444, 17.280001, -0.046919, -0.970505, 0.212839, -34.245834, -86.420898, -602.612061
1733468611.382775, 14.182203, -5.000141, 16.729933, -0.300443, -1.031930, 0.428801, -34.067245, -86.474060, -602.794067
1733468611.393048, 13.437457, -4.910657, 16.292093, -0.551074, -1.178075, 0.616652, -33.841263, -86.606491, -602.737793
1733468611.403106, 12.676101, -4.829254, 15.918897, -0.756341, -1.296662, 0.811898, -33.833084, -86.730469, -602.903137
1733468611.413050, 12.049718, -4.689792, 14.816068, -0.942768, -1.253862, 1.035951, -33.822723, -86.796661, -602.817505
1733468611.423051, 11.514763, -4.449325, 13.513323, -1.148703, -1.160967, 1.257170, -34.098923, -87.037613, -604.085327
1733468611.433049, 10.775703, -4.204817, 12.771121, -1.354840, -1.107472, 1.454458, -34.314667, -87.500015, -604.367615
1733468611.443096, 9.878027, -4.074782, 11.955596, -1.500761, -1.056275, 1.609940, -34.830643, -87.650177, -605.087769
1733468611.453047, 8.970625, -4.025551, 10.843788, -1.581627, -1.042155, 1.705788, -35.184052, -88.044601, -605.729614
1733468611.463042, 8.070854, -4.100669, 9.831639, -1.593912, -1.110630, 1.735986, -35.994095, -88.118607, -606.363647
1733468611.473041, 7.239617, -4.278887, 9.032275, -1.539202, -1.287101, 1.716691, -36.752991, -88.529892, -607.370972
1733468611.483050, 6.578219, -4.368819, 8.453028, -1.431354, -1.606521, 1.665784, -37.026215, -88.966721, -607.947021
1733468611.493060, 5.936124, -4.363881, 8.119785, -1.281420, -2.042167, 1.587394, -37.973206, -89.052673, -608.496521
1733468611.503052, 5.322011, -4.364779, 7.835923, -1.121662, -2.494337, 1.494150, -38.069336, -89.214325, -609.407593
1733468611.513051, 4.785859, -4.339939, 7.342568, -0.973402, -2.880724, 1.432424, -38.489883, -89.338333, -609.394958
1733468611.523102, 4.403086, -4.261978, 6.617873, -0.842914, -3.109708, 1.410160, -38.839859, -89.469315, -609.870667
1733468611.533048, 4.078373, -4.258537, 5.578041, -0.743728, -3.136954, 1.421259, -38.788239, -89.649368, -610.770691
1733468611.543048, 3.732710, -4.293252, 4.483592, -0.678293, -2.992247, 1.443480, -39.327637, -89.458603, -610.541687
1733468611.553055, 3.506308, -4.294001, 3.638438, -0.660253, -2.768640, 1.481966, -39.639206, -89.765396, -610.961548
1733468611.563049, 3.395726, -4.291906, 3.094955, -0.680674, -2.498557, 1.558842, -40.164597, -89.837112, -611.289062
1733468611.573098, 3.403657, -4.075380, 2.676568, -0.717569, -2.193675, 1.649078, -40.711319, -89.975357, -611.757629
1733468611.583048, 3.254319, -3.996222, 2.356343, -0.762004, -1.929830, 1.710108, -41.469696, -89.776642, -611.718445
1733468611.593044, 3.034651, -4.238485, 2.390910, -0.794818, -1.853525, 1.737999, -42.238632, -89.898422, -612.551025
1733468611.603102, 2.991854, -4.423587, 2.819023, -0.789288, -1.974293, 1.768218, -43.132614, -90.083481, -612.846436
1733468611.613062, 2.832789, -4.312107, 3.177255, -0.752680, -2.183944, 1.786039, -43.911148, -90.095154, -613.016113
1733468611.623044, 2.464831, -4.352509, 3.154959, -0.680213, -2.414086, 1.786994, -44.393829, -90.038696, -613.011719
1733468611.633046, 2.082806, -4.569783, 2.963722, -0.566766, -2.665405, 1.772363, -45.344101, -90.068039, -613.455994
1733468611.643110, 1.692102, -4.783316, 2.936788, -0.457489, -2.880501, 1.750776, -46.184265, -89.923431, -613.417664
1733468611.653048, 1.458069, -4.895095, 2.726098, -0.391897, -2.972133, 1.744447, -46.575974, -89.914200, -613.735596
1733468611.663049, 1.293617, -5.036203, 2.285116, -0.364932, -2.918373, 1.766986, -47.311371, -89.771423, -613.571289
1733468611.673055, 1.151611, -5.188834, 1.806575, -0.369936, -2.744619, 1.836017, -48.189896, -89.602386, -613.385864
1733468611.683061, 1.074548, -5.091120, 1.522862, -0.422907, -2.577333, 1.919522, -49.037064, -89.298782, -613.229614
1733468611.693053, 1.125125, -5.060145, 1.669058, -0.542276, -2.479580, 2.009121, -49.704865, -89.178574, -613.474609
1733468611.703043, 1.126921, -5.118055, 1.769465, -0.700191, -2.365375, 2.105910, -50.713913, -89.094727, -613.217041
1733468611.713056, 0.789338, -5.106084, 1.486500, -0.855216, -2.259793, 2.184318, -51.800034, -88.855713, -613.883606
1733468611.722097, 0.157119, -5.080646, 1.387440, -0.934407, -2.419350, 2.191940, -52.803040, -88.566010, -613.649536
1733468611.733099, -0.662296, -5.310040, 1.723227, -0.905699, -2.753133, 2.135297, -53.771378, -88.157410, -614.417664
1733468611.743043, -1.435025, -5.663634, 1.427692, -0.774617, -3.072805, 2.042626, -54.387833, -88.034058, -613.869690
1733468611.753035, -2.102857, -6.018125, 0.612317, -0.593058, -3.264003, 1.972632, -55.331757, -87.527161, -613.169495
1733468611.763062, -2.494010, -6.169708, -0.242712, -0.421035, -3.258198, 1.959000, -55.853683, -87.279861, -613.020447
1733468611.773047, -2.754529, -6.161029, -0.891092, -0.359719, -3.034212, 1.993785, -56.585159, -86.837524, -612.454712
1733468611.783055, -2.782062, -6.255301, -1.215806, -0.454286, -2.714318, 2.093488, -57.283600, -86.264999, -611.864685
1733468611.793041, -2.816329, -6.012738, -1.139041, -0.656646, -2.387192, 2.227366, -57.868271, -86.026947, -611.902710
1733468611.803062, -3.035249, -5.733514, -1.035043, -0.874010, -2.228221, 2.352445, -58.907959, -85.523560, -611.494446
1733468611.813047, -3.366248, -5.483021, -0.801309, -1.044361, -2.260606, 2.496351, -59.686905, -85.013016, -611.888489
1733468611.823052, -3.654749, -5.030517, -0.872836, -1.144989, -2.337701, 2.718884, -60.854385, -84.370041, -611.952515
1733468611.832319, -3.999813, -4.652083, -1.376816, -1.186206, -2.364558, 2.950981, -61.648056, -83.761261, -611.781799
1733468611.843051, -4.878186, -4.768053, -1.899500, -1.243054, -2.265169, 3.105351, -62.831696, -82.871628, -612.127441
1733468611.853123, -6.185121, -5.376030, -2.453757, -1.399856, -2.071718, 3.131306, -64.169083, -82.042084, -612.086914
1733468611.863034, -7.715315, -5.982362, -2.870648, -1.638801, -1.865484, 3.035739, -65.159988, -81.079620, -612.181335
1733468611.873044, -9.352051, -6.246023, -3.393930, -1.925862, -1.641085, 2.852053, -66.061264, -80.358337, -612.155701
1733468611.883040, -10.687866, -6.437110, -4.341137, -2.185211, -1.476438, 2.637590, -67.127975, -79.594284, -612.392944
1733468611.893049, -11.642404, -6.691644, -5.631013, -2.284863, -1.320348, 2.466974, -67.774414, -78.758331, -613.118591
1733468611.903038, -12.235268, -6.976255, -7.399430, -2.211068, -1.135390, 2.358991, -68.436020, -78.071442, -612.638184
1733468611.913049, -12.351537, -7.390302, -9.119514, -2.031824, -0.997063, 2.306598, -69.146881, -77.196899, -613.809570
1733468611.923044, -12.595296, -7.792677, -10.274118, -1.820747, -0.874786, 2.229049, -70.127792, -76.409241, -614.387207
1733468611.933039, -13.496264, -8.196100, -10.945243, -1.651094, -0.772170, 2.062834, -70.489883, -75.717270, -614.783875
1733468611.943037, -14.767286, -8.857349, -11.263671, -1.532129, -0.712417, 1.791213, -71.069336, -75.071060, -614.913696
1733468611.953088, -16.046688, -9.709386, -11.651682, -1.378003, -0.661364, 1.436104, -71.288086, -74.657440, -615.523499
1733468611.963048, -17.225982, -10.413580, -12.256367, -1.142069, -0.572984, 1.033316, -71.802826, -74.092789, -615.443848
1733468611.973034, -18.047791, -11.054179, -12.969241, -0.884862, -0.436732, 0.617954, -71.977692, -73.846100, -615.605591
1733468611.983037, -18.302475, -11.569680, -13.399449, -0.657727, -0.294143, 0.230488, -71.977127, -73.898483, -615.440979
1733468611.993095, -18.136826, -11.713183, -13.513173, -0.459792, -0.100014, -0.085624, -71.830597, -73.778244, -615.870972
1733468612.003052, -17.825729, -11.470770, -13.666402, -0.273404, 0.187618, -0.335068, -71.699417, -74.182007, -615.336609
1733468612.013053, -17.400010, -11.212795, -13.646650, -0.127716, 0.474319, -0.537010, -71.575684, -74.290268, -616.124756
1733468612.023045, -16.919225, -11.074679, -13.139528, -0.009351, 0.738366, -0.712849, -71.379288, -74.461349, -616.426636
1733468612.033045, -16.416742, -10.994623, -12.650064, 0.129382, 1.019961, -0.870176, -70.985184, -74.936874, -616.905518
1733468612.043040, -15.874455, -10.929082, -12.337321, 0.293396, 1.259520, -1.031709, -71.047363, -75.357040, -617.466858
1733468612.053073, -15.336358, -10.744279, -11.682357, 0.455807, 1.405785, -1.214508, -70.714233, -75.929016, -617.754089
1733468612.063044, -14.791976, -10.305242, -10.699837, 0.600704, 1.485796, -1.411745, -70.266418, -76.457489, -617.890259
1733468612.073040, -14.169484, -9.877279, -9.720608, 0.724277, 1.547383, -1.602468, -69.535141, -77.059158, -618.001892
1733468612.083033, -12.656797, -8.831611, -7.798364, 0.788409, 1.625897, -1.748144, -69.036423, -77.631302, -618.289062
1733468612.093034, -11.883620, -8.260145, -6.750302, 0.783328, 1.719909, -1.849852, -68.252991, -78.543243, -618.903442
1733468612.103028, -11.168203, -7.754670, -5.818509, 0.713856, 1.816814, -1.928785, -67.734299, -79.148178, -618.239624
1733468612.113056, -10.431986, -7.366659, -5.354931, 0.596652, 1.958688, -1.987046, -67.098816, -80.006668, -619.224121
1733468612.123036, -9.700856, -6.886472, -5.278915, 0.467208, 2.186621, -2.025243, -66.307190, -80.591843, -619.441528
1733468612.133042, -8.838794, -6.442048, -5.361366, 0.360420, 2.468642, -2.039106, -65.172333, -81.349319, -620.604492
1733468612.143030, -7.943811, -5.970989, -5.508908, 0.319266, 2.764061, -2.022489, -64.824585, -81.928833, -621.021973
1733468612.152146, -7.943811, -5.970989, -5.508908, 0.353590, 3.047679, -1.980370, -63.706055, -82.685425, -621.840088
1733468612.163035, -6.346280, -5.315726, -5.124340, 0.475547, 3.176831, -1.936628, -62.716965, -83.244202, -622.308777
1733468612.173042, -5.830779, -4.895544, -4.394856, 0.656860, 3.141532, -1.918616, -62.105667, -83.769394, -622.936401
1733468612.183036, -5.363012, -4.521151, -3.769970, 0.864762, 3.012669, -1.935317, -61.092026, -84.333252, -623.164062
1733468612.193035, -4.923975, -4.270208, -3.261352, 1.032815, 2.928534, -1.962034, -60.087967, -84.954590, -623.484741
1733468612.203037, -4.427178, -4.056526, -2.756175, 1.105857, 2.939048, -1.987362, -59.030731, -85.615601, -623.349548
1733468612.213030, -3.902998, -3.878307, -2.224513, 1.100445, 2.977775, -2.001685, -58.098358, -86.007385, -623.829163
1733468612.223054, -3.430592, -3.815460, -1.888277, 1.087439, 3.025356, -2.018976, -57.086700, -86.667633, -623.725708
1733468612.233033, -2.859275, -3.872771, -1.659780, 1.099470, 3.066752, -2.050575, -55.601273, -86.886520, -623.712585
1733468612.243032, -2.154482, -3.621679, -1.538275, 1.127749, 3.128802, -2.049664, -54.589096, -87.442505, -623.505981
1733468612.253042, -1.337012, -3.427150, -1.600524, 1.159178, 3.251472, -1.999850, -53.600479, -87.906326, -624.159424
1733468612.263040, -0.626832, -3.360412, -1.587954, 1.201448, 3.426343, -1.918115, -52.277954, -88.330566, -623.432983
1733468612.273046, -0.017657, -3.022979, -1.241094, 1.242592, 3.568624, -1.817047, -51.480408, -88.609039, -623.356079
1733468612.283038, 0.492158, -2.691831, -0.696413, 1.271715, 3.644689, -1.711410, -50.518738, -89.026855, -623.320374
1733468612.293033, 0.959925, -2.461090, -0.042347, 1.297675, 3.583269, -1.608769, -49.402222, -89.201218, -623.177490
1733468612.303035, 1.323245, -2.236933, 0.362422, 1.340389, 3.429375, -1.505456, -48.734451, -89.519104, -622.061890
1733468612.313039, 1.649455, -2.229002, 0.469114, 1.391491, 3.297482, -1.396512, -47.635178, -89.636749, -622.235046
1733468612.323039, 1.860893, -2.288857, 0.731878, 1.455469, 3.123538, -1.289834, -46.991791, -89.748825, -621.805969
1733468612.333030, 2.004545, -2.412308, 0.835876, 1.543185, 2.970909, -1.200222, -46.474823, -89.690781, -621.426147
1733468612.343047, 2.132485, -2.526182, 1.199645, 1.666072, 2.780477, -1.127386, -45.794846, -89.979279, -620.341614
1733468612.353028, 2.311602, -2.479046, 1.509843, 1.790063, 2.583089, -1.056810, -45.383484, -89.953796, -619.831421
1733468612.363031, 2.421735, -2.572869, 1.743278, 1.865911, 2.443497, -0.988029, -44.800888, -89.986053, -619.128784
1733468612.373030, 2.367417, -2.633323, 2.180968, 1.931268, 2.323105, -0.930463, -44.261658, -90.028885, -617.993469
1733468612.383098, 2.204312, -2.762310, 2.803461, 2.001966, 2.194254, -0.911356, -44.234421, -90.096558, -617.233887
1733468612.393024, 2.150741, -3.193715, 3.326594, 2.043605, 2.050197, -0.958699, -43.627884, -90.006134, -616.609558
1733468612.403036, 1.946486, -3.651008, 3.538480, 2.063224, 1.993505, -1.054173, -43.404373, -89.856522, -614.662231
1733468612.413044, 1.865981, -3.968689, 3.645621, 2.031267, 2.133289, -1.178012, -42.687057, -89.800919, -615.069946
1733468612.423089, 2.124555, -4.151097, 4.108749, 1.926452, 2.374453, -1.301527, -41.958023, -89.742813, -614.222534
1733468612.433026, 2.558953, -4.085107, 4.791246, 1.807084, 2.605535, -1.379782, -41.667938, -89.581802, -613.279419
1733468612.443022, 3.299808, -3.936666, 6.026654, 1.745991, 2.659029, -1.428259, -41.455414, -89.772339, -612.448608
1733468612.453032, 4.180575, -3.688417, 7.530662, 1.725071, 2.378202, -1.451271, -41.273224, -89.233948, -611.946960
1733468612.463095, 4.944625, -4.089296, 8.117690, 1.740784, 1.994094, -1.470235, -40.486725, -89.361191, -611.054260
1733468612.473046, 5.672762, -4.742913, 7.876624, 1.763016, 1.848129, -1.490078, -39.977356, -88.988922, -610.174683
1733468612.483024, 6.748357, -4.805462, 8.244882, 1.703072, 1.957758, -1.455023, -39.836182, -88.834290, -609.683960
1733468612.493021, 8.180239, -5.341913, 9.182362, 1.564929, 2.084170, -1.397079, -39.689667, -88.839050, -609.075562
1733468612.503036, 9.620950, -5.859958, 9.796325, 1.453522, 2.272243, -1.303564, -39.620605, -88.857285, -607.811035
1733468612.513026, 10.711658, -5.790377, 10.617087, 1.355697, 2.515553, -1.161097, -39.477432, -88.395279, -607.915527
1733468612.523026, 11.588385, -5.905897, 11.788899, 1.227921, 2.662463, -0.995479, -39.519150, -88.444031, -607.761963
1733468612.533032, 12.284798, -6.214150, 13.155390, 1.149118, 2.639064, -0.846745, -39.873398, -88.238266, -607.006653
1733468612.543028, 13.211055, -6.392818, 15.078682, 1.157863, 2.327549, -0.699546, -40.087708, -88.097076, -606.468933
1733468612.553032, 14.012065, -6.325331, 17.247380, 1.175362, 1.700014, -0.529186, -39.775314, -87.868286, -605.749451
1733468612.563046, 14.333038, -6.539612, 18.757523, 1.087014, 0.944365, -0.364337, -39.500397, -87.756409, -605.584106
1733468612.573046, 14.291439, -7.022193, 19.049466, 0.873472, 0.368975, -0.224089, -39.828506, -87.737122, -605.353638
1733468612.583031, 13.930363, -7.240814, 18.743307, 0.597360, 0.033655, -0.098478, -39.643295, -87.582031, -605.057129
1733468612.593023, 13.598317, -7.388506, 18.278533, 0.334282, -0.172320, 0.019989, -39.709229, -87.631256, -604.888062
1733468612.603024, 13.482198, -7.269694, 17.837401, 0.111400, -0.314870, 0.153895, -39.380646, -87.671997, -604.430969
1733468612.613035, 13.125014, -7.120954, 17.593192, -0.089886, -0.493494, 0.296108, -39.477463, -87.766281, -605.073364
1733468612.623092, 12.599037, -7.007230, 16.988806, -0.294605, -0.649139, 0.438263, -39.823502, -87.526871, -604.788635
1733468612.632384, 12.051513, -6.838738, 15.993117, -0.496868, -0.695510, 0.597690, -39.550964, -87.751144, -605.547424
1733468612.643032, 11.456405, -6.585850, 15.126117, -0.700078, -0.694436, 0.765190, -40.005096, -87.875244, -605.651489
1733468612.653029, 10.864588, -6.227618, 14.421474, -0.885381, -0.727776, 0.929753, -40.047241, -88.004608, -606.085693
1733468612.663028, 10.200646, -5.869086, 13.770101, -1.018901, -0.834441, 1.083329, -40.279968, -88.123383, -606.818848
1733468612.673021, 9.407267, -5.722441, 13.175591, -1.106179, -1.046231, 1.204562, -40.960251, -88.118271, -607.255615
1733468612.683035, 8.549844, -5.794118, 12.436830, -1.148334, -1.308756, 1.265465, -41.430603, -88.370728, -607.627441
1733468612.693022, 7.751527, -5.845593, 11.669788, -1.154876, -1.596668, 1.280760, -41.462097, -88.529434, -607.966187
1733468612.703072, 7.033865, -5.799505, 10.773907, -1.133324, -1.852574, 1.280242, -41.541550, -88.622818, -607.804321
1733468612.713025, 6.437709, -5.739201, 9.857976, -1.098470, -2.065189, 1.271217, -41.762558, -88.758209, -608.629272
1733468612.722303, 5.878663, -5.632659, 9.061155, -1.046997, -2.212707, 1.263361, -41.762558, -88.758209, -608.629272
1733468612.733018, 5.470302, -5.432294, 8.554782, -1.025181, -2.298589, 1.258134, -42.555313, -89.022842, -609.366882
1733468612.743016, 5.137059, -5.178209, 8.112603, -1.053369, -2.364726, 1.287588, -42.686279, -88.893478, -609.724731
1733468612.753019, 4.925471, -4.955249, 7.416788, -1.100841, -2.366738, 1.350823, -43.113205, -89.040878, -610.277466
1733468612.763032, 4.617966, -4.828805, 6.752846, -1.157418, -2.319466, 1.419225, -43.634964, -89.197128, -610.764954
1733468612.773021, 4.532224, -4.861576, 6.179434, -1.205861, -2.265550, 1.503750, -44.175049, -89.258636, -610.895569
1733468612.783033, 4.372112, -4.653580, 5.934478, -1.232111, -2.273366, 1.598981, -44.694763, -89.331436, -611.594177
1733468612.793032, 4.056975, -4.560206, 5.714062, -1.250522, -2.372444, 1.695229, -45.334396, -89.428726, -612.031921
1733468612.803026, 3.599084, -4.754884, 5.080496, -1.252161, -2.474846, 1.768743, -46.107330, -89.541168, -611.904053
1733468612.813024, 3.153313, -4.810250, 4.357447, -1.232809, -2.532939, 1.824492, -46.714249, -89.440659, -612.919617
1733468612.823028, 2.698565, -4.721066, 3.662081, -1.197848, -2.517673, 1.877238, -46.714249, -89.440659, -612.919617
1733468612.833052, 2.214038, -4.744260, 3.232023, -1.159758, -2.429060, 1.933442, -47.267029, -89.521973, -613.169067
1733468612.843018, 1.773954, -4.755034, 3.173215, -1.164697, -2.297688, 2.000403, -48.247742, -89.222656, -613.979614
1733468612.853016, 1.338209, -4.805312, 3.303849, -1.254665, -2.164117, 2.059583, -49.013336, -89.240921, -613.832581
1733468612.863028, 0.894534, -4.828805, 3.298911, -1.389134, -2.049670, 2.100497, -49.794876, -88.936768, -614.083862
1733468612.873020, 0.515502, -4.736030, 3.084779, -1.527301, -1.916645, 2.129172, -50.724731, -88.964951, -614.798157
1733468612.883015, 0.226701, -4.630536, 2.971354, -1.655969, -1.837434, 2.140216, -51.632248, -88.688766, -615.728333
1733468612.892415, -0.070180, -4.547936, 2.907908, -1.756434, -1.873846, 2.117734, -52.803162, -88.391113, -616.136414
1733468612.903028, -0.345064, -4.484789, 2.645144, -1.835457, -2.000752, 2.054660, -53.892929, -88.125076, -616.829773
1733468612.913021, -0.597503, -4.388272, 2.073229, -1.892205, -2.198830, 1.981381, -54.940277, -87.729034, -616.697327
1733468612.922834, -0.902315, -4.302530, 1.066617, -1.907638, -2.362543, 1.885906, -55.774460, -87.623993, -617.572998
1733468612.933030, -1.062128, -4.239084, -0.083498, -1.871628, -2.446383, 1.787473, -56.887085, -87.278488, -618.335449
1733468612.943023, -1.070807, -4.171298, -1.169568, -1.777858, -2.447806, 1.754037, -57.250320, -86.861145, -618.491516
1733468612.953023, -1.139341, -4.074183, -1.962198, -1.626559, -2.348177, 1.807060, -58.010361, -86.529846, -619.156189
1733468612.963091, -1.452083, -4.114735, -2.276736, -1.498988, -2.174324, 1.866049, -58.842865, -85.953690, -619.201172
1733468612.973031, -1.760935, -4.301632, -2.181866, -1.452048, -2.056880, 1.884573, -59.844101, -85.551849, -619.653625
1733468612.983012, -2.027290, -4.311059, -2.155979, -1.408439, -2.074235, 1.874749, -60.773865, -85.349472, -620.112427
1733468612.993025, -2.197279, -4.493617, -2.555960, -1.302841, -2.173631, 1.849012, -61.683777, -84.717896, -619.844238
1733468613.003027, -2.373402, -4.739173, -2.953697, -1.137734, -2.365533, 1.818797, -62.273346, -84.265915, -620.244446
1733468613.013021, -2.696470, -4.722114, -3.347992, -0.918877, -2.590727, 1.792597, -63.007126, -83.851212, -619.055420
1733468613.023013, -3.058293, -4.601955, -3.691260, -0.694734, -2.723042, 1.815070, -63.592743, -83.238205, -619.275635
1733468613.033075, -3.290082, -4.501099, -3.811569, -0.548125, -2.734427, 1.926012, -64.371826, -82.606720, -618.574097
1733468613.043012, -3.756353, -4.585644, -3.756802, -0.506803, -2.615288, 2.092731, -65.158997, -81.934586, -618.196777
1733468613.053020, -4.363732, -4.601356, -3.625121, -0.611624, -2.403766, 2.251686, -66.066025, -81.065582, -617.483765
1733468613.063023, -4.899883, -4.692635, -3.839701, -0.824040, -2.130718, 2.416080, -66.881042, -80.385513, -617.453613
1733468613.073022, -5.447108, -4.769848, -4.459051, -1.056348, -1.770499, 2.577762, -67.995789, -79.530457, -617.572205
1733468613.083019, -5.957073, -4.806509, -4.991761, -1.276157, -1.386122, 2.737584, -68.990738, -78.576294, -617.537476
1733468613.093009, -6.727856, -5.009568, -5.404162, -1.451452, -1.033379, 2.907988, -70.092056, -77.613983, -617.872559
1733468613.103019, -8.021473, -5.356577, -5.368249, -1.603533, -0.872137, 3.006210, -70.991028, -76.689117, -618.217041
1733468613.113012, -9.468918, -5.943606, -5.537639, -1.734313, -0.939998, 2.991997, -72.080673, -75.586411, -618.454834
1733468613.123008, -11.068843, -6.480805, -6.350620, -1.803497, -1.122475, 2.852073, -72.966339, -74.276947, -618.537109
1733468613.133003, -12.516288, -6.957550, -7.683741, -1.758392, -1.258969, 2.637737, -73.401489, -73.076523, -618.781250
1733468613.143006, -13.628394, -7.514052, -9.079711, -1.633435, -1.242241, 2.423908, -74.336792, -72.129333, -618.480896
1733468613.152125, -14.744990, -8.105270, -10.064326, -1.503303, -1.118762, 2.217796, -74.998886, -71.125275, -618.660278
1733468613.163017, -16.084396, -8.941296, -10.672004, -1.394247, -1.020636, 1.938314, -75.075912, -70.346024, -618.321655
1733468613.173020, -17.270723, -9.736171, -11.507132, -1.275320, -0.932021, 1.546715, -75.866470, -69.411591, -618.309937
1733468613.183078, -17.875259, -10.201095, -12.486659, -1.111003, -0.820316, 1.096704, -76.143311, -69.125549, -618.233276
1733468613.193005, -17.850569, -10.494833, -13.337200, -0.864808, -0.711873, 0.667942, -76.202789, -68.987701, -618.399841
1733468613.203015, -17.472285, -10.737097, -13.864523, -0.560869, -0.610184, 0.299496, -76.095688, -68.821030, -618.609741
1733468613.213007, -17.014394, -10.735750, -13.900585, -0.241871, -0.462365, -0.001398, -75.841110, -68.720306, -618.083008
1733468613.223067, -16.500090, -10.554389, -13.353510, 0.023856, -0.270495, -0.224082, -75.484161, -69.154373, -618.179199
1733468613.233009, -15.968278, -10.407595, -12.441170, 0.157086, -0.054848, -0.393987, -75.757660, -69.205643, -618.302429
1733468613.243024, -15.455170, -10.332327, -11.713332, 0.186302, 0.167587, -0.526870, -75.374893, -69.658768, -618.422607
1733468613.253020, -15.023615, -10.234015, -11.244967, 0.185949, 0.406435, -0.635333, -75.427139, -69.730087, -618.595825
1733468613.263014, -14.596400, -10.226084, -10.811616, 0.200642, 0.637595, -0.745917, -75.423401, -70.077209, -618.547607
1733468613.273020, -14.141502, -10.084377, -10.222942, 0.233692, 0.813530, -0.864902, -75.316986, -70.570297, -618.490417
1733468613.283015, -13.774291, -9.815628, -9.579051, 0.271139, 0.960595, -0.999604, -75.099182, -71.013824, -619.194946
1733468613.293004, -13.281385, -9.594314, -9.011775, 0.265345, 1.189365, -1.282928, -74.602768, -71.768356, -619.597656
1733468613.303018, -12.658443, -9.273641, -8.594735, 0.276674, 1.290867, -1.406436, -74.173172, -72.120239, -619.989868
1733468613.313011, -12.139201, -8.779837, -8.350078, 0.307497, 1.378260, -1.524926, -73.928101, -72.702606, -620.319824
1733468613.323018, -11.609633, -8.374768, -8.108862, 0.359163, 1.465284, -1.633129, -73.469818, -73.384491, -621.013428
1733468613.333011, -11.058369, -8.083423, -8.019079, 0.439029, 1.576010, -1.731406, -72.785919, -74.146515, -621.253052
1733468613.343006, -10.557083, -7.679551, -7.923461, 0.519862, 1.694804, -1.813832, -72.236115, -74.966873, -622.058716
1733468613.353003, -9.998485, -7.123199, -7.650671, 0.598607, 1.790157, -1.882504, -71.776398, -75.724274, -622.526001
1733468613.363003, -9.356989, -6.672939, -7.248595, 0.670835, 1.857542, -1.945439, -70.837616, -76.498611, -623.180664
1733468613.373012, -8.774450, -6.220435, -6.802077, 0.730799, 1.930331, -2.003142, -69.990860, -77.469635, -623.423767
1733468613.383006, -8.216900, -5.803246, -6.335207, 0.785690, 1.984733, -2.039642, -69.476196, -78.077942, -623.410522
1733468613.393001, -7.526622, -5.526416, -5.834819, 0.826660, 1.998231, -2.067356, -68.367157, -78.960724, -623.605408
1733468613.403002, -6.947075, -5.177162, -5.213823, 0.849430, 1.989366, -2.088684, -67.434586, -79.663971, -623.203613
1733468613.413001, -6.394164, -4.951658, -4.722413, 0.855208, 1.992207, -2.100498, -66.690491, -80.335693, -624.175720
1733468613.423004, -5.850980, -4.811298, -4.546739, 0.889704, 2.037585, -2.120051, -65.805832, -81.027222, -624.342224
1733468613.433000, -5.439327, -4.715530, -4.582652, 0.960907, 2.097525, -2.150972, -64.695572, -81.973755, -624.795837
1733468613.443000, -5.032313, -4.579509, -4.566341, 1.045691, 2.168128, -2.198602, -63.677597, -82.759750, -625.054138
1733468613.453000, -4.626346, -4.535665, -4.447828, 1.149275, 2.217498, -2.250869, -62.712280, -83.368591, -625.132812
1733468613.463001, -4.219930, -4.430919, -4.180575, 1.262779, 2.263983, -2.311374, -61.590759, -84.212509, -624.840210
1733468613.473009, -3.834015, -4.195838, -3.797802, 1.357913, 2.303371, -2.374897, -60.479187, -84.834381, -624.763977
1733468613.482998, -3.389292, -4.015525, -3.320907, 1.431798, 2.308583, -2.428610, -59.154419, -85.539047, -624.730225
1733468613.493010, -2.944269, -3.763386, -2.784756, 1.483741, 2.301547, -2.476779, -58.102051, -86.239349, -624.333191
1733468613.502997, -2.502240, -3.415778, -2.268057, 1.520950, 2.278768, -2.526764, -56.787033, -86.902740, -623.605835
1733468613.513011, -1.972822, -3.311031, -1.871966, 1.551643, 2.223199, -2.567362, -55.578140, -87.481567, -623.768066
1733468613.523002, -1.394174, -3.159448, -1.483806, 1.577981, 2.170546, -2.576926, -53.959854, -88.075058, -623.323242
1733468613.533012, -0.828394, -2.831443, -1.273266, 1.591073, 2.188886, -2.554267, -52.717346, -88.403229, -622.815796
1733468613.543001, -0.347309, -2.485930, -1.201440, 1.579439, 2.228514, -2.516256, -51.252380, -88.844727, -621.930542
1733468613.553009, 0.031125, -2.284068, -0.990302, 1.576044, 2.257285, -2.471124, -50.048279, -89.255966, -621.462952
1733468613.563007, 0.377536, -2.251896, -0.932691, 1.624987, 2.289179, -2.439111, -48.772583, -89.566574, -620.757141
1733468613.573003, 0.672771, -2.287510, -1.106121, 1.744224, 2.344452, -2.385555, -47.402634, -89.799362, -620.433594
1733468613.583000, 1.008857, -2.114529, -1.124527, 1.862984, 2.432599, -2.312284, -46.130707, -90.008759, -619.576172
1733468613.592997, 1.320701, -1.877653, -0.869694, 1.925698, 2.542837, -2.240990, -44.879700, -90.414230, -618.727844
1733468613.603002, 1.565359, -1.823783, -0.318130, 1.930985, 2.639950, -2.171938, -43.772949, -90.507095, -617.695618
1733468613.612997, 1.674744, -1.628356, 0.314089, 1.889066, 2.742818, -2.096220, -42.834167, -90.471039, -617.379578
1733468613.622996, 1.774103, -1.473781, 0.870143, 1.833384, 2.814498, -2.037501, -42.100052, -90.401611, -616.705383
1733468613.632997, 1.841590, -1.567155, 1.401655, 1.800207, 2.853442, -1.985557, -41.252945, -90.277435, -615.541626
1733468613.642994, 1.952621, -1.752256, 1.782633, 1.828060, 2.894023, -1.946397, -40.342667, -90.371887, -614.806641
1733468613.653000, 2.073528, -1.977012, 2.055422, 1.938418, 2.951818, -1.908497, -39.321243, -90.216217, -614.009277
1733468613.662996, 2.370110, -2.148497, 2.450914, 2.059766, 2.995734, -1.829931, -38.818039, -90.055588, -613.099487
1733468613.672996, 2.880075, -1.891569, 3.395427, 2.109345, 2.943969, -1.749054, -38.384445, -89.834625, -611.979370
1733468613.682995, 3.325396, -1.789516, 4.675726, 2.062336, 2.857807, -1.697376, -37.798187, -89.594772, -611.288452
1733468613.693003, 3.750966, -1.940052, 5.696853, 1.957295, 2.773971, -1.695140, -37.665298, -89.527115, -610.177490
1733468613.702996, 4.225916, -2.327463, 6.530035, 1.862542, 2.715565, -1.753569, -37.064255, -89.500824, -609.143982
1733468613.713005, 4.844218, -3.018639, 7.202058, 1.821031, 2.669993, -1.805062, -36.582184, -89.140396, -608.427002
1733468613.722995, 5.711518, -3.450643, 8.231864, 1.764606, 2.562835, -1.778488, -35.915604, -88.933609, -607.579712
1733468613.733054, 6.923882, -3.346645, 9.895535, 1.593527, 2.409235, -1.693916, -35.783554, -88.753464, -606.914551
1733468613.743013, 8.318055, -3.403208, 11.440992, 1.352447, 2.343971, -1.570311, -35.610413, -88.135178, -606.310669
1733468613.752999, 9.789292, -3.807828, 12.256068, 1.103618, 2.382209, -1.360130, -35.355911, -87.942642, -605.685547
1733468613.763004, 11.217583, -3.764433, 12.782942, 0.865480, 2.457353, -1.110486, -35.287476, -87.969345, -605.129211
1733468613.773015, 12.469750, -4.085705, 13.438953, 0.681580, 2.453678, -0.864750, -35.568253, -87.792023, -604.929565
1733468613.783004, 13.343185, -4.583101, 14.144644, 0.570033, 2.306898, -0.663401, -35.847855, -87.672974, -604.961182
1733468613.793007, 13.804069, -4.905570, 14.859613, 0.543036, 1.946140, -0.502920, -35.922729, -87.630539, -604.609680
1733468613.803000, 14.130877, -5.213973, 15.719580, 0.599468, 1.452405, -0.354938, -36.127563, -87.540131, -603.421265
1733468613.812998, 14.500632, -5.524171, 16.391602, 0.629662, 0.996316, -0.207051, -36.110779, -87.460495, -603.868225
1733468613.823053, 14.765790, -5.783793, 16.855180, 0.584914, 0.672556, -0.032669, -36.158188, -87.321732, -603.603394
1733468613.832993, 14.727483, -5.845443, 17.132458, 0.504234, 0.463868, 0.157115, -36.071274, -87.105179, -603.198120
1733468613.842988, 14.363265, -5.858911, 17.345392, 0.380223, 0.308255, 0.328944, -36.295486, -87.015030, -603.107056
1733468613.852995, 13.795689, -5.899762, 17.670405, 0.188962, 0.132506, 0.463717, -36.374954, -87.153061, -603.158081
1733468613.862999, 13.075932, -5.997026, 17.995119, -0.025999, -0.014210, 0.553755, -36.683243, -87.128494, -603.056274
1733468613.872994, 12.251280, -6.123320, 17.957410, -0.263586, -0.199702, 0.610376, -36.848846, -87.184433, -603.009521
1733468613.882993, 11.605144, -6.124069, 17.843386, -0.479767, -0.434909, 0.661825, -37.026901, -87.097855, -603.327759
1733468613.893047, 11.075427, -5.948394, 17.560721, -0.681950, -0.734604, 0.685034, -37.298630, -87.273666, -603.280396
1733468613.903005, 10.476129, -5.851279, 17.227628, -0.885159, -1.085276, 0.718304, -37.210907, -87.493820, -603.211182
1733468613.912987, 10.049063, -5.548263, 16.626384, -1.053666, -1.424763, 0.770142, -37.309097, -87.603088, -604.428101
1733468613.922990, 9.686341, -5.213374, 15.555427, -1.167167, -1.676393, 0.859640, -36.982620, -87.841995, -604.877258
1733468613.932993, 9.347711, -4.957045, 14.068628, -1.225829, -1.831589, 0.976911, -37.440964, -87.961456, -605.514404
1733468613.942663, 8.973767, -4.786308, 12.768427, -1.268300, -1.951722, 1.091667, -37.554413, -88.191132, -605.870361
1733468613.952998, 8.510788, -4.683507, 11.807604, -1.303353, -1.996110, 1.218311, -37.496185, -88.410599, -606.589111
1733468613.962990, 8.096891, -4.494964, 10.759991, -1.341665, -1.957386, 1.353510, -37.763290, -88.683304, -607.046814
1733468613.972085, 7.783999, -4.247763, 9.868899, -1.406776, -1.931475, 1.500292, -38.197357, -88.815857, -607.779175
1733468613.983027, 7.357531, -3.969736, 9.450363, -1.486798, -1.964315, 1.632392, -38.834167, -89.175217, -608.746216
1733468613.992988, 6.875698, -3.762937, 9.010728, -1.543172, -2.028779, 1.727975, -39.351395, -89.397522, -609.427429
1733468614.002988, 6.232257, -3.751115, 8.412626, -1.583049, -2.098594, 1.784888, -39.826401, -89.514404, -609.045410
1733468614.012992, 5.736358, -3.783587, 7.712921, -1.612305, -2.173055, 1.875023, -40.648697, -89.523026, -610.642517
1733468614.023057, 5.332635, -3.542371, 7.078308, -1.623740, -2.285944, 1.941814, -41.102676, -89.504150, -611.470337
1733468614.032989, 4.811298, -3.508703, 6.558467, -1.595751, -2.450061, 2.003822, -41.839432, -89.893814, -612.015686
1733468614.042003, 4.449624, -3.576339, 5.969643, -1.527271, -2.611769, 2.069325, -42.775787, -89.888168, -612.604126
1733468614.052993, 4.046350, -3.503016, 5.305401, -1.443582, -2.740387, 2.123257, -43.630600, -89.726318, -613.055603
1733468614.062998, 3.591901, -3.572149, 4.679168, -1.351472, -2.816083, 2.171887, -44.382172, -89.757919, -613.546631
1733468614.072994, 3.101239, -3.594295, 4.053683, -1.256825, -2.792737, 2.230206, -45.299255, -89.634323, -613.577393
1733468614.082993, 2.629282, -3.569755, 3.496582, -1.198494, -2.709225, 2.291371, -46.291306, -89.734436, -614.717712
1733468614.092993, 2.149694, -3.600730, 3.309834, -1.194410, -2.638616, 2.343968, -47.453171, -89.684357, -614.601929
1733468614.102992, 1.636287, -3.580080, 3.474735, -1.243762, -2.594727, 2.377023, -48.580200, -89.534424, -614.321106
1733468614.112985, 1.152658, -3.662829, 3.659238, -1.335989, -2.570598, 2.389864, -49.651642, -89.322876, -615.642029
1733468614.122985, 0.758363, -3.693505, 3.676596, -1.448122, -2.579725, 2.380920, -50.813019, -89.279587, -615.942322
1733468614.132996, 0.373047, -3.809923, 3.440169, -1.525377, -2.602564, 2.338524, -51.857437, -88.899246, -616.382568
1733468614.142994, -0.023194, -3.994576, 2.959084, -1.560985, -2.656610, 2.268132, -52.937744, -88.550110, -616.678955
1733468614.152987, -0.336984, -4.133440, 2.509722, -1.559840, -2.714977, 2.203037, -53.859467, -88.248215, -616.664124
1733468614.162985, -0.598999, -4.152144, 1.898901, -1.533098, -2.708206, 2.156598, -54.613678, -88.022339, -617.392944
1733468614.172987, -0.785298, -4.126855, 1.267580, -1.511930, -2.674972, 2.123218, -56.040970, -87.686356, -617.327454
1733468614.182985, -0.915184, -4.168305, 0.918027, -1.515349, -2.656882, 2.111513, -56.895508, -87.379913, -617.791138
1733468614.192984, -1.091606, -4.095132, 0.639850, -1.516744, -2.618366, 2.094554, -57.944763, -86.970047, -617.887695
1733468614.202990, -1.481712, -4.122067, 0.238822, -1.527974, -2.604324, 2.050002, -58.784637, -86.577332, -617.808594
1733468614.212983, -1.732355, -4.249259, -0.108487, -1.502553, -2.670476, 2.014670, -59.846085, -86.119919, -618.581543
1733468614.222982, -1.917307, -4.214693, -0.554407, -1.392953, -2.730962, 1.975297, -60.824936, -85.489990, -618.360535
1733468614.232991, -2.200720, -4.330961, -1.296161, -1.212515, -2.788019, 1.951515, -61.566299, -85.099548, -618.401245
1733468614.242982, -2.378639, -4.489278, -1.853411, -1.012196, -2.852977, 1.973589, -62.140915, -84.354034, -618.049133
1733468614.252993, -2.526182, -4.548684, -2.106897, -0.866796, -2.921318, 2.033553, -63.078903, -83.903534, -617.483643
1733468614.262979, -2.890699, -4.456956, -2.003348, -0.811482, -2.963240, 2.115369, -63.845932, -83.111725, -617.258545
1733468614.272988, -3.446004, -4.161122, -1.857900, -0.816066, -3.001679, 2.241810, -64.558304, -82.568817, -616.498535
1733468614.282989, -4.038719, -3.917812, -1.905635, -0.821276, -3.005182, 2.391189, -64.558304, -82.568817, -616.498535
1733468614.292991, -4.846612, -3.838354, -2.429067, -0.833264, -2.850921, 2.559728, -65.573517, -81.730591, -616.163086
1733468614.302996, -5.493795, -3.914370, -3.301155, -0.900690, -2.547038, 2.748876, -66.565536, -80.720764, -615.769287
1733468614.312998, -6.312013, -4.096030, -3.992032, -1.048488, -2.100899, 2.894994, -67.404449, -79.915771, -614.972900
1733468614.322992, -7.666533, -4.721216, -4.555418, -1.281479, -1.640351, 2.955426, -68.189590, -78.916931, -615.644287
1733468614.332989, -8.986786, -5.198560, -4.872051, -1.511235, -1.232393, 2.920401, -69.274399, -77.904922, -615.300781
1733468614.342978, -10.301502, -5.631910, -5.497835, -1.638550, -1.019054, 2.771559, -70.259277, -77.033875, -615.914307
1733468614.352991, -11.841871, -6.402843, -6.105962, -1.609576, -1.180248, 2.430096, -71.834732, -75.954132, -616.161987
1733468614.362983, -13.548338, -7.386411, -6.564003, -1.436284, -1.546828, 1.966539, -72.343857, -75.170303, -616.444336
1733468614.372983, -14.648324, -8.054543, -7.753323, -1.119573, -1.862307, 1.514199, -72.767288, -74.419220, -616.242554
1733468614.382986, -15.036784, -8.694543, -9.536554, -0.719708, -1.986903, 1.166072, -72.879288, -73.784622, -615.918335
1733468614.393032, -15.050401, -8.950274, -10.954670, -0.402162, -1.906770, 0.935336, -73.012009, -73.391159, -615.382324
1733468614.402979, -14.936227, -9.107693, -11.491869, -0.258108, -1.673051, 0.824856, -72.930725, -73.056549, -614.592834
1733468614.412986, -14.648175, -9.437195, -11.637915, -0.234638, -1.255896, 0.825143, -73.148529, -72.582840, -613.148071
1733468614.422995, -14.523377, -9.725846, -11.945570, -0.276207, -0.761359, 0.863848, -73.361267, -72.344757, -613.613281
1733468614.432995, -14.774319, -10.035296, -11.949909, -0.315620, -0.400751, 0.840441, -73.630783, -71.858612, -613.609070
1733468614.442995, -15.351920, -10.470293, -11.507132, -0.302915, -0.175652, 0.702079, -74.072662, -71.653778, -613.385254
1733468614.452985, -16.020202, -11.011981, -11.319337, -0.242363, -0.004132, 0.512835, -74.071915, -71.522995, -613.638489
1733468614.462981, -16.552762, -11.276989, -11.396998, -0.161545, 0.252128, 0.300229, -73.934174, -71.447754, -614.115295
1733468614.472979, -16.940922, -11.626991, -11.717971, -0.128758, 0.579699, 0.072129, -74.049973, -71.401108, -614.244507
1733468614.482979, -17.081432, -11.663802, -11.654525, -0.111005, 0.852739, -0.146319, -74.320236, -71.307465, -614.478027
1733468614.492980, -16.849643, -11.373954, -11.244069, -0.050044, 1.033110, -0.350273, -74.231064, -71.478149, -615.009705
1733468614.502973, -16.478691, -11.094431, -10.891523, 0.061890, 1.151462, -0.572810, -74.131653, -71.910034, -615.664673
1733468614.512983, -16.062400, -11.010335, -10.360608, 0.186615, 1.257233, -0.834911, -74.050507, -72.154388, -615.388062
1733468614.522983, -16.062400, -11.010335, -10.360608, 0.326267, 1.365932, -1.135016, -74.012787, -72.600586, -615.783203
1733468614.532983, -14.971542, -10.059687, -9.284115, 0.483803, 1.391123, -1.440926, -73.651367, -73.270340, -616.250488
1733468614.542997, -14.006828, -9.438242, -8.539818, 0.646124, 1.337684, -1.715718, -72.924881, -73.947693, -616.696533
1733468614.552975, -13.050943, -8.851812, -7.963414, 0.783566, 1.304018, -1.929433, -72.361038, -74.831146, -616.983459
1733468614.562986, -12.129475, -8.307880, -7.390601, 0.855195, 1.377297, -2.066868, -71.513611, -75.619095, -616.847290
1733468614.572990, -11.218331, -7.783699, -6.554726, 0.850431, 1.505602, -2.143663, -70.938828, -76.349548, -617.346680
1733468614.582985, -10.354324, -7.216722, -5.631910, 0.781562, 1.644997, -2.164411, -70.283463, -77.250641, -617.746948
1733468614.592983, -9.516503, -6.821380, -5.049671, 0.682329, 1.768843, -2.149555, -69.550323, -78.024506, -617.952759
1733468614.602971, -8.662072, -6.801478, -4.948665, 0.595457, 1.901919, -2.118681, -68.735382, -78.778107, -618.276123
1733468614.612982, -8.092851, -6.556671, -4.891803, 0.561471, 2.049147, -2.085101, -68.089569, -79.519043, -618.984741
1733468614.622990, -7.732673, -6.215048, -4.738724, 0.573162, 2.203749, -2.072693, -67.072296, -80.311035, -619.403931
1733468614.632973, -7.295282, -6.088455, -4.398148, 0.622471, 2.309842, -2.097314, -66.445709, -81.116394, -620.187500
1733468614.642969, -6.892757, -5.844695, -3.899406, 0.662130, 2.349000, -2.161005, -65.771210, -81.789383, -620.575195
1733468614.652977, -6.545149, -5.429900, -3.544017, 0.694010, 2.355291, -2.245396, -64.873291, -82.447037, -621.085327
1733468614.662986, -6.023811, -5.169830, -3.361758, 0.743330, 2.371585, -2.327123, -63.753799, -83.200897, -620.882812
1733468614.672973, -5.387403, -4.989516, -2.981230, 0.809892, 2.347635, -2.399295, -62.576080, -83.879669, -621.396851
