SamplingTime, AccelerationX, AccelerationY, AccelerationZ, GyroX, GyroY, GyroZ, MagneticFieldX, MagneticFieldY, MagneticFieldZ
1733468028.843460, 1.012747, -8.388834, -3.917961, -0.365353, -0.729258, -0.115282, -36.938766, -59.181625, -662.340698
1733468028.853492, 1.024868, -8.361300, -4.412065, -0.382441, -0.699410, -0.137739, -37.235260, -59.168427, -661.750854
1733468028.863377, 1.142333, -8.212261, -4.717475, -0.421101, -0.533907, -0.098087, -37.369080, -58.803879, -662.429932
1733468028.873462, 1.288230, -7.886949, -4.979790, -0.529451, -0.241862, -0.031269, -37.350174, -58.343246, -662.780151
1733468028.883462, 1.311574, -8.070405, -4.844517, -0.822399, 0.262104, 0.070173, -36.928192, -57.873489, -661.737427
1733468028.892532, 0.919224, -8.248623, -4.620510, -1.228662, 0.849274, 0.180854, -36.863464, -57.487076, -662.921692
1733468028.903463, 0.412102, -8.643068, -4.547337, -1.538796, 1.180042, 0.178502, -36.848465, -56.871231, -662.694397
1733468028.912681, 0.110732, -9.436895, -4.399346, -1.653652, 0.913320, -0.000220, -36.760056, -56.091827, -663.756592
1733468028.922725, 0.098761, -9.419837, -4.680814, -1.463744, 0.227355, -0.316841, -36.703278, -55.426392, -663.755127
1733468028.932787, 0.080355, -8.923788, -5.557092, -1.109314, -0.393266, -0.644798, -36.323685, -54.927002, -663.385986
1733468028.942626, 0.103998, -8.310873, -7.287501, -0.701187, -0.512017, -0.820983, -36.185669, -54.526047, -663.936462
1733468028.953455, 0.072574, -7.626580, -8.460211, -0.346260, -0.288699, -0.838318, -36.304001, -54.362579, -663.461548
1733468028.963492, 0.044742, -7.312939, -8.233809, -0.134211, 0.057249, -0.844065, -36.232178, -54.341492, -664.023926
1733468028.973463, 0.070030, -7.671172, -7.519140, -0.061729, 0.290469, -0.947351, -35.585144, -54.212814, -663.648682
1733468028.983455, 0.351199, -8.129212, -6.658424, -0.013897, 0.263791, -1.095295, -35.171097, -54.358704, -663.365356
1733468028.993459, 0.770783, -7.744195, -6.432921, 0.092099, 0.160348, -1.109594, -34.247467, -54.176544, -663.490906
1733468029.003456, 1.690157, -6.552780, -6.511929, 0.216782, 0.009811, -0.772242, -34.327164, -54.408539, -662.811035
1733468029.012772, 2.697966, -4.912004, -5.788282, 0.257464, -0.241623, -0.154203, -34.692535, -54.337616, -663.323608
1733468029.023450, 3.048866, -5.448754, -6.134244, 0.287468, -0.174290, 0.335644, -35.225037, -54.690323, -663.313354
1733468029.033456, 3.126528, -5.091270, -6.987328, 0.376935, 0.069051, 0.661336, -35.475311, -54.912109, -663.664917
1733468029.043453, 1.660528, -5.024831, -5.353734, 0.504761, -0.131165, 0.805271, -36.072479, -55.487946, -663.394348
1733468029.053449, 0.550816, -5.142296, -3.941305, 0.611415, -0.687081, 0.774548, -36.583618, -55.826065, -663.623657
1733468029.062795, 0.263512, -5.944354, -3.699939, 0.734280, -1.413342, 0.629057, -37.671005, -56.312897, -663.855103
1733468029.073443, 0.063746, -7.358429, -3.787028, 0.840598, -2.226940, 0.356416, -39.571487, -56.840958, -664.002258
1733468029.083296, -0.214880, -9.148245, -3.908235, 0.917568, -3.084839, -0.110547, -41.543625, -57.332733, -663.317200
1733468029.093446, -0.516100, -11.749994, -4.732439, 0.980246, -3.865232, -0.826509, -42.910507, -57.715530, -663.740723
1733468029.103447, 0.381576, -14.424167, -6.915203, 1.086157, -4.174304, -1.530349, -43.655411, -58.283295, -662.769897
1733468029.112808, 2.939780, -15.363891, -9.279926, 1.260574, -4.166749, -1.837220, -43.583786, -58.139069, -661.853577
1733468029.123486, 2.635268, -12.559683, -10.970382, 1.396557, -3.538342, -1.813645, -44.932968, -59.052094, -661.719055
1733468029.133430, 1.800889, -8.313566, -12.873173, 1.038860, -1.715535, -1.367136, -44.899994, -59.441681, -661.032715
1733468029.143441, 1.955165, -7.105392, -11.801319, 0.684786, -0.248532, -0.959227, -44.968735, -59.676697, -661.742493
1733468029.153453, 1.872715, -7.659949, -9.750536, 0.163115, 0.665765, -0.493819, -44.832962, -59.939285, -661.408875
1733468029.162830, 2.889203, -7.826645, -6.462848, -0.219497, 0.801658, -0.126566, -45.108109, -60.050034, -662.144409
1733468029.173458, 2.522890, -8.349479, -5.606622, -0.449391, 0.351513, -0.019496, -45.577850, -59.920731, -662.588806
1733468029.183472, 2.028787, -9.156774, -5.648221, -0.447225, -0.630213, -0.214009, -45.820496, -60.018188, -661.939453
1733468029.193448, 1.067365, -9.836578, -7.078906, -0.142783, -1.728890, -0.575847, -46.574905, -59.951828, -662.312988
1733468029.203452, 0.439037, -9.789741, -9.768941, 0.398347, -2.553772, -0.903286, -47.482773, -60.322845, -661.166443
1733468029.212831, -0.070479, -9.212140, -11.816732, 1.005337, -2.983055, -1.179344, -48.480255, -61.021606, -660.774536
1733468029.223484, -0.243460, -8.714744, -12.774562, 1.500411, -3.083869, -1.370774, -49.098236, -61.688431, -660.574768
1733468029.233457, -0.082899, -8.151359, -13.158981, 1.822316, -2.813567, -1.464382, -49.751328, -62.833878, -659.110657
1733468029.243199, 0.084396, -7.835474, -13.087903, 1.973964, -2.305168, -1.498542, -50.317123, -63.748215, -658.660034
1733468029.253448, 0.525527, -7.732972, -12.126182, 1.965530, -1.839111, -1.467851, -50.632370, -64.721115, -657.630127
1733468029.263441, 0.925359, -7.362020, -10.654347, 1.836908, -1.556533, -1.423349, -51.260727, -65.828247, -657.076721
1733468029.273447, 1.016039, -6.861782, -9.125649, 1.673060, -1.573496, -1.404372, -51.618073, -66.556763, -656.801147
1733468029.283449, 1.011401, -6.489334, -7.859266, 1.533766, -1.847750, -1.447556, -51.601852, -67.385544, -655.738159
1733468029.293458, 1.041178, -6.433968, -7.597251, 1.402042, -2.134255, -1.529012, -52.143021, -67.981018, -656.005493
1733468029.303463, 0.937330, -6.196792, -8.160786, 1.299193, -2.238501, -1.570390, -52.365219, -68.865906, -654.246216
1733468029.313467, 0.807145, -5.592556, -9.023596, 1.254653, -2.122875, -1.557259, -52.718460, -69.414627, -653.691772
1733468029.323459, 0.542287, -5.218611, -9.919926, 1.264767, -1.771953, -1.542936, -52.718460, -69.414627, -653.691772
1733468029.333449, 0.162955, -5.044284, -10.383952, 1.332695, -1.354491, -1.540952, -52.738037, -70.159958, -653.463684
1733468029.343449, 0.014365, -4.678120, -9.991153, 1.469053, -1.037958, -1.533840, -52.613312, -71.102966, -652.435608
1733468029.353446, -0.223110, -4.632780, -9.408165, 1.655012, -0.793901, -1.578866, -52.301010, -71.887878, -652.316589
1733468029.363442, -0.253486, -5.009119, -8.926182, 1.889546, -0.636026, -1.638905, -52.328766, -72.752823, -651.403992
1733468029.373508, 0.022296, -5.118654, -8.359804, 2.147537, -0.612955, -1.688617, -51.949112, -73.603256, -650.500061
1733468029.383457, 0.058209, -4.867711, -7.398682, 2.427397, -0.810813, -1.758481, -51.476196, -74.838531, -650.060425
1733468029.393461, -0.132878, -4.566640, -6.293009, 2.696594, -1.183101, -1.877268, -51.268539, -75.824020, -648.200317
1733468029.403447, -0.136170, -4.728249, -5.606173, 2.925411, -1.571696, -2.024986, -51.087387, -76.840973, -647.538513
1733468029.413441, 0.188543, -4.916643, -5.450550, 3.126797, -1.841546, -2.121869, -50.670700, -77.985245, -646.300049
1733468029.423442, 0.395343, -4.774936, -5.573552, 3.290273, -1.903675, -2.175364, -50.249573, -79.245453, -643.837524
1733468029.433455, 0.266953, -4.707449, -5.913080, 3.430639, -1.785382, -2.221706, -49.867264, -80.153473, -642.690369
1733468029.443442, -0.003142, -4.666748, -6.090101, 3.596843, -1.510309, -2.264935, -49.131485, -81.465286, -641.344788
1733468029.453499, -0.163255, -4.565294, -5.662885, 3.723506, -1.200858, -2.312427, -48.578323, -82.583893, -639.189819
1733468029.463443, -0.210091, -4.270508, -4.397251, 3.748417, -1.031162, -2.376263, -48.004852, -83.412735, -637.759644
1733468029.473457, -0.380528, -4.163816, -2.743157, 3.706659, -0.995036, -2.477114, -47.065247, -84.423523, -636.104004
1733468029.483445, -0.400730, -4.393659, -1.403900, 3.635567, -1.070629, -2.625566, -46.283127, -85.312027, -633.710266
1733468029.493445, -0.184653, -4.725556, -0.375590, 3.554019, -1.203694, -2.799474, -45.165955, -85.818329, -632.454590
1733468029.503463, 0.116418, -4.658069, 0.019902, 3.477325, -1.271641, -2.952103, -43.914078, -86.769653, -630.925049
1733468029.513442, 0.515801, -4.282479, 0.081403, 3.394729, -1.235966, -3.075340, -42.610336, -87.070770, -629.104126
1733468029.523440, 0.935684, -3.856909, 0.227748, 3.273597, -1.045628, -3.131655, -41.020691, -87.478531, -626.603943
1733468029.533489, 1.391779, -3.392733, 0.394445, 3.095543, -0.732421, -3.138182, -39.484787, -87.692978, -625.823181
1733468029.543442, 1.615637, -3.274669, 0.786645, 2.877200, -0.321135, -3.140295, -38.340485, -87.539612, -624.022217
1733468029.553442, 1.799093, -3.143288, 1.234660, 2.653857, 0.120408, -3.137337, -36.979675, -87.695068, -623.187744
1733468029.563489, 2.408118, -2.834735, 1.781885, 2.493777, 0.457819, -3.080213, -35.159576, -87.771973, -621.243896
1733468029.573441, 3.226636, -2.361880, 2.528277, 2.402880, 0.622848, -2.945048, -33.942078, -87.613632, -620.880554
1733468029.583452, 4.085406, -2.070536, 3.303100, 2.326142, 0.667549, -2.768956, -32.680145, -87.488846, -619.572266
1733468029.593448, 5.234623, -1.761085, 4.136732, 2.187633, 0.626637, -2.497427, -31.551239, -87.016541, -618.351379
1733468029.603447, 6.112247, -1.205481, 4.750695, 1.911118, 0.703031, -2.157646, -30.588028, -87.061539, -617.332458
1733468029.613441, 6.437559, -1.205331, 5.053561, 1.535010, 0.898913, -1.839213, -30.082260, -86.733353, -616.154297
1733468029.623456, 6.171953, -1.396119, 5.298817, 1.090654, 1.213581, -1.581972, -29.598145, -86.454376, -616.380737
1733468029.633496, 5.702390, -1.747019, 5.128380, 0.752529, 1.534046, -1.450739, -28.987686, -86.317047, -615.911438
1733468029.643437, 5.573701, -2.613870, 5.111471, 0.623777, 1.707948, -1.427605, -28.647171, -86.061569, -615.782715
1733468029.653433, 5.647772, -3.102736, 5.282656, 0.645355, 1.699987, -1.466934, -28.215851, -85.859268, -615.185425
1733468029.663417, 6.036680, -3.193865, 5.426608, 0.768331, 1.640592, -1.482874, -27.850372, -85.582428, -614.559143
1733468029.673447, 6.621464, -3.177255, 5.776909, 0.913330, 1.552515, -1.505568, -27.353500, -85.479370, -613.462646
1733468029.683452, 7.196970, -3.339762, 6.976255, 1.056379, 1.293746, -1.523881, -26.765381, -85.089966, -613.529907
1733468029.693449, 7.655609, -3.652055, 8.438214, 1.178847, 0.922536, -1.605054, -26.264343, -84.881317, -613.443604
1733468029.703496, 8.082376, -4.067449, 9.404424, 1.270594, 0.559994, -1.737993, -25.817108, -84.417938, -612.581848
1733468029.713451, 8.499117, -4.369418, 10.045172, 1.318676, 0.354368, -1.869324, -24.919617, -83.917007, -611.649658
1733468029.723436, 9.420735, -4.287866, 10.376320, 1.254309, 0.507194, -1.884814, -24.137466, -83.448547, -611.164551
1733468029.733506, 10.868329, -3.860052, 11.074829, 1.058802, 0.819462, -1.779857, -23.517441, -83.152924, -610.249023
1733468029.743435, 12.254422, -3.601029, 12.806136, 0.756604, 0.986141, -1.590578, -23.081299, -82.679962, -610.683777
1733468029.753433, 13.550134, -3.315820, 14.396185, 0.360515, 1.000807, -1.346583, -23.074402, -82.499634, -609.928528
1733468029.763498, 14.213178, -3.374328, 14.907347, -0.015579, 0.974916, -1.141026, -22.786713, -82.424210, -610.245972
1733468029.773435, 14.510059, -3.684826, 14.615254, -0.284497, 0.907995, -0.974671, -22.476898, -82.106689, -610.239868
1733468029.783430, 14.894329, -3.638289, 14.044686, -0.425591, 0.797329, -0.812471, -22.409134, -82.077164, -610.561035
1733468029.793442, 15.130606, -3.639187, 13.453318, -0.463531, 0.613955, -0.676600, -22.378418, -81.886337, -610.049744
1733468029.803448, 15.165921, -3.630059, 13.189956, -0.458119, 0.364493, -0.565889, -22.125031, -81.877228, -610.309570
1733468029.813446, 15.254207, -3.587262, 12.892626, -0.441636, 0.108171, -0.462280, -21.782135, -81.938065, -610.008484
1733468029.823438, 15.130756, -3.517830, 12.419173, -0.390993, -0.106517, -0.385239, -21.831863, -81.603897, -610.776367
1733468029.833435, 14.657452, -3.072359, 12.103886, -0.309925, -0.646812, -0.291808, -21.382889, -81.734497, -610.947510
1733468029.843430, 14.624981, -2.693776, 11.901277, -0.291876, -0.929707, -0.206128, -21.312393, -81.601639, -611.220642
1733468029.853437, 14.606276, -2.368614, 11.323377, -0.295293, -1.066352, -0.055143, -20.750595, -81.652390, -611.164246
1733468029.863446, 14.591911, -2.058265, 10.617536, -0.348095, -1.059854, 0.145853, -20.744003, -81.537888, -611.702881
1733468029.873440, 14.467412, -1.899649, 10.220548, -0.393992, -1.058797, 0.365719, -20.856766, -81.388412, -611.908691
1733468029.883432, 14.011616, -1.866579, 10.034847, -0.404786, -1.095724, 0.572493, -20.777130, -81.804596, -612.564575
1733468029.893431, 13.315053, -1.929278, 9.972598, -0.421016, -1.145222, 0.735963, -20.857468, -81.898392, -612.809082
1733468029.903430, 12.623428, -2.032378, 10.040982, -0.441939, -1.272861, 0.847467, -21.047821, -82.251694, -613.117798
1733468029.913438, 12.177658, -2.101810, 10.313772, -0.449306, -1.536430, 0.935938, -21.201996, -82.469360, -613.533081
1733468029.923432, 11.836933, -1.994969, 10.564564, -0.475877, -1.876467, 1.026713, -21.473297, -82.439972, -613.948242
1733468029.933435, 11.407772, -2.120664, 10.153061, -0.543173, -2.099619, 1.091636, -21.642029, -82.884201, -614.725708
1733468029.943438, 10.928184, -2.262221, 9.335142, -0.618336, -2.224147, 1.145070, -22.122238, -83.111252, -615.392700
1733468029.953438, 10.535684, -2.313098, 8.567651, -0.651720, -2.316943, 1.204669, -22.464432, -83.294464, -616.008118
1733468029.963439, 10.220548, -2.416348, 7.831134, -0.637725, -2.419176, 1.267237, -22.830826, -83.634689, -616.493774
1733468029.973437, 10.072257, -2.427122, 7.333290, -0.603627, -2.549051, 1.370453, -23.077179, -83.889206, -617.073547
1733468029.983432, 9.990106, -2.213739, 6.757933, -0.555718, -2.652190, 1.525447, -23.665649, -84.265533, -617.746826
1733468029.993431, 9.731981, -2.128146, 6.024260, -0.499371, -2.640869, 1.699580, -24.293304, -84.852982, -618.329834
1733468030.003432, 9.367913, -2.223166, 5.370943, -0.458449, -2.521154, 1.871998, -25.111389, -84.931747, -619.219360
1733468030.013427, 9.052327, -2.284817, 5.217863, -0.454142, -2.419127, 2.041176, -25.831024, -85.222916, -620.012512
1733468030.023429, 8.584111, -2.322525, 5.423465, -0.483257, -2.428676, 2.176792, -26.710602, -85.713989, -620.545166
1733468030.033431, 8.003068, -2.362927, 5.510255, -0.510091, -2.499364, 2.293367, -27.913193, -86.091476, -620.862732
1733468030.043428, 7.411102, -2.380734, 5.415684, -0.529566, -2.586484, 2.383259, -29.122330, -86.568100, -621.656616
1733468030.053426, 6.833351, -2.697667, 5.151574, -0.569946, -2.625994, 2.433504, -29.970886, -86.811447, -622.226685
1733468030.063428, 6.314557, -2.902072, 4.818630, -0.633524, -2.632189, 2.485580, -31.117966, -87.025986, -622.705322
1733468030.073426, 5.843797, -2.924517, 4.578761, -0.707555, -2.616731, 2.541277, -32.535995, -87.181442, -623.267334
1733468030.083425, 5.399673, -3.091513, 4.293701, -0.786815, -2.600914, 2.598575, -33.692123, -87.554642, -623.730225
1733468030.093422, 5.130325, -3.258209, 3.727323, -0.840467, -2.551493, 2.680290, -34.921646, -87.837708, -623.875977
1733468030.103464, 4.846912, -3.316568, 3.074155, -0.848857, -2.460132, 2.779233, -36.483795, -87.830322, -625.347534
1733468030.113426, 4.483592, -3.372532, 2.601450, -0.828448, -2.352005, 2.878828, -38.215424, -87.950241, -625.751587
1733468030.123438, 4.070592, -3.491045, 2.282123, -0.804745, -2.244875, 2.959215, -39.514282, -87.983841, -626.226501
1733468030.133421, 3.494936, -3.623475, 1.976264, -0.782955, -2.116289, 3.024639, -41.335480, -88.166245, -626.753357
1733468030.143420, 2.943521, -3.855413, 1.885434, -0.770336, -1.999705, 3.056001, -42.872574, -88.040421, -626.664368
1733468030.153420, 2.393304, -4.093935, 2.115277, -0.813167, -1.905721, 3.065320, -44.261185, -88.027786, -627.329102
1733468030.163438, 1.855207, -4.179827, 2.321777, -0.921421, -1.856321, 3.043952, -45.954468, -87.921814, -627.649780
1733468030.173433, 1.409137, -4.312406, 2.396745, -1.074368, -1.830027, 3.023802, -47.558365, -87.523315, -628.172180
1733468030.183448, 1.081880, -4.258537, 2.292747, -1.247171, -1.776021, 3.033896, -49.409988, -87.096588, -628.660278
1733468030.193429, 0.614262, -4.119523, 2.055721, -1.424110, -1.712615, 3.032348, -50.833405, -86.943878, -628.731201
1733468030.203434, 0.020500, -4.168754, 1.869423, -1.577529, -1.739575, 2.980841, -52.164505, -86.415100, -629.883484
1733468030.213428, -0.455796, -4.226364, 1.611747, -1.670703, -1.877506, 2.905246, -53.742111, -85.869568, -630.152832
1733468030.223422, -1.074248, -4.349217, 1.198896, -1.691063, -2.062043, 2.792038, -55.735260, -85.358322, -631.062622
1733468030.233422, -1.573290, -4.744859, 0.423923, -1.669772, -2.155605, 2.648442, -57.156113, -84.727051, -631.645569
1733468030.243425, -1.981501, -4.992060, -0.427664, -1.638786, -2.125639, 2.519595, -58.522659, -84.054443, -631.750916
1733468030.253423, -2.137424, -4.904522, -1.111358, -1.613922, -2.032347, 2.429611, -59.471802, -83.416534, -632.067871
1733468030.263422, -2.218677, -4.770148, -1.327734, -1.568045, -2.048451, 2.349797, -61.212646, -82.660660, -632.623962
1733468030.273430, -2.404227, -4.711490, -1.366191, -1.490647, -2.182745, 2.236855, -62.947784, -82.119370, -633.030640
1733468030.283422, -2.538303, -4.835988, -1.547103, -1.371226, -2.361761, 2.115201, -63.954132, -81.472610, -633.650024
1733468030.293418, -2.566435, -4.982184, -1.869572, -1.241503, -2.476813, 2.019134, -65.072876, -80.536407, -632.665649
1733468030.303422, -2.475006, -4.926519, -2.254440, -1.130153, -2.501713, 1.982788, -66.313232, -79.930756, -633.845520
1733468030.313420, -2.214038, -4.646397, -2.388815, -1.051434, -2.436101, 2.030601, -67.513367, -79.294113, -633.296509
1733468030.323432, -1.955165, -4.277690, -2.322525, -1.056285, -2.299223, 2.151841, -68.561142, -78.525497, -632.944702
1733468030.333427, -2.006191, -3.845537, -2.054674, -1.181194, -2.174406, 2.312679, -69.636703, -77.491852, -632.593750
1733468030.343423, -2.372355, -3.557335, -1.824531, -1.405361, -2.114500, 2.486195, -70.819717, -76.434204, -632.299805
1733468030.353419, -3.166481, -3.195062, -1.905934, -1.655954, -2.145571, 2.624870, -71.910873, -75.236542, -632.451050
1733468030.363417, -4.210503, -3.103783, -2.746149, -1.841224, -2.168063, 2.689758, -72.982910, -74.031296, -632.247070
1733468030.373419, -5.210232, -3.208230, -4.229507, -1.913723, -2.074585, 2.721767, -74.286880, -72.627075, -631.521912
1733468030.383414, -5.919963, -3.068319, -5.640141, -1.890899, -1.887475, 2.754598, -75.168823, -71.376984, -631.613647
1733468030.393420, -6.499060, -2.941726, -6.669498, -1.817100, -1.670062, 2.810826, -76.291702, -69.868240, -631.097351
1733468030.403415, -7.015011, -2.969708, -7.419332, -1.734278, -1.467182, 2.854197, -77.230423, -68.538177, -631.860901
1733468030.413423, -8.192210, -3.271826, -7.871088, -1.600503, -1.457198, 2.775135, -78.185944, -67.267456, -631.792480
1733468030.423418, -9.724349, -4.110844, -8.587104, -1.383502, -1.520673, 2.570080, -79.365234, -66.052689, -631.378906
1733468030.433423, -10.741436, -4.621258, -9.500940, -1.108464, -1.579549, 2.305952, -79.709610, -64.959671, -631.228394
1733468030.443431, -11.212645, -4.915296, -10.192116, -0.792303, -1.635314, 2.066284, -79.913757, -64.056931, -630.580933
1733468030.453421, -11.145458, -5.137508, -10.782138, -0.451530, -1.605735, 1.944695, -80.427536, -63.240707, -629.762451
1733468030.463435, -10.740987, -4.963629, -10.973075, -0.198646, -1.406325, 1.947317, -80.974670, -62.014328, -629.431946
1733468030.473425, -10.802937, -4.797082, -10.393828, -0.099944, -1.174240, 1.993667, -81.487976, -61.031860, -628.726562
1733468030.483186, -11.616666, -5.019893, -9.349657, -0.132973, -1.104039, 1.965479, -81.715927, -60.166321, -628.796265
1733468030.493431, -12.732664, -5.541529, -8.831761, -0.196014, -1.058610, 1.857041, -82.033661, -59.420120, -627.170471
1733468030.503426, -13.608343, -6.362441, -9.222614, -0.213479, -0.982514, 1.678595, -82.454269, -58.683777, -627.794922
1733468030.513434, -14.322863, -7.054366, -9.701006, -0.226381, -0.826762, 1.488820, -82.536194, -57.746597, -627.090393
1733468030.523434, -14.865598, -7.398682, -10.073005, -0.281467, -0.595106, 1.308367, -82.510941, -57.321045, -626.885986
1733468030.533411, -15.114745, -7.300220, -10.235960, -0.369783, -0.327060, 1.168250, -82.726944, -56.698792, -626.941284
1733468030.543407, -15.229666, -7.113023, -10.426898, -0.466024, -0.087508, 1.049860, -82.803192, -56.271866, -627.082520
1733468030.553422, -15.470134, -7.044639, -10.683826, -0.508837, 0.057002, 0.896859, -82.973038, -55.908890, -627.121216
1733468030.563436, -15.845126, -7.199963, -11.149049, -0.449661, 0.088836, 0.672407, -83.192886, -55.257477, -627.451782
1733468030.573420, -16.151883, -7.458088, -11.531972, -0.276074, -0.022338, 0.410219, -83.469177, -55.318848, -627.155762
1733468030.583426, -16.399683, -7.390302, -11.899332, -0.036328, -0.116258, 0.140886, -83.312241, -55.026733, -627.167603
1733468030.593427, -16.632369, -7.246051, -12.423213, 0.200745, -0.017183, -0.119142, -83.366135, -55.351624, -626.765381
1733468030.603413, -16.597953, -7.170335, -12.591406, 0.368655, 0.255775, -0.352175, -83.129471, -55.469376, -627.462646
1733468030.613426, -16.175226, -7.099406, -12.165537, 0.434916, 0.564992, -0.526109, -83.139893, -55.873062, -627.664673
1733468030.623413, -15.699528, -6.751050, -11.509526, 0.443107, 0.834556, -0.667963, -82.881439, -56.314499, -627.977783
1733468030.633412, -15.278598, -6.473472, -10.976218, 0.482812, 1.037642, -0.814642, -82.692719, -56.883011, -628.562378
1733468030.643413, -14.943260, -6.409128, -10.727370, 0.594202, 1.171960, -0.980416, -82.571198, -57.431503, -628.540588
1733468030.653415, -14.652963, -6.398803, -10.570550, 0.783654, 1.250679, -1.166894, -82.541733, -58.016403, -629.189758
1733468030.663043, -14.215423, -6.491579, -10.242395, 1.011417, 1.260457, -1.381932, -81.990143, -58.937332, -629.649292
1733468030.673412, -13.736433, -6.283882, -9.588927, 1.234154, 1.215010, -1.601104, -81.559326, -59.866379, -630.175415
1733468030.683417, -13.070845, -5.891083, -8.864083, 1.449447, 1.126066, -1.792492, -81.230103, -61.056778, -629.963989
1733468030.693413, -12.235867, -5.515642, -8.096591, 1.630210, 1.033305, -1.943454, -80.582169, -62.288940, -629.679199
1733468030.703413, -11.553669, -5.158307, -7.338228, 1.723309, 1.035210, -2.057529, -80.000580, -63.367188, -630.184326
1733468030.713411, -10.928633, -4.951808, -6.539612, 1.698292, 1.126543, -2.147053, -79.289886, -64.471832, -630.096985
1733468030.723413, -10.377966, -4.935647, -5.772869, 1.578109, 1.270289, -2.206762, -78.674088, -65.773880, -630.456421
1733468030.733414, -9.897480, -5.025579, -5.311237, 1.438643, 1.476573, -2.258168, -77.790802, -67.054382, -630.584229
1733468030.743421, -9.419388, -5.129427, -5.072116, 1.339094, 1.716098, -2.310502, -77.002228, -68.212845, -631.239868
1733468030.753410, -8.851513, -5.072565, -4.824017, 1.304881, 1.922693, -2.367966, -76.535080, -69.416901, -631.105225
1733468030.763427, -8.278700, -4.904821, -4.417901, 1.340664, 2.027871, -2.426936, -75.684937, -70.635361, -631.911560
1733468030.773414, -7.616255, -4.711490, -3.849577, 1.423622, 2.017914, -2.489634, -74.488464, -71.823746, -632.037842
1733468030.783406, -6.889465, -4.542998, -3.204040, 1.529444, 1.868202, -2.557902, -73.602570, -73.056107, -631.707642
1733468030.793411, -6.234651, -4.378696, -2.643498, 1.615073, 1.648481, -2.634509, -72.596619, -74.469376, -631.127808
1733468030.803416, -5.693860, -4.247912, -2.291850, 1.648472, 1.386649, -2.729780, -71.607941, -75.600952, -632.092773
1733468030.813411, -5.226393, -4.065504, -2.013524, 1.647671, 1.142897, -2.841844, -70.275620, -76.751328, -631.269226
1733468030.823413, -4.749049, -4.125209, -2.287660, 1.648760, 1.060664, -2.943210, -68.748657, -77.893112, -631.462952
1733468030.833416, -4.328118, -4.264372, -2.585289, 1.654268, 1.182243, -3.026073, -68.748657, -77.893112, -631.462952
1733468030.843423, -3.867833, -4.221726, -2.666243, 1.663871, 1.435934, -3.090048, -67.428802, -79.107361, -631.281189
1733468030.853433, -3.236661, -3.960159, -2.278532, 1.663067, 1.688018, -3.124934, -66.197891, -80.348129, -630.604797
1733468030.863467, -2.484433, -3.563171, -1.381754, 1.615948, 1.817933, -3.127852, -64.677322, -81.419724, -630.529358
1733468030.872919, -1.722927, -3.197905, -0.521038, 1.534735, 1.834440, -3.099860, -62.931122, -82.368698, -629.854431
1733468030.883376, -0.968754, -2.908057, 0.010175, 1.446462, 1.755994, -3.044100, -61.172852, -83.433197, -629.826538
1733468030.893407, -0.317232, -2.650531, 0.232836, 1.359476, 1.620783, -2.973827, -59.634399, -84.173309, -629.699341
1733468030.903406, 0.119112, -2.696170, -0.013916, 1.292247, 1.539533, -2.910350, -58.621445, -85.125793, -628.911377
1733468030.913419, 0.364966, -3.119944, -0.528969, 1.271728, 1.565319, -2.890017, -57.040131, -85.611649, -629.222107
1733468030.923477, 0.612317, -3.486107, -0.875081, 1.306888, 1.684250, -2.904052, -55.667923, -86.227936, -628.985168
1733468030.933422, 1.000776, -3.695750, -0.921768, 1.379721, 1.852015, -2.936577, -54.227356, -86.754822, -628.296814
1733468030.943420, 1.567454, -3.853468, -0.677110, 1.457544, 2.087760, -2.945757, -52.406982, -87.329010, -627.840088
1733468030.953408, 2.254889, -3.800197, -0.085742, 1.467776, 2.345041, -2.913842, -50.871719, -87.850006, -627.721436
1733468030.963411, 2.920627, -3.644873, 0.865055, 1.357637, 2.527601, -2.831464, -49.140732, -88.181763, -627.016541
1733468030.972774, 3.670610, -3.526210, 1.860295, 1.174075, 2.534022, -2.725295, -47.709808, -88.505051, -626.479004
1733468030.983420, 4.393061, -3.297115, 2.885013, 0.992517, 2.310149, -2.592070, -46.396912, -88.735855, -626.356506
1733468030.993428, 4.750545, -3.285593, 3.455880, 0.849823, 1.979018, -2.511568, -45.019333, -88.852173, -625.492004
1733468031.003411, 4.650737, -4.029591, 3.116802, 0.807895, 1.699448, -2.536536, -43.724106, -89.020401, -624.865723
1733468031.012754, 4.742465, -4.680664, 2.401684, 0.879483, 1.519373, -2.567726, -42.661240, -89.041702, -625.127075
1733468031.023418, 5.000141, -4.776732, 1.964293, 0.966201, 1.441749, -2.611661, -41.226318, -89.086914, -624.698730
1733468031.033456, 5.243152, -4.701763, 1.897854, 0.985334, 1.420455, -2.651342, -39.732422, -89.156876, -624.132812
1733468031.043401, 5.813421, -4.228010, 2.152537, 0.899561, 1.420313, -2.626220, -38.468491, -89.080902, -623.267822
1733468031.053409, 6.300491, -3.781043, 2.363077, 0.732716, 1.430832, -2.571281, -37.317062, -88.949326, -623.078979
1733468031.063456, 6.629993, -3.628862, 2.248604, 0.595966, 1.454138, -2.485673, -35.813599, -88.847900, -622.758423
1733468031.073411, 7.053617, -3.444807, 1.720533, 0.596301, 1.507218, -2.372725, -34.728210, -88.580185, -622.579041
1733468031.083417, 7.267001, -3.305944, 1.443704, 0.751409, 1.503727, -2.273506, -33.566269, -88.452774, -621.946716
1733468031.093409, 7.519888, -3.085976, 1.628506, 0.957525, 1.433701, -2.158229, -32.508102, -88.138535, -621.116455
1733468031.103402, 7.722797, -2.785504, 1.982549, 1.091317, 1.321645, -2.041673, -31.496201, -88.245865, -619.948486
1733468031.113402, 7.864055, -2.673575, 2.096124, 1.095391, 1.332103, -1.918067, -30.520325, -87.965805, -620.278625
1733468031.123412, 8.010699, -2.258929, 2.069488, 0.974901, 1.392432, -1.753727, -29.462173, -87.720963, -619.448242
1733468031.133400, 7.780706, -2.114529, 1.950526, 0.848147, 1.407151, -1.690759, -28.918945, -87.361435, -619.183838
1733468031.143406, 7.275680, -2.561796, 1.618630, 0.887485, 1.357192, -1.746041, -28.472519, -87.262283, -618.805542
1733468031.153400, 6.917447, -3.060837, 0.847248, 1.148028, 1.331807, -1.890388, -27.728836, -87.072479, -617.811401
1733468031.163427, 6.996605, -3.330933, 0.543633, 1.574157, 1.303553, -2.044980, -26.934967, -86.604614, -616.943542
1733468031.173406, 7.600992, -2.951153, 1.084723, 2.025199, 1.238154, -2.153410, -26.044098, -86.197418, -615.867004
1733468031.183403, 8.560468, -2.438794, 2.406622, 2.377192, 1.137090, -2.207888, -25.190506, -85.798050, -614.760132
1733468031.193406, 9.848399, -2.117522, 3.951480, 2.572469, 1.051102, -2.168070, -24.306168, -85.232727, -613.198975
1733468031.203105, 11.342530, -1.821090, 5.743391, 2.599064, 0.957095, -2.050858, -23.830002, -84.887634, -610.884216
1733468031.213412, 12.676849, -1.693449, 7.724742, 2.456862, 0.818972, -1.880590, -23.237976, -84.191757, -610.291687
1733468031.223406, 13.887716, -1.613692, 9.430311, 2.185081, 0.669874, -1.647190, -22.745636, -83.877228, -609.177490
1733468031.233398, 14.977826, -1.447445, 10.924293, 1.786784, 0.506876, -1.349209, -22.172470, -83.403214, -608.304443
1733468031.243397, 15.593735, -1.297807, 11.893496, 1.283231, 0.440781, -1.007837, -21.638229, -82.946014, -608.130615
1733468031.253394, 15.815348, -1.589451, 12.046575, 0.744279, 0.529939, -0.705473, -21.760498, -82.983139, -607.962585
1733468031.263415, 15.795596, -2.249203, 11.791144, 0.219579, 0.742658, -0.476929, -21.761948, -82.811188, -607.494812
1733468031.273413, 15.898846, -2.620005, 11.496059, -0.242893, 0.907424, -0.288838, -22.030594, -82.581985, -607.233215
1733468031.283404, 16.023793, -2.607136, 11.141866, -0.562736, 0.922759, -0.128282, -22.136139, -82.795792, -607.802429
1733468031.293399, 16.003293, -2.625691, 10.512341, -0.705615, 0.789125, 0.000235, -22.228302, -82.907532, -607.495911
1733468031.303397, 15.834502, -2.724153, 10.102035, -0.715694, 0.508849, 0.077305, -22.412933, -83.011353, -607.983215
1733468031.313397, 15.527745, -2.729839, 10.054300, -0.672368, 0.070181, 0.126679, -22.164581, -83.012848, -608.357910
1733468031.323396, 15.317504, -2.593519, 9.907955, -0.605266, -0.411649, 0.196340, -22.249298, -82.895645, -608.318176
1733468031.333399, 15.226674, -2.491017, 9.151836, -0.538400, -0.708987, 0.317825, -22.195648, -83.104584, -608.754578
1733468031.343392, 15.020772, -2.392705, 8.286033, -0.502959, -0.808815, 0.473741, -22.123901, -83.073929, -609.060486
1733468031.353391, 14.706683, -2.232593, 7.675062, -0.514221, -0.763080, 0.674968, -22.381271, -83.279053, -609.261108
1733468031.363399, 14.350845, -2.132186, 7.295881, -0.564828, -0.632054, 0.876978, -22.727325, -83.567703, -609.683411
1733468031.373443, 13.964780, -2.326266, 7.152229, -0.640914, -0.535072, 1.059092, -23.049393, -83.666519, -610.086548
1733468031.383408, 13.517962, -2.413355, 7.078607, -0.706865, -0.502154, 1.209663, -23.554855, -84.174667, -610.260498
1733468031.393397, 12.970737, -2.565537, 6.689399, -0.736467, -0.475415, 1.325142, -23.954819, -84.501343, -610.937317
1733468031.403394, 12.481572, -2.806902, 6.201880, -0.721576, -0.474934, 1.414412, -24.561752, -84.720551, -611.333435
1733468031.413400, 11.969512, -2.980931, 5.935675, -0.650916, -0.563435, 1.466741, -25.063400, -85.091187, -611.752502
1733468031.423398, 11.535413, -3.191920, 5.858462, -0.518088, -0.742730, 1.498325, -25.446442, -85.330170, -612.089722
1733468031.433404, 11.107599, -3.333627, 5.900809, -0.365033, -0.988414, 1.519831, -26.173599, -85.536606, -612.422119
1733468031.443402, 10.701483, -3.391536, 6.029947, -0.237112, -1.270789, 1.537565, -26.498581, -85.834274, -612.581909
1733468031.453393, 10.244340, -3.428048, 6.150405, -0.157201, -1.539348, 1.557369, -26.996094, -86.096878, -612.707764
1733468031.463403, 9.755324, -3.463811, 6.025607, -0.131356, -1.689869, 1.602500, -27.426697, -86.422363, -613.036133
1733468031.473395, 9.292196, -3.436727, 5.783194, -0.169163, -1.686502, 1.671328, -27.983765, -86.563370, -613.581787
1733468031.483392, 8.863783, -3.397223, 5.699846, -0.296834, -1.603185, 1.741923, -28.636017, -86.854065, -613.636169
1733468031.493401, 8.597429, -3.391536, 5.626075, -0.479680, -1.505263, 1.837955, -29.550125, -87.342926, -613.676208
1733468031.503397, 8.282890, -3.427449, 5.284602, -0.649596, -1.392038, 1.929320, -30.022690, -87.717651, -614.520203
1733468031.513398, 7.861212, -3.505710, 4.637868, -0.764215, -1.270835, 2.012351, -30.908447, -87.895142, -614.953491
1733468031.523390, 7.469760, -3.622726, 4.014478, -0.810417, -1.173563, 2.074682, -31.907166, -88.181946, -615.411133
1733468031.533393, 7.077559, -3.887435, 3.588160, -0.801525, -1.134550, 2.116317, -32.772827, -88.536972, -616.258728
1733468031.543392, 6.800431, -4.037821, 3.477129, -0.758855, -1.192963, 2.147158, -33.783951, -88.666763, -616.685547
1733468031.553390, 6.509834, -4.065205, 3.517382, -0.705691, -1.308868, 2.157353, -34.584366, -88.931213, -617.181458
1733468031.563439, 6.209961, -4.202273, 3.508703, -0.669571, -1.467656, 2.155917, -35.634033, -88.887192, -617.436829
1733468031.573391, 5.914726, -4.347870, 3.420117, -0.647698, -1.623737, 2.160835, -36.528046, -89.120667, -617.932495
1733468031.583383, 5.651812, -4.407875, 3.173814, -0.644412, -1.681385, 2.196542, -37.756271, -89.319122, -618.164307
1733468031.593399, 5.445163, -4.387524, 2.920477, -0.688123, -1.653276, 2.274710, -38.921509, -89.315521, -617.732239
1733468031.603441, 5.224148, -4.272752, 2.846556, -0.789916, -1.591440, 2.387912, -39.684296, -89.385544, -618.739319
1733468031.613390, 4.888661, -4.208707, 2.631976, -0.928947, -1.485645, 2.502207, -40.833221, -89.456223, -619.330566
1733468031.623388, 4.438700, -4.303877, 2.245462, -1.090465, -1.308813, 2.613358, -42.259567, -89.373306, -620.158142
1733468031.633387, 3.981857, -4.492121, 1.720533, -1.265010, -1.046395, 2.711128, -43.651260, -89.462158, -620.803284
1733468031.643424, 3.527557, -4.797681, 1.210269, -1.440208, -0.763693, 2.773586, -44.823227, -89.404297, -621.757263
1733468031.653389, 3.183540, -4.956895, 0.903362, -1.588559, -0.568727, 2.814454, -46.292618, -89.282471, -622.244873
1733468031.663327, 2.941277, -4.991162, 0.664391, -1.686732, -0.494668, 2.844629, -47.612335, -89.039658, -623.362854
1733468031.672583, 2.755726, -5.173720, 0.291344, -1.709264, -0.556668, 2.864168, -49.267227, -88.692719, -624.564331
1733468031.683402, 2.400636, -5.311087, -0.139313, -1.650533, -0.729879, 2.857558, -50.777634, -88.267746, -624.786377
1733468031.693382, 1.889923, -5.315427, -0.564433, -1.502783, -0.955359, 2.820589, -52.013580, -87.965836, -624.822021
1733468031.703386, 1.432780, -5.408950, -0.981922, -1.299095, -1.165564, 2.782062, -53.380386, -87.419861, -626.012817
1733468031.713461, 0.990900, -5.436633, -1.279252, -1.091472, -1.281309, 2.788918, -54.574295, -86.819046, -626.449402
1733468031.723389, 0.573411, -5.547515, -1.398812, -0.972487, -1.239704, 2.811802, -56.279663, -86.239609, -626.228210
1733468031.733384, 0.129137, -5.942857, -1.454328, -0.985470, -1.096131, 2.818174, -57.615677, -85.767822, -627.242310
1733468031.743389, -0.418087, -6.312762, -1.541118, -1.080594, -0.884161, 2.790822, -59.166168, -85.100632, -627.538818
1733468031.753394, -0.996287, -6.646753, -1.678485, -1.189726, -0.718400, 2.703808, -60.418991, -84.659760, -627.695801
1733468031.763450, -1.542165, -6.755689, -1.583016, -1.237954, -0.722906, 2.552971, -61.603668, -83.958359, -628.064026
1733468031.773396, -1.797896, -6.700622, -1.708712, -1.182181, -0.873228, 2.394007, -62.493866, -83.242783, -628.386963
1733468031.783384, -1.780239, -6.561010, -1.985242, -1.037413, -1.102504, 2.257468, -63.746948, -82.489426, -628.553345
1733468031.793380, -1.619079, -6.241983, -2.061108, -0.868732, -1.345422, 2.178296, -64.681610, -81.985825, -627.871948
1733468031.803380, -1.368735, -5.782596, -2.043451, -0.755475, -1.531967, 2.181460, -65.748886, -81.379898, -628.737549
1733468031.813381, -1.214160, -5.519383, -1.988534, -0.739871, -1.633169, 2.241126, -66.733215, -80.629700, -628.552612
1733468031.823381, -1.325789, -5.271583, -2.011878, -0.803684, -1.618110, 2.327536, -67.788666, -79.871826, -628.561829
1733468031.833383, -1.600524, -5.106084, -2.254291, -0.929809, -1.451791, 2.421735, -69.138168, -78.923889, -628.171814
1733468031.843381, -1.986888, -4.972458, -2.673575, -1.106230, -1.145235, 2.502471, -70.099686, -77.952530, -628.378662
1733468031.853396, -2.181567, -4.935796, -3.052607, -1.318416, -0.826257, 2.581332, -71.136871, -76.874649, -628.677429
1733468031.863401, -2.325817, -4.844069, -3.449745, -1.497213, -0.557222, 2.665644, -72.207779, -75.641205, -629.180786
1733468031.873394, -2.473659, -4.746206, -3.970335, -1.596834, -0.319290, 2.755805, -73.304977, -74.520950, -629.638855
1733468031.883390, -2.602796, -4.652383, -4.506336, -1.622440, -0.116772, 2.859753, -74.295273, -73.429672, -630.862366
1733468031.893383, -2.816778, -4.705205, -4.634726, -1.611994, -0.066315, 2.920707, -75.442413, -72.060135, -630.030273
1733468031.903380, -3.288586, -4.968268, -4.447978, -1.584352, -0.237380, 2.940971, -76.262924, -70.628769, -631.201782
1733468031.913385, -4.014178, -5.164443, -4.331260, -1.515482, -0.578751, 2.911351, -77.251892, -69.500336, -631.836060
1733468031.923389, -5.017498, -5.199159, -4.634875, -1.392679, -0.888399, 2.840727, -77.933777, -67.915604, -631.450439
1733468031.933390, -6.199037, -5.393089, -5.352986, -1.231376, -1.074810, 2.745987, -78.765442, -66.683701, -631.345764
1733468031.943394, -7.328951, -5.663334, -6.200384, -1.083021, -1.026035, 2.657823, -79.204865, -65.295181, -630.890198
1733468031.953382, -8.174852, -5.878214, -6.913706, -0.999768, -0.773862, 2.585989, -79.708481, -63.962555, -631.038086
1733468031.963385, -8.765172, -6.254253, -7.214927, -1.016853, -0.475414, 2.524299, -80.458145, -62.794647, -631.013916
1733468031.973386, -9.376442, -6.480505, -7.067683, -1.101711, -0.348219, 2.420513, -81.098175, -61.662918, -631.354675
1733468031.983382, -10.279355, -6.542156, -7.040300, -1.124947, -0.425344, 2.229927, -81.382095, -60.536072, -631.378296
1733468031.993380, -11.157728, -6.612186, -7.653963, -0.990403, -0.615683, 2.005323, -81.838440, -59.848038, -630.547363
1733468032.003427, -11.953501, -6.816292, -8.558223, -0.710061, -0.839279, 1.783084, -82.037079, -58.980362, -630.688293
1733468032.013386, -12.624476, -7.405116, -9.303718, -0.385213, -0.978465, 1.545110, -82.398331, -58.142090, -630.106689
1733468032.023389, -13.092991, -7.963863, -9.631873, -0.126388, -0.976174, 1.291839, -82.608261, -57.438766, -629.674927
1733468032.033387, -13.439851, -8.341249, -9.525032, -0.007610, -0.838538, 1.023077, -82.899460, -57.322754, -629.719299
1733468032.043381, -13.350068, -8.579322, -9.312696, 0.009701, -0.653234, 0.795770, -82.939072, -57.019104, -629.573853
1733468032.053375, -12.991537, -8.435521, -9.033024, 0.001797, -0.515764, 0.615331, -83.053070, -56.742432, -629.097473
1733468032.063379, -12.697050, -8.303690, -8.911967, 0.033219, -0.446839, 0.466468, -83.197525, -56.615738, -628.909851
1733468032.073377, -12.467805, -8.233061, -9.135974, 0.111963, -0.372793, 0.353204, -83.186996, -56.410004, -628.846436
1733468032.083377, -12.347945, -8.240094, -9.419837, 0.206137, -0.244174, 0.252190, -83.455658, -56.447342, -628.638184
1733468032.093378, -12.274922, -8.312070, -9.440636, 0.277776, -0.075710, 0.159687, -83.260330, -56.484268, -627.828796
1733468032.103376, -12.193370, -8.362946, -9.160964, 0.307297, 0.080100, 0.081975, -83.255630, -56.379715, -628.845642
1733468032.113378, -12.205341, -8.474426, -8.871864, 0.303191, 0.229516, -0.003219, -83.503494, -56.535965, -628.578552
1733468032.123376, -12.289138, -8.528895, -8.572439, 0.286737, 0.334449, -0.114195, -83.239365, -56.678528, -628.979431
1733468032.133375, -12.429648, -8.443302, -8.180089, 0.284834, 0.371009, -0.251116, -83.226212, -56.948502, -628.761230
1733468032.143446, -12.605322, -8.527697, -7.969998, 0.312773, 0.350869, -0.424032, -82.783600, -57.254730, -628.986755
1733468032.153373, -12.698995, -8.545654, -7.930643, 0.361136, 0.324483, -0.608401, -82.623428, -57.643723, -629.292297
1733468032.163398, -12.674455, -8.423101, -8.088511, 0.416611, 0.351866, -0.780471, -82.833832, -58.106857, -629.497009
1733468032.173385, -12.509404, -8.183681, -8.303241, 0.474012, 0.443439, -0.933249, -82.342331, -58.755127, -629.526367
1733468032.183387, -12.261605, -7.995436, -8.308478, 0.520759, 0.575381, -1.069346, -82.268234, -59.439987, -629.704041
1733468032.193384, -11.802067, -7.869890, -8.220042, 0.561007, 0.724991, -1.186086, -81.769440, -60.265549, -629.274292
1733468032.203388, -11.291055, -7.731476, -8.016086, 0.609414, 0.837146, -1.275897, -81.481720, -60.818436, -629.984863
1733468032.213385, -10.949133, -7.496545, -7.744644, 0.679193, 0.921077, -1.358691, -81.049225, -61.665756, -630.619751
1733468032.223383, -10.639982, -7.238719, -7.352294, 0.757718, 0.961254, -1.431069, -80.634186, -62.474854, -630.443237
1733468032.233374, -10.293421, -6.870162, -6.394613, 0.847030, 0.976605, -1.611337, -80.115021, -63.372635, -631.051819
1733468032.243372, -10.025121, -6.917896, -6.144719, 0.872216, 0.992763, -1.722685, -79.663605, -64.242264, -630.808472
1733468032.253375, -9.685892, -6.835745, -6.011691, 0.911110, 1.022626, -1.837017, -79.059067, -65.295929, -631.055908
1733468032.263376, -9.436147, -6.836792, -5.949142, 0.967409, 1.100620, -1.961141, -78.538101, -66.073334, -631.437622
1733468032.273378, -9.138967, -6.742970, -5.768380, 1.028877, 1.200612, -2.084871, -77.744720, -67.168320, -631.841492
1733468032.283374, -8.741380, -6.465242, -5.377826, 1.087898, 1.270165, -2.198258, -77.028778, -68.383438, -632.032837
1733468032.293376, -8.197896, -6.173748, -4.944924, 1.153785, 1.307124, -2.294998, -76.416931, -69.525818, -631.378296
1733468032.303382, -7.513454, -5.961263, -4.478653, 1.231709, 1.306140, -2.368311, -75.314575, -70.761627, -632.159058
1733468032.313388, -6.828862, -5.787384, -3.981857, 1.290140, 1.262769, -2.432699, -74.631165, -71.802444, -632.176758
1733468032.323389, -6.189161, -5.602582, -3.469946, 1.316758, 1.164645, -2.492195, -73.751221, -72.815445, -631.785889
1733468032.333374, -5.564723, -5.449203, -3.103484, 1.335467, 1.038092, -2.533865, -72.700623, -74.240479, -631.914246
1733468032.343379, -4.894945, -5.343110, -2.986467, 1.364223, 0.924221, -2.561064, -71.589218, -75.429779, -632.080200
1733468032.353368, -4.405481, -5.189432, -2.904765, 1.392391, 0.869236, -2.579831, -70.759705, -76.347198, -631.706238
1733468032.363380, -4.088848, -5.074361, -2.867655, 1.419191, 0.920466, -2.611257, -70.759705, -76.347198, -631.706238
1733468032.373375, -3.757849, -5.077354, -2.812588, 1.440158, 1.030721, -2.649946, -69.755234, -77.565704, -631.792969
1733468032.383371, -3.313425, -4.963330, -2.554464, 1.435627, 1.131010, -2.701214, -68.436081, -78.385284, -631.100464
1733468032.393376, -2.843713, -5.033061, -2.255937, 1.400203, 1.193071, -2.776339, -67.383392, -79.372131, -631.081665
1733468032.403366, -2.253393, -5.114314, -1.959056, 1.355671, 1.192414, -2.860287, -66.292450, -80.514740, -630.083618
1733468032.413369, -1.624167, -4.953454, -1.580772, 1.310672, 1.142245, -2.925000, -65.030441, -81.306915, -630.311829
1733468032.423372, -0.852785, -4.728698, -1.416320, 1.280650, 1.108370, -2.955378, -63.676834, -82.446686, -630.203796
1733468032.433368, 0.018555, -4.590882, -1.278055, 1.256583, 1.090917, -2.943583, -62.104233, -83.095093, -629.563843
1733468032.442720, 0.800112, -4.335899, -0.991948, 1.197349, 1.063573, -2.876912, -60.792908, -83.665909, -628.798096
1733468032.453378, 1.462109, -4.113987, -0.844704, 1.107525, 1.061570, -2.760458, -59.342072, -84.644897, -628.737122
1733468032.463373, 1.984344, -4.191200, -0.970699, 1.027750, 1.098036, -2.615666, -58.160126, -85.377029, -629.246460
1733468032.473369, 2.263568, -4.257938, -1.227777, 0.977850, 1.200097, -2.459193, -56.574890, -85.649811, -628.398682
1733468032.483368, 2.293645, -4.371812, -1.567454, 0.987127, 1.379765, -2.313302, -55.133209, -86.139511, -627.813965
1733468032.493430, 2.347664, -4.546888, -1.692850, 1.055437, 1.609909, -2.194267, -54.063354, -86.412094, -627.747375
1733468032.503370, 2.497003, -4.553921, -1.471985, 1.137843, 1.812063, -2.094313, -52.847656, -86.919662, -627.036987
1733468032.513371, 2.644695, -4.391115, -0.778564, 1.165282, 1.916502, -2.005723, -51.598923, -87.446747, -626.817627
1733468032.523393, 2.668038, -4.326173, 0.205303, 1.107363, 1.852838, -1.986975, -50.862808, -87.521240, -626.376465
1733468032.533379, 2.489670, -4.412514, 1.029507, 1.003368, 1.611440, -2.060711, -49.906464, -87.928940, -626.357117
1733468032.543370, 2.324471, -4.896442, 1.053299, 0.977174, 1.323244, -2.220047, -48.829987, -88.148407, -625.925781
1733468032.553371, 2.444480, -5.263802, 0.567725, 1.103618, 1.075882, -2.365838, -47.565598, -88.547073, -625.601501
1733468032.563377, 2.743605, -4.921431, 0.260519, 1.289983, 0.916210, -2.476190, -46.414536, -88.723251, -625.130798
1733468032.573370, 3.064877, -4.528782, 0.360926, 1.441930, 0.804158, -2.538949, -45.182297, -88.824219, -624.249634
1733468032.583367, 3.440318, -4.185214, 0.749684, 1.500909, 0.742835, -2.556653, -43.673874, -88.929031, -623.647339
1733468032.593376, 3.673603, -3.984251, 0.900968, 1.491911, 0.777109, -2.566999, -42.285400, -89.080032, -623.232178
1733468032.603366, 3.952378, -3.859902, 0.937330, 1.478426, 0.845838, -2.556668, -40.884430, -89.127747, -621.766968
1733468032.613368, 4.305672, -3.951031, 1.080683, 1.498501, 0.934909, -2.567547, -39.964737, -89.187576, -621.904968
1733468032.623366, 4.662857, -4.122067, 1.107767, 1.578749, 1.051916, -2.583512, -38.624527, -89.088913, -620.952393
1733468032.633363, 5.050119, -3.972878, 1.432032, 1.681709, 1.166244, -2.575992, -37.473068, -89.057602, -620.363037
1733468032.643369, 5.571756, -3.677943, 2.280178, 1.745379, 1.189852, -2.554241, -36.194412, -88.815842, -619.410645
1733468032.653366, 6.269666, -3.465906, 3.322853, 1.712430, 1.118213, -2.503856, -35.153809, -88.775620, -618.310364
1733468032.663317, 6.965930, -3.145981, 4.259584, 1.553709, 0.991433, -2.415890, -33.955566, -88.490616, -617.081543
1733468032.673364, 7.386262, -2.833089, 4.795586, 1.287021, 0.806131, -2.329167, -32.891602, -88.151657, -616.904175
1733468032.683379, 7.270891, -2.945317, 4.516063, 1.117246, 0.639566, -2.297957, -31.760422, -87.906906, -616.011169
1733468032.693377, 6.978050, -3.315071, 3.580678, 1.130272, 0.577769, -2.334922, -30.900970, -87.731949, -615.379761
1733468032.703408, 6.882881, -3.495834, 2.561646, 1.284956, 0.589388, -2.399951, -29.973923, -87.598969, -614.492859
1733468032.713367, 7.252037, -3.421763, 2.182764, 1.501747, 0.610621, -2.441654, -28.852341, -87.173172, -614.237671
1733468032.723362, 7.775619, -3.242647, 2.378041, 1.671875, 0.635523, -2.479172, -27.903580, -86.695129, -613.424072
1733468032.733363, 8.279748, -2.990657, 3.056797, 1.763902, 0.636320, -2.493142, -27.008484, -86.221191, -612.634338
1733468032.743367, 8.946084, -2.475754, 4.014328, 1.771277, 0.567461, -2.450324, -26.119965, -85.681564, -611.659851
1733468032.753358, 9.700407, -2.032228, 5.009568, 1.737004, 0.421573, -2.363217, -25.056061, -85.187851, -611.012390
1733468032.763365, 10.490793, -1.872864, 5.698799, 1.711965, 0.302746, -2.273063, -24.640015, -84.701721, -609.986633
1733468032.773366, 11.246313, -2.045247, 6.190957, 1.714764, 0.226493, -2.189782, -23.469025, -84.126724, -609.126099
1733468032.783357, 12.127829, -2.038513, 6.893355, 1.691818, 0.157646, -2.073470, -22.727509, -83.343399, -608.137512
1733468032.793361, 12.903550, -1.862839, 7.715764, 1.567710, 0.145998, -1.937466, -21.912079, -82.814499, -607.898621
1733468032.803368, 13.584850, -1.800589, 8.180688, 1.337031, 0.300502, -1.767773, -21.395523, -82.508957, -606.504639
1733468032.813396, 14.394838, -1.686865, 8.779089, 1.005766, 0.521006, -1.559940, -20.858688, -81.861130, -606.476257
1733468032.823140, 15.233557, -1.434875, 9.749040, 0.617882, 0.656291, -1.329193, -20.620636, -81.560562, -606.147156
1733468032.833050, 16.145449, -1.231069, 10.576386, 0.249656, 0.639840, -1.067959, -19.973206, -81.103867, -605.941895
1733468032.843369, 16.813132, -1.084723, 10.811467, -0.049946, 0.561522, -0.801142, -20.446457, -81.195038, -605.989563
1733468032.853357, 17.102980, -1.070059, 10.398616, -0.248214, 0.485516, -0.553434, -20.175629, -81.195343, -605.521362
1733468032.863365, 17.185729, -1.153856, 9.939229, -0.337131, 0.362995, -0.342761, -20.023361, -81.119934, -605.915283
1733468032.873362, 17.142035, -1.302895, 9.662250, -0.352564, 0.161421, -0.158986, -19.966843, -80.868423, -605.748657
1733468032.883356, 17.092206, -1.317858, 9.468469, -0.325441, -0.070771, 0.024046, -19.909576, -80.901520, -606.200439
1733468032.893356, 16.946459, -1.366042, 9.217826, -0.301018, -0.259551, 0.197770, -19.861618, -81.208023, -606.332153
1733468032.903403, 16.610522, -1.355866, 8.937405, -0.303459, -0.372173, 0.369671, -19.769547, -81.265396, -605.956055
1733468032.913315, 16.138565, -1.310676, 8.677934, -0.352302, -0.389550, 0.548903, -19.866409, -81.257217, -606.421021
1733468032.923356, 15.598074, -1.314716, 8.607754, -0.439289, -0.377226, 0.720930, -20.062897, -81.329041, -606.619019
1733468032.933369, 15.136741, -1.339406, 8.692598, -0.554173, -0.406672, 0.886596, -20.238831, -81.678604, -606.718079
1733468032.943367, 14.643686, -1.372027, 8.588899, -0.659432, -0.463184, 1.044671, -20.651321, -81.879959, -607.232788
1733468032.953358, 14.057705, -1.355268, 8.225729, -0.751606, -0.519770, 1.183598, -21.072678, -82.168060, -607.516113
1733468032.963368, 13.446435, -1.465401, 7.707983, -0.803338, -0.593808, 1.306210, -21.411942, -82.548019, -607.764587
1733468032.973354, 12.911780, -1.722478, 7.176021, -0.810444, -0.690641, 1.408665, -21.834503, -82.753250, -608.747192
1733468032.983359, 12.282105, -1.930175, 6.724265, -0.779439, -0.808836, 1.470172, -22.283798, -83.223694, -609.242188
1733468032.993406, 11.699715, -2.127099, 6.337601, -0.720073, -0.955448, 1.510991, -22.863480, -83.715515, -609.804565
1733468033.003358, 11.200225, -2.209998, 6.025906, -0.657152, -1.125210, 1.550277, -23.284637, -83.968063, -610.177551
1733468033.013363, 10.696694, -2.286163, 5.663035, -0.603478, -1.278052, 1.583886, -23.637131, -84.384247, -610.602234
1733468033.023360, 10.251373, -2.483835, 5.229236, -0.554112, -1.384735, 1.610681, -24.119324, -84.566910, -611.010376
1733468033.033405, 9.968259, -2.594566, 4.849306, -0.520043, -1.455490, 1.667158, -24.570633, -84.968933, -611.258789
1733468033.043355, 9.694123, -2.546832, 4.523395, -0.503799, -1.467246, 1.754658, -25.242905, -85.239548, -611.564575
1733468033.053355, 9.331551, -2.572121, 4.195539, -0.512943, -1.420859, 1.855079, -25.863693, -85.728806, -612.348389
1733468033.063365, 8.979753, -2.693776, 3.905093, -0.537695, -1.359273, 1.968180, -26.371674, -86.042358, -612.472900
1733468033.073408, 8.627206, -2.702754, 3.652654, -0.555977, -1.289267, 2.087927, -27.142502, -86.540115, -613.061646
1733468033.083350, 8.216451, -2.866159, 3.453337, -0.564660, -1.216041, 2.187184, -28.477661, -86.850220, -612.929504
1733468033.093187, 7.867047, -3.232172, 3.364452, -0.587434, -1.181318, 2.249469, -29.337479, -87.207413, -613.376587
1733468033.103350, 7.511209, -3.552247, 3.379266, -0.615555, -1.204907, 2.298645, -30.162857, -87.591751, -614.237732
1733468033.113360, 7.151181, -3.691709, 3.261052, -0.630958, -1.233181, 2.340622, -31.287613, -87.969666, -614.671875
1733468033.123354, 6.780080, -3.870377, 2.987515, -0.637563, -1.247295, 2.372663, -32.180344, -88.244003, -614.707031
1733468033.133366, 6.466290, -4.117578, 2.734926, -0.635016, -1.249772, 2.414849, -33.478302, -88.351486, -615.582092
1733468033.142636, 6.173898, -4.265121, 2.499696, -0.608659, -1.232873, 2.452151, -34.469193, -88.726578, -616.105957
1733468033.153356, 5.883002, -4.377199, 2.372205, -0.557710, -1.227994, 2.506986, -35.581421, -88.857452, -616.369873
1733468033.163369, 5.715857, -4.341286, 2.330157, -0.512345, -1.230741, 2.590046, -36.691040, -89.060547, -616.251099
1733468033.173350, 5.439776, -4.396203, 2.316689, -0.501951, -1.232414, 2.664941, -37.752457, -89.165283, -617.235474
1733468033.183359, 5.117456, -4.621707, 2.337938, -0.528778, -1.252718, 2.742259, -39.205276, -89.384827, -617.519775
1733468033.193358, 4.824915, -4.783615, 2.320430, -0.579820, -1.243365, 2.811462, -40.330093, -89.475845, -617.100586
1733468033.203348, 4.415357, -4.899584, 2.291700, -0.652524, -1.253256, 2.876198, -41.839401, -89.359390, -618.230957
1733468033.213358, 3.973327, -5.027225, 2.331204, -0.747490, -1.268397, 2.929023, -43.217484, -89.470688, -618.714417
1733468033.223413, 3.435081, -5.172224, 2.148946, -0.856474, -1.230514, 2.966296, -44.784470, -89.324600, -618.661743
1733468033.233352, 2.818424, -5.310639, 1.899200, -0.978511, -1.119346, 2.978801, -45.969330, -89.290283, -619.363708
1733468033.243348, 2.313248, -5.468207, 1.738490, -1.110672, -1.005240, 2.971313, -47.490189, -89.111191, -619.943787
1733468033.253346, 1.997363, -5.593903, 1.607108, -1.229404, -0.956614, 2.959595, -48.969452, -89.068283, -620.134705
1733468033.263352, 1.814954, -5.775413, 1.463605, -1.300585, -1.053708, 2.920703, -50.624969, -88.597046, -620.743896
1733468033.273415, 1.332523, -5.967997, 1.315464, -1.296132, -1.315482, 2.818816, -51.892685, -88.496292, -621.279480
1733468033.283366, 0.699705, -6.238242, 0.821062, -1.213158, -1.590240, 2.674450, -53.502380, -87.992218, -621.880249
1733468033.293372, 0.198419, -6.447286, 0.003591, -1.080958, -1.745354, 2.520228, -54.517151, -87.930298, -621.661316
1733468033.303355, -0.162656, -6.498163, -0.705841, -0.940587, -1.756404, 2.387667, -55.630814, -87.338409, -621.893982
1733468033.313416, -0.300323, -6.603059, -1.167622, -0.833636, -1.628206, 2.296123, -56.731293, -86.888657, -622.443970
1733468033.323344, -0.218770, -6.684611, -1.238550, -0.802106, -1.445371, 2.251923, -57.922760, -86.520844, -622.657104
1733468033.333365, 0.044442, -6.495918, -0.915483, -0.859802, -1.296792, 2.262678, -58.981674, -86.008820, -622.565735
1733468033.343410, 0.360926, -6.243629, -0.584634, -0.957981, -1.194420, 2.336853, -60.151459, -85.378342, -622.622192
1733468033.353353, 0.448165, -5.906346, -0.633416, -1.057920, -1.080948, 2.442908, -61.384369, -84.795120, -623.172119
1733468033.362462, 0.288052, -5.711817, -0.816273, -1.127468, -0.970731, 2.552381, -62.561569, -84.328857, -623.591919
1733468033.373401, 0.085443, -5.661239, -0.883011, -1.184744, -0.898709, 2.666044, -63.779373, -83.592041, -624.148193
1733468033.383348, -0.245705, -5.595848, -0.881066, -1.250322, -0.859244, 2.777453, -65.177322, -82.857407, -624.713379
1733468033.393353, -0.773177, -5.706580, -0.868197, -1.344887, -0.805935, 2.861280, -65.945007, -82.152725, -624.404297
1733468033.403351, -1.371728, -5.774964, -1.077540, -1.470075, -0.705507, 2.926153, -67.209869, -81.093735, -625.388794
1733468033.413352, -2.082357, -5.825841, -1.489942, -1.590456, -0.531526, 2.948206, -68.674759, -80.020126, -625.949890
1733468033.423344, -2.648586, -5.950639, -1.887080, -1.713758, -0.340536, 2.915795, -69.990555, -78.906326, -626.588379
1733468033.433355, -2.939481, -6.047155, -1.967734, -1.843459, -0.276009, 2.853211, -70.992783, -77.926483, -627.127319
1733468033.443365, -3.094805, -5.959318, -2.037615, -1.945190, -0.305054, 2.791276, -71.958939, -76.698914, -627.784241
1733468033.453398, -3.134160, -5.686827, -2.398092, -1.995086, -0.371157, 2.741632, -72.983414, -75.626373, -628.543945
1733468033.463351, -3.221997, -5.458481, -2.697667, -2.012804, -0.508452, 2.709664, -74.162445, -74.272995, -628.792542
1733468033.473365, -3.435829, -5.235072, -2.995446, -2.005335, -0.682985, 2.683507, -75.070770, -73.152679, -629.422729
1733468033.483347, -3.786131, -5.014356, -3.462913, -1.975310, -0.838389, 2.677575, -75.883896, -71.995911, -629.965881
1733468033.492419, -4.141071, -4.788104, -4.042310, -1.922554, -0.942217, 2.698749, -76.856247, -70.838959, -629.336914
1733468033.503343, -4.638616, -4.716577, -4.817134, -1.861652, -0.934006, 2.716795, -77.597794, -69.162750, -630.146179
1733468033.513373, -5.184344, -4.750395, -5.514894, -1.819277, -0.851064, 2.713108, -78.409790, -67.731293, -630.285278
1733468033.523346, -5.607819, -4.741567, -5.980416, -1.798767, -0.710378, 2.710797, -79.265244, -66.292130, -630.612183
1733468033.533344, -5.885397, -4.572776, -6.361843, -1.795849, -0.546501, 2.719372, -79.993835, -64.942047, -630.725952
1733468033.543348, -6.134543, -4.403535, -6.631340, -1.786834, -0.478335, 2.705678, -80.837219, -63.594223, -631.160400
1733468033.553349, -6.748806, -4.470872, -6.707206, -1.707194, -0.660073, 2.625316, -81.542114, -62.233978, -630.589233
1733468033.563361, -7.698705, -4.777929, -6.996306, -1.511481, -0.956014, 2.458576, -82.080704, -60.994980, -631.154541
1733468033.573350, -8.726566, -5.066580, -7.652617, -1.213888, -1.250675, 2.236312, -82.570007, -59.805008, -630.447327
1733468033.583349, -9.692477, -5.432593, -8.345140, -0.871296, -1.454892, 2.006222, -82.780685, -58.716461, -630.066833
1733468033.593342, -10.442011, -5.619042, -8.959701, -0.568711, -1.485314, 1.808370, -82.952209, -57.976105, -628.394592
1733468033.603357, -11.023353, -5.653907, -9.230396, -0.364759, -1.351405, 1.652828, -83.220993, -56.887085, -628.461548
1733468033.613347, -11.298537, -5.608268, -9.257480, -0.272658, -1.132230, 1.571354, -83.718811, -56.147354, -628.101746
1733468033.623342, -11.541548, -5.560234, -9.279028, -0.243965, -0.874041, 1.554089, -83.856857, -55.372238, -627.501160
1733468033.633345, -11.940033, -5.612907, -9.408315, -0.235329, -0.569543, 1.558704, -84.047195, -54.740677, -627.937195
1733468033.643341, -12.615198, -5.802198, -9.517251, -0.225729, -0.292268, 1.519549, -84.237762, -54.013000, -627.298706
1733468033.653346, -13.500754, -6.296152, -9.317934, -0.226942, -0.119245, 1.396092, -84.632751, -53.402496, -627.153259
1733468033.663343, -14.487015, -6.819435, -9.061155, -0.240799, -0.044218, 1.168759, -84.768356, -52.756836, -627.606445
1733468033.673341, -15.328427, -7.219865, -8.861539, -0.239782, -0.033598, 0.865786, -84.969162, -52.677063, -627.317627
1733468033.683351, -15.771205, -7.444770, -8.853458, -0.219935, -0.051043, 0.531983, -84.943420, -52.373978, -627.862000
1733468033.693345, -15.777041, -7.410653, -8.939799, -0.174005, -0.097873, 0.218737, -84.843262, -52.356262, -626.675659
1733468033.703340, -15.465795, -7.157466, -9.102605, -0.103066, -0.129185, -0.037888, -84.814087, -52.316132, -627.011230
1733468033.713348, -15.047258, -7.038803, -9.525930, -0.020000, -0.086914, -0.242985, -84.816223, -52.478897, -627.432312
1733468033.723338, -14.570213, -7.046135, -9.948058, 0.070077, 0.037134, -0.407150, -84.988464, -52.738129, -627.235352
1733468033.733340, -14.127137, -6.913557, -10.166080, 0.176684, 0.204956, -0.531620, -84.484344, -53.053345, -627.412537
1733468033.743342, -13.717878, -6.683414, -10.139444, 0.288103, 0.385076, -0.628447, -84.448364, -53.442825, -627.832153
1733468033.753347, -13.300239, -6.394913, -9.824008, 0.384415, 0.550810, -0.694329, -84.462952, -53.702042, -627.705811
1733468033.763336, -12.939762, -6.134244, -9.380632, 0.443251, 0.709036, -0.754592, -84.297394, -54.260925, -628.450134
1733468033.773337, -12.670564, -6.093094, -8.862287, 0.469104, 0.811049, -0.831932, -83.956177, -54.845474, -628.629028
1733468033.783338, -12.539182, -6.097882, -8.479664, 0.496942, 0.875013, -0.933631, -83.760635, -55.503159, -628.882263
1733468033.793339, -12.445060, -6.038476, -8.338406, 0.561924, 0.929600, -1.066473, -83.590698, -56.164810, -628.908936
1733468033.803337, -12.224345, -6.085312, -8.248773, 0.659060, 0.978991, -1.215646, -83.541245, -56.774567, -629.594727
1733468033.813346, -11.930457, -6.011092, -7.982867, 0.755530, 1.027459, -1.360672, -83.184387, -57.526230, -629.858398
1733468033.823339, -11.524939, -5.871929, -7.610269, 0.846624, 1.070350, -1.495548, -82.520996, -58.582367, -630.347534
1733468033.833351, -11.082161, -5.730222, -7.158064, 0.916020, 1.104543, -1.614889, -82.229218, -59.346909, -630.780701
1733468033.843345, -10.667365, -5.446659, -6.709900, 0.966707, 1.132560, -1.721891, -81.638214, -60.330399, -630.833679
1733468033.853344, -10.279954, -5.154866, -6.338499, 1.002686, 1.158964, -1.829080, -81.366684, -61.406845, -631.518799
1733468033.863337, -9.837924, -4.981286, -6.070349, 1.024282, 1.169300, -1.925330, -80.898682, -62.362045, -631.494202
1733468033.873333, -9.390059, -4.878336, -5.878513, 1.045340, 1.192088, -2.011085, -80.898682, -62.362045, -631.494202
1733468033.883336, -8.927828, -4.889858, -5.894824, 1.074180, 1.270604, -2.086336, -80.249832, -63.359283, -631.740051
1733468033.893343, -8.443302, -4.923077, -5.855170, 1.120844, 1.356036, -2.142962, -79.198822, -64.659851, -632.414612
1733468033.903365, -7.927501, -4.982483, -5.762694, 1.188761, 1.452045, -2.188036, -78.498871, -65.872253, -631.741333
1733468033.913296, -7.459135, -4.922928, -5.603030, 1.283698, 1.544566, -2.223227, -77.787445, -66.934616, -632.720825
1733468033.923335, -7.000646, -4.833444, -5.176863, 1.395530, 1.601010, -2.264262, -77.050156, -68.128830, -633.041748
1733468033.933346, -6.602011, -4.747103, -4.563199, 1.475054, 1.583971, -2.330598, -76.200562, -69.273819, -633.271118
1733468033.943344, -6.254104, -4.756231, -3.927837, 1.493034, 1.501916, -2.423136, -75.272781, -70.636658, -633.199890
1733468033.953343, -5.913080, -4.765808, -3.489549, 1.469260, 1.404904, -2.523655, -74.404419, -71.763016, -633.106201
1733468033.963340, -5.580435, -4.695329, -3.327491, 1.447197, 1.343721, -2.628992, -73.236008, -72.941406, -633.371155
1733468033.973333, -5.086182, -4.784962, -3.430741, 1.476140, 1.336623, -2.732744, -72.137894, -74.330048, -633.371704
1733468033.983374, -4.442142, -4.860379, -3.496133, 1.552312, 1.337587, -2.810020, -70.971878, -75.603333, -633.631958
1733468033.993332, -3.787627, -4.662708, -3.338415, 1.649543, 1.330298, -2.864708, -69.599182, -76.675537, -633.077759
1733468034.003332, -3.146280, -4.402488, -3.100641, 1.756904, 1.316925, -2.880702, -68.414215, -77.929489, -632.656067
1733468034.013330, -2.508076, -4.130297, -2.646940, 1.849749, 1.306339, -2.882007, -67.399780, -79.043594, -632.615479
1733468034.023371, -1.901595, -4.009091, -1.982100, 1.884590, 1.236949, -2.881989, -65.846832, -79.993103, -631.907043
1733468034.033326, -1.325490, -4.016423, -1.308581, 1.850024, 1.087237, -2.887367, -64.708374, -80.888992, -631.142761
1733468034.043333, -0.818368, -4.106804, -0.997933, 1.783375, 0.987073, -2.886765, -63.128998, -81.942337, -630.458496
1733468034.053341, -0.366762, -4.225616, -1.011849, 1.712403, 1.012479, -2.881350, -61.746216, -82.876511, -630.026978
1733468034.063344, 0.033519, -4.347870, -0.997784, 1.642688, 1.123094, -2.858736, -60.606430, -83.665588, -629.916931
1733468034.073331, 0.467169, -4.434361, -0.702249, 1.571353, 1.247653, -2.836810, -59.469452, -84.446075, -629.455627
1733468034.083332, 1.081730, -4.661810, -0.262315, 1.501954, 1.327774, -2.814138, -57.485611, -85.202652, -628.780640
1733468034.093328, 1.791162, -4.703260, 0.288651, 1.415271, 1.311378, -2.766303, -56.275436, -85.572266, -628.249939
1733468034.103378, 2.335244, -4.537162, 0.879420, 1.294818, 1.223343, -2.697441, -54.884995, -86.296280, -627.504883
1733468034.113326, 2.732981, -4.404733, 1.132008, 1.156078, 1.183580, -2.639070, -53.791992, -86.534576, -627.364868
1733468034.123325, 3.013701, -4.491223, 1.060931, 1.011104, 1.181235, -2.595971, -52.476044, -87.112839, -627.277100
1733468034.133325, 3.361160, -4.780323, 0.946159, 0.895808, 1.175267, -2.571209, -51.216232, -87.476181, -627.218262
1733468034.143360, 3.790321, -5.161151, 0.506374, 0.868181, 1.183771, -2.541607, -49.877869, -87.710754, -626.520264
1733468034.153334, 4.220229, -5.179706, 0.060903, 0.948434, 1.207428, -2.492477, -48.620148, -88.035355, -626.224121
1733468034.163276, 4.485836, -4.965724, 0.041001, 1.044842, 1.243226, -2.432642, -47.229660, -88.266129, -625.800110
1733468034.173331, 4.723610, -4.776432, 0.415244, 1.076881, 1.269217, -2.377988, -46.140671, -88.371979, -625.246704
1733468034.183345, 4.958691, -4.582203, 0.908600, 1.026621, 1.270200, -2.326822, -45.056061, -88.506134, -624.762268
1733468034.193331, 5.134066, -4.435857, 1.383549, 0.920735, 1.217150, -2.300881, -44.183792, -88.495682, -624.507874
1733468034.203344, 5.271134, -4.702511, 1.484405, 0.844749, 1.112517, -2.302283, -42.733841, -88.784164, -623.340759
1733468034.213341, 5.479430, -4.868011, 1.072453, 0.892772, 1.035972, -2.295680, -41.770462, -88.732697, -623.362061
1733468034.223365, 5.678897, -4.863671, 0.636558, 1.028710, 1.015435, -2.277145, -40.500824, -88.734177, -623.142273
1733468034.233327, 5.888539, -4.751742, 0.703895, 1.120278, 0.984446, -2.235203, -39.325302, -88.577408, -622.685730
1733468034.243324, 6.110302, -4.372411, 1.140089, 1.130800, 0.939105, -2.161313, -38.028671, -88.788330, -621.966736
1733468034.253393, 6.093543, -4.128352, 1.299752, 1.079673, 0.961800, -2.109356, -37.486069, -88.817917, -621.600891
1733468034.263326, 6.041618, -4.367772, 1.096395, 1.027119, 1.038342, -2.098217, -36.444366, -88.416580, -620.915283
1733468034.273329, 6.239140, -4.524293, 1.063325, 0.991854, 1.098992, -2.103739, -35.323853, -88.272705, -620.369324
1733468034.283382, 6.349872, -4.637569, 1.232565, 0.988308, 1.080622, -2.127629, -34.266449, -88.393570, -619.933228
1733468034.293320, 6.421698, -4.603601, 1.309329, 1.021923, 1.030147, -2.143913, -33.327148, -87.869705, -619.241943
1733468034.303326, 6.499060, -4.426879, 1.233313, 1.086823, 1.004210, -2.142129, -32.497131, -87.915268, -617.960815
1733468034.313331, 6.531232, -4.173243, 1.209970, 1.156242, 0.977891, -2.123096, -31.177383, -87.552780, -617.847046
1733468034.323323, 6.656778, -3.598036, 1.287632, 1.169791, 0.966391, -2.025980, -30.309219, -87.420441, -617.395874
1733468034.333320, 6.405836, -3.087323, 1.149067, 1.163761, 1.042622, -1.987772, -29.291763, -87.157532, -616.839600
1733468034.343371, 6.195446, -3.599383, 0.520140, 1.260495, 1.253577, -1.979594, -28.749985, -86.574341, -615.981079
1733468034.353324, 6.316353, -3.842843, 0.219069, 1.478717, 1.485685, -2.023737, -28.102280, -86.477554, -615.314697
1733468034.363332, 6.771850, -3.885340, 0.981623, 1.769070, 1.578019, -2.080936, -27.240402, -86.188461, -614.086365
1733468034.373324, 7.713968, -3.517082, 2.756774, 2.007058, 1.484837, -2.102633, -26.594131, -85.679214, -612.868652
1733468034.383376, 8.696638, -3.000533, 4.939986, 2.089058, 1.246456, -2.093426, -25.656601, -85.274475, -611.806580
1733468034.393320, 9.637410, -2.727894, 6.905027, 1.996554, 0.971411, -2.071609, -25.463913, -84.797043, -610.761353
1733468034.403327, 10.639084, -2.752584, 8.350526, 1.775143, 0.694989, -2.049092, -24.518066, -84.544632, -609.600830
1733468034.413325, 11.953501, -2.618508, 9.604939, 1.489293, 0.414189, -1.958578, -24.001846, -83.916534, -609.686279
1733468034.423323, 13.194146, -2.352453, 10.042479, 1.162393, 0.299464, -1.804832, -23.264572, -83.476105, -608.705933
1733468034.433332, 14.034660, -2.409465, 9.967062, 0.802709, 0.351482, -1.621353, -22.546692, -83.120163, -608.771118
1733468034.443333, 14.662241, -2.562993, 9.797971, 0.463566, 0.478478, -1.428948, -22.421646, -82.741867, -608.680420
1733468034.453332, 15.146767, -2.738817, 9.470115, 0.203811, 0.610420, -1.252161, -22.162735, -82.592560, -608.568970
1733468034.463323, 15.600618, -2.917933, 9.343073, 0.005673, 0.695124, -1.090419, -21.925385, -82.522659, -608.489990
1733468034.473321, 16.041301, -2.914043, 9.635315, -0.182326, 0.626245, -0.937163, -21.691879, -82.171387, -608.216370
1733468034.483331, 16.385318, -2.716671, 9.986215, -0.339218, 0.393908, -0.785678, -21.506790, -82.244110, -608.614502
1733468034.493321, 16.572514, -2.556259, 9.892243, -0.427711, 0.079989, -0.628634, -21.082565, -82.127853, -608.689880
1733468034.503323, 16.398785, -2.544887, 9.279626, -0.449401, -0.189702, -0.491168, -20.856812, -82.002869, -609.042847
1733468034.513352, 15.866524, -2.630479, 8.509142, -0.442775, -0.379888, -0.387822, -20.740662, -81.927460, -609.257080
1733468034.523347, 15.371373, -2.725200, 7.810484, -0.420895, -0.503732, -0.301381, -19.940475, -81.785049, -609.421448
1733468034.533341, 15.188516, -2.719663, 7.194576, -0.384154, -0.518797, -0.182335, -20.083862, -81.859116, -609.625793
1733468034.543347, 15.192107, -2.613570, 6.732944, -0.377908, -0.432963, -0.014376, -19.945084, -81.758316, -609.785706
1733468034.553345, 15.214703, -2.402881, 6.693889, -0.436788, -0.336391, 0.197518, -19.848816, -81.960052, -609.991028
1733468034.563340, 15.125668, -2.326565, 6.669647, -0.506082, -0.264724, 0.420136, -20.299469, -81.971619, -610.410889
1733468034.573325, 14.809933, -2.385373, 6.511181, -0.545943, -0.228083, 0.617970, -20.496719, -82.217651, -610.160278
1733468034.583355, 14.401273, -2.498499, 6.260837, -0.538517, -0.241393, 0.795480, -20.782639, -82.387497, -610.730164
1733468034.593348, 14.052467, -2.475305, 6.148908, -0.490224, -0.359244, 0.958656, -21.197891, -82.605545, -610.863586
1733468034.603328, 13.702166, -2.364424, 6.257994, -0.408573, -0.562591, 1.108949, -21.514359, -83.118256, -610.972351
1733468034.613330, 13.155988, -2.410662, 6.210559, -0.285689, -0.862968, 1.307666, -21.760651, -83.148758, -611.620056
1733468034.623322, 12.409895, -2.594267, 6.167613, -0.323532, -0.911702, 1.349128, -22.217728, -83.497208, -611.979675
1733468034.633317, 11.117625, -2.982876, 6.263381, -0.397713, -0.929033, 1.372281, -22.806885, -83.964996, -612.492371
1733468034.643313, 10.772112, -3.091214, 6.155492, -0.466705, -0.954230, 1.400211, -23.219040, -84.231293, -612.397705
1733468034.653319, 10.618584, -3.085228, 6.024410, -0.526376, -1.004411, 1.448040, -23.620026, -84.571472, -612.727478
1733468034.663267, 10.393678, -3.133262, 5.852327, -0.576278, -1.073400, 1.500274, -24.010193, -84.887115, -613.470276
1733468034.673325, 10.063578, -3.158401, 5.507113, -0.608878, -1.139997, 1.555048, -24.528885, -85.054535, -613.585693
1733468034.683340, 9.823110, -3.185336, 5.073313, -0.613709, -1.191383, 1.631249, -24.982651, -85.546448, -614.127625
1733468034.693324, 9.538350, -3.248034, 4.738125, -0.620005, -1.222656, 1.699536, -25.740936, -85.836121, -613.805359
1733468034.703317, 9.242816, -3.364153, 4.580108, -0.651120, -1.287062, 1.766939, -26.495560, -86.163635, -614.508057
1733468034.713316, 8.973019, -3.526659, 4.471770, -0.694261, -1.402684, 1.808630, -27.292358, -86.378784, -615.188232
1733468034.723319, 8.644415, -3.658939, 4.202722, -0.731007, -1.514740, 1.840232, -27.943436, -86.565430, -615.641907
1733468034.733324, 8.300847, -3.654599, 3.818901, -0.748682, -1.637020, 1.869490, -28.649994, -87.082092, -616.126465
1733468034.743317, 7.873332, -3.768773, 3.372383, -0.730366, -1.739437, 1.888274, -29.534302, -87.371201, -616.415283
1733468034.753315, 7.499238, -3.856011, 2.855983, -0.683265, -1.816269, 1.910782, -30.360840, -87.646484, -617.391785
1733468034.763317, 7.214777, -3.845537, 2.481291, -0.637904, -1.857221, 1.946713, -31.053238, -87.742676, -617.968689
1733468034.773316, 6.928670, -3.793313, 2.139219, -0.602682, -1.855827, 2.006122, -31.992172, -87.993225, -618.424683
1733468034.783315, 6.674286, -3.809624, 1.813308, -0.594757, -1.757076, 2.066175, -32.773941, -88.405991, -618.870972
1733468034.793316, 6.509984, -3.879205, 1.652598, -0.635278, -1.638723, 2.132725, -33.941086, -88.673859, -618.704041
1733468034.803317, 6.383241, -3.760692, 1.773804, -0.704538, -1.564749, 2.218739, -34.836700, -88.647430, -619.268433
1733468034.813334, 6.295853, -3.719392, 1.811962, -0.767327, -1.519030, 2.320837, -36.055573, -88.825790, -619.970703
1733468034.823323, 6.065111, -3.683928, 1.708413, -0.795976, -1.507410, 2.406849, -37.029205, -88.913437, -620.575256
1733468034.833326, 5.832874, -3.747075, 1.697788, -0.810291, -1.530581, 2.492564, -38.277725, -89.236801, -620.961914
1733468034.843329, 5.595549, -3.837456, 1.662474, -0.843856, -1.583307, 2.574571, -39.532242, -89.411484, -621.321594
1733468034.853316, 5.287594, -3.950582, 1.531990, -0.896863, -1.612550, 2.648582, -40.754837, -89.377899, -622.027832
1733468034.863320, 5.101744, -4.108899, 1.203984, -0.943056, -1.606001, 2.750183, -42.000778, -89.150940, -622.499451
1733468034.873315, 4.875343, -4.028544, 0.822857, -0.965645, -1.538563, 2.880860, -43.365509, -89.296051, -623.318726
1733468034.883315, 4.513818, -3.961057, 0.557400, -0.991929, -1.418686, 3.017653, -45.015015, -89.048965, -623.581787
1733468034.893312, 4.131494, -3.930830, 0.451157, -1.058230, -1.279073, 3.151665, -46.379196, -88.801697, -623.196411
1733468034.903318, 3.771765, -3.944896, 0.457891, -1.164163, -1.160345, 3.281486, -48.226166, -88.606628, -624.055359
1733468034.913259, 3.412186, -4.089147, 0.440832, -1.283863, -1.092623, 3.400355, -49.749115, -88.372040, -625.242737
1733468034.923309, 2.917035, -4.123863, 0.358831, -1.378106, -1.084340, 3.493527, -51.760483, -87.689636, -625.774963
1733468034.933322, 2.297835, -4.185663, 0.123900, -1.426726, -1.119964, 3.546119, -53.754181, -87.294617, -626.184021
1733468034.943320, 1.631648, -4.388871, -0.177321, -1.421333, -1.185992, 3.564470, -55.149918, -86.554596, -626.736023
1733468034.953311, 0.912640, -4.584747, -0.517148, -1.382585, -1.241886, 3.549917, -57.198425, -85.822403, -627.128540
1733468034.963372, 0.253037, -4.881628, -0.875979, -1.350229, -1.248008, 3.503339, -58.779694, -85.097504, -627.893127
1733468034.973310, -0.335936, -5.196764, -1.077241, -1.362082, -1.217729, 3.431998, -60.538651, -84.268127, -628.189087
1733468034.983314, -0.848445, -5.303306, -1.167473, -1.409096, -1.135587, 3.341973, -61.975876, -83.391678, -628.622986
1733468034.993318, -1.161786, -5.301211, -1.208623, -1.481325, -1.043090, 3.257966, -63.639236, -82.664841, -628.065552
1733468035.003317, -1.232415, -5.123292, -1.169568, -1.566313, -1.002341, 3.201691, -64.828186, -81.562057, -629.280334
1733468035.013316, -1.287183, -4.961384, -1.200542, -1.625855, -1.045861, 3.169693, -66.429596, -80.562408, -630.119507
1733468035.023308, -1.611597, -4.773888, -1.192462, -1.627673, -1.207065, 3.113812, -67.972183, -79.601395, -630.387634
1733468035.033319, -2.243816, -4.704157, -1.230021, -1.598278, -1.426109, 3.014437, -69.337585, -78.266388, -630.490051
1733468035.043327, -2.780117, -4.671087, -1.554435, -1.568006, -1.610438, 2.906683, -70.495010, -77.181427, -630.545898
1733468035.053316, -3.132364, -4.659266, -2.150592, -1.538319, -1.691988, 2.821311, -71.363297, -76.166885, -630.541443
1733468035.063308, -3.350536, -4.420145, -2.745401, -1.520039, -1.671760, 2.790899, -72.792618, -74.736557, -630.290527
1733468035.073307, -3.597737, -4.113388, -3.317765, -1.529990, -1.531554, 2.795423, -73.942078, -73.514053, -630.456665
1733468035.083306, -3.824438, -3.923648, -3.877410, -1.572122, -1.280640, 2.836114, -75.093109, -72.341461, -630.564087
1733468035.093305, -3.916166, -3.602376, -4.261529, -1.625827, -1.023179, 2.905815, -76.046066, -70.909714, -630.053223
1733468035.103305, -4.108899, -3.203741, -4.478354, -1.645026, -0.881314, 2.986193, -77.034653, -69.492889, -630.871582
1733468035.113304, -4.629039, -3.114407, -4.438102, -1.601062, -0.958191, 2.993253, -78.276001, -67.946716, -630.999756
1733468035.123306, -5.419724, -3.260603, -4.414010, -1.495503, -1.205319, 2.927520, -78.972610, -66.534866, -631.047424
1733468035.133304, -6.230461, -3.353977, -4.723910, -1.340020, -1.483801, 2.819635, -79.909149, -65.215149, -630.825500
1733468035.143307, -6.903680, -3.350685, -5.276222, -1.158431, -1.682037, 2.717597, -80.380341, -63.865509, -630.388916
1733468035.153314, -7.560889, -3.339462, -5.962161, -1.025249, -1.665767, 2.653733, -81.094894, -62.530716, -629.526978
1733468035.163317, -8.195502, -3.339762, -6.568043, -0.985629, -1.426748, 2.634331, -81.860474, -61.123489, -629.142090
1733468035.173307, -8.719383, -3.182792, -6.717382, -1.038216, -1.127087, 2.632793, -82.564041, -59.561386, -628.508850
1733468035.183330, -9.413103, -3.094805, -6.812850, -1.109528, -0.915481, 2.601658, -83.003815, -58.389374, -628.514404
1733468035.193311, -10.272173, -3.306991, -7.198467, -1.095290, -0.853987, 2.494263, -83.626343, -57.061813, -627.803589
1733468035.203307, -11.006145, -3.700538, -7.970746, -0.952197, -0.906141, 2.323357, -83.958496, -55.929688, -628.286499
1733468035.213312, -11.548581, -4.001758, -8.743924, -0.690021, -1.022923, 2.154797, -84.369812, -54.875305, -628.001831
1733468035.223309, -11.813290, -3.999364, -9.401431, -0.369058, -1.081636, 2.033035, -84.836517, -53.869095, -626.916870
1733468035.233303, -12.125734, -3.879205, -9.575460, -0.102275, -1.056434, 1.938651, -85.248428, -53.033752, -626.696228
1733468035.243305, -12.686426, -3.988291, -9.244462, 0.044710, -0.942746, 1.835805, -85.165970, -52.090454, -626.171509
1733468035.253306, -13.500903, -4.442441, -8.662671, 0.063587, -0.750640, 1.682529, -85.360321, -51.174698, -625.837280
1733468035.263302, -14.149582, -5.105036, -8.199093, 0.009672, -0.598100, 1.472902, -85.780914, -50.494690, -625.790955
1733468035.273302, -14.553753, -5.644031, -7.983166, -0.024466, -0.516474, 1.211957, -85.906158, -49.953079, -625.467896
1733468035.283320, -14.678701, -5.816563, -7.911789, -0.010563, -0.513289, 0.962801, -85.904587, -49.689224, -625.222778
1733468035.293318, -14.531906, -5.723638, -7.901314, 0.048119, -0.574010, 0.763166, -86.039871, -49.304428, -624.107178
1733468035.303307, -14.329746, -5.783942, -8.035090, 0.108832, -0.614438, 0.614985, -85.863541, -48.905518, -624.411377
1733468035.313326, -14.355184, -5.868039, -8.235455, 0.129972, -0.582227, 0.482899, -86.090668, -48.606750, -623.968933
1733468035.323325, -14.488511, -5.879710, -8.412626, 0.130151, -0.479154, 0.375097, -85.937332, -48.486404, -623.823242
1733468035.333305, -14.469058, -5.909788, -8.729110, 0.137650, -0.318120, 0.302475, -85.764633, -48.389420, -623.460999
1733468035.343300, -14.508712, -5.951088, -9.034670, 0.160771, -0.109504, 0.233709, -85.914246, -48.304977, -623.993774
1733468035.353303, -14.591761, -6.080524, -9.160365, 0.193661, 0.107993, 0.162352, -85.953491, -48.310867, -623.904053
1733468035.363303, -14.651467, -6.094141, -9.037662, 0.220716, 0.294904, 0.079579, -85.770676, -48.339127, -624.111694
1733468035.373299, -14.746636, -6.068403, -8.832808, 0.249954, 0.437054, -0.014880, -85.951523, -48.293869, -624.111755
1733468035.383299, -14.851981, -5.949741, -8.560468, 0.280166, 0.521500, -0.110347, -85.775742, -48.453293, -624.555115
1733468035.393298, -15.100828, -5.805939, -8.382848, 0.301516, 0.605065, -0.242320, -85.717712, -48.700668, -624.108704
1733468035.403293, -15.355512, -5.793220, -8.422652, 0.328473, 0.702643, -0.423972, -85.769806, -49.020554, -625.103149
1733468035.413305, -15.416713, -5.867440, -8.510788, 0.390675, 0.780675, -0.638273, -85.602188, -49.334625, -625.453125
1733468035.423303, -15.217396, -5.993734, -8.635436, 0.496388, 0.818458, -0.855259, -85.602188, -49.334625, -625.453125
1733468035.433311, -14.856171, -5.974132, -8.710704, 0.644776, 0.838690, -1.064511, -85.713074, -49.940826, -625.941406
1733468035.443309, -14.473847, -5.740398, -8.526351, 0.805933, 0.841363, -1.260943, -85.358017, -50.689133, -626.071655
1733468035.453307, -14.033912, -5.416881, -8.198345, 0.952697, 0.857228, -1.431427, -85.034210, -51.485748, -626.373840
1733468035.463306, -13.496863, -5.256470, -7.830536, 1.075650, 0.926718, -1.568013, -84.995163, -52.271866, -626.657166
1733468035.473306, -12.985851, -5.100996, -7.321918, 1.153240, 1.006329, -1.686430, -84.755417, -53.210693, -626.992737
1733468035.483307, -12.540379, -4.820276, -6.668899, 1.191593, 1.080018, -1.795601, -84.471878, -54.100204, -627.454956
1733468035.493297, -12.003629, -4.743512, -6.130952, 1.212311, 1.132658, -1.903031, -83.932327, -55.435471, -627.461792
1733468035.503307, -11.429021, -4.676474, -5.698350, 1.225152, 1.128671, -1.999232, -83.758759, -56.364105, -627.950928
1733468035.513319, -10.954520, -4.515315, -5.436783, 1.250189, 1.145483, -2.087286, -83.220764, -57.541260, -628.241821
1733468035.523303, -10.434080, -4.575918, -5.364658, 1.292159, 1.224459, -2.160401, -82.946762, -58.815033, -628.648438
1733468035.533302, -9.765500, -4.664204, -5.145738, 1.318223, 1.303162, -2.212723, -82.493759, -59.730576, -629.024414
1733468035.543353, -9.095722, -4.502745, -4.644901, 1.328856, 1.350996, -2.236812, -81.680176, -61.185806, -629.438232
1733468035.553311, -8.389432, -4.463390, -4.353856, 1.339839, 1.432123, -2.238689, -81.189301, -62.265640, -629.632935
1733468035.562468, -7.719654, -4.471172, -4.066701, 1.352184, 1.513173, -2.219987, -80.937119, -63.599091, -630.053772
1733468035.573366, -7.184999, -4.435109, -3.613898, 1.343990, 1.562819, -2.210914, -79.987488, -64.481003, -630.323486
1733468035.583292, -6.735937, -4.519953, -3.214814, 1.313072, 1.583351, -2.215933, -78.948059, -65.740906, -630.601501
1733468035.593304, -6.387131, -4.559159, -2.847753, 1.261572, 1.577313, -2.244413, -78.620880, -66.950256, -630.734009
1733468035.603363, -6.038925, -4.643105, -2.609979, 1.208068, 1.557994, -2.292601, -77.789459, -68.093216, -630.484619
1733468035.613290, -5.609764, -4.865018, -2.616563, 1.181303, 1.571989, -2.329099, -76.994019, -69.159027, -631.161804
1733468035.623296, -5.063737, -4.986823, -2.747047, 1.183054, 1.665200, -2.346549, -76.289810, -70.562164, -631.983459
1733468035.633289, -4.316746, -5.116409, -2.772186, 1.227636, 1.766995, -2.324539, -74.949387, -71.542847, -632.022705
1733468035.643331, -3.591003, -5.082591, -2.427870, 1.282493, 1.807362, -2.283458, -73.890182, -72.655411, -631.702698
1733468035.652895, -3.003676, -4.907964, -1.870171, 1.316096, 1.765228, -2.229880, -73.085953, -73.489273, -632.232178
1733468035.663301, -2.503138, -4.779126, -1.460613, 1.314948, 1.686880, -2.185554, -72.101776, -74.594833, -632.221191
1733468035.673314, -2.197578, -4.845715, -1.183783, 1.254559, 1.631212, -2.159866, -70.806503, -75.313416, -632.306824
1733468035.683317, -2.030732, -4.786308, -1.067215, 1.137293, 1.598877, -2.140145, -69.949707, -76.426849, -632.709717
1733468035.693301, -1.796250, -4.865616, -1.318307, 1.029805, 1.633030, -2.125791, -68.691925, -77.218185, -632.695190
1733468035.703296, -1.430087, -5.133617, -1.975216, 1.018351, 1.757967, -2.102649, -67.917267, -78.179703, -631.740479
1733468035.713294, -1.112256, -5.304952, -2.371307, 1.104323, 1.898606, -2.090288, -67.156525, -78.960327, -633.232117
1733468035.723299, -0.723049, -5.479879, -2.172738, 1.228715, 1.928609, -2.102544, -65.931656, -79.596817, -632.827148
1733468035.733288, -0.318728, -5.599738, -1.558476, 1.346167, 1.788372, -2.130830, -65.135773, -80.428909, -633.080627
1733468035.743294, -0.117017, -5.445911, -0.877774, 1.433031, 1.535602, -2.190396, -63.779053, -81.007339, -632.187622
1733468035.752444, 0.016759, -5.224747, -0.502633, 1.494533, 1.277316, -2.259768, -62.479904, -81.791916, -632.019409
1733468035.763296, 0.196325, -5.125088, -0.481833, 1.555815, 1.147586, -2.327681, -61.334839, -82.460037, -631.401855
1733468035.773289, 0.561141, -5.372738, -0.704793, 1.642682, 1.143729, -2.361618, -60.073929, -83.285248, -630.858337
1733468035.783289, 0.930746, -5.232079, -0.441880, 1.685043, 1.187274, -2.360947, -58.890640, -84.036758, -630.732910
1733468035.793300, 1.240047, -5.006276, 0.176722, 1.621621, 1.241971, -2.337540, -57.078690, -84.602203, -630.097168
1733468035.803342, 1.555633, -4.995202, 0.778714, 1.486078, 1.272477, -2.288941, -56.224442, -85.175827, -629.098511
1733468035.813292, 1.745074, -4.932055, 1.061080, 1.338948, 1.320269, -2.241261, -55.270569, -85.484802, -628.862671
1733468035.823297, 1.764078, -4.982034, 0.998681, 1.229412, 1.429604, -2.210761, -54.002060, -85.866196, -628.604492
1733468035.833288, 1.883189, -5.182399, 0.892289, 1.163079, 1.536105, -2.200999, -52.951187, -86.402344, -628.120300
1733468035.843309, 1.986439, -5.090222, 1.013645, 1.114776, 1.575143, -2.206257, -51.920670, -86.672073, -627.854431
1733468035.853338, 2.175731, -4.881179, 1.129165, 1.090631, 1.541769, -2.234939, -50.825272, -86.983780, -627.262329
1733468035.863290, 2.321478, -5.110872, 1.053149, 1.144546, 1.457626, -2.313223, -49.591751, -87.400909, -627.290955
1733468035.873294, 2.511667, -5.306449, 1.076942, 1.258368, 1.262844, -2.419336, -48.415710, -87.631226, -626.501160
1733468035.883296, 2.577807, -5.009867, 1.467047, 1.375121, 0.943112, -2.547754, -47.060989, -87.907547, -625.797180
1733468035.893294, 2.741361, -4.928015, 1.607706, 1.470104, 0.605841, -2.691785, -45.417084, -88.091888, -625.538330
1733468035.903300, 2.944269, -4.706103, 1.487248, 1.526497, 0.331989, -2.807486, -44.345947, -88.323120, -624.131226
1733468035.913237, 3.006519, -4.232350, 1.175703, 1.514021, 0.221196, -2.912048, -42.874908, -88.392288, -624.223694
1733468035.923289, 3.009811, -4.135834, 0.535553, 1.500197, 0.272446, -3.001332, -41.448715, -88.372253, -623.261719
1733468035.933307, 3.207781, -4.172046, -0.124199, 1.561060, 0.474116, -3.071548, -39.838715, -88.551804, -622.148560
1733468035.943292, 3.432537, -4.046201, -0.297031, 1.671024, 0.737405, -3.145200, -38.494446, -88.485519, -621.564087
1733468035.953294, 3.760842, -3.684078, 0.303764, 1.759491, 0.888546, -3.220615, -36.958344, -88.572556, -620.357727
1733468035.963288, 4.233098, -3.265093, 1.370680, 1.800738, 0.854742, -3.297689, -35.602722, -88.263168, -619.737427
1733468035.973292, 4.859032, -2.845359, 2.295890, 1.799325, 0.691762, -3.369187, -34.169724, -87.865555, -618.469727
1733468035.983290, 5.692813, -2.458546, 2.979135, 1.771409, 0.403375, -3.404674, -32.282867, -87.744034, -618.021790
1733468035.993289, 6.593482, -2.223166, 3.447800, 1.736437, 0.091574, -3.409883, -30.962601, -87.275879, -617.207214
1733468036.003296, 7.311293, -2.352004, 3.307440, 1.733556, -0.118894, -3.400283, -29.592331, -87.194595, -616.437866
1733468036.013286, 7.842357, -2.451962, 2.972102, 1.772286, -0.176271, -3.385354, -27.997864, -86.605392, -615.705933
1733468036.023293, 8.318654, -2.391209, 2.828450, 1.805130, -0.092581, -3.346481, -26.488861, -85.967010, -614.830566
1733468036.033288, 8.942642, -2.248604, 2.995894, 1.782982, 0.116645, -3.255575, -24.977264, -85.325516, -613.905518
1733468036.043284, 9.844808, -1.873612, 3.500622, 1.663234, 0.451742, -3.099579, -23.853134, -84.862747, -613.121216
1733468036.053284, 11.081263, -1.505205, 4.465934, 1.446531, 0.743157, -2.860042, -23.103821, -84.170639, -612.343994
1733468036.063288, 12.423961, -1.137246, 5.872977, 1.131620, 0.873028, -2.545389, -21.965714, -83.731735, -611.999512
1733468036.073283, 13.470078, -1.012747, 6.799233, 0.787185, 0.877890, -2.235947, -21.294357, -83.074921, -611.261047
1733468036.083284, 14.056208, -1.204583, 7.016807, 0.515177, 0.810863, -1.932212, -20.730698, -82.615799, -611.041016
1733468036.093292, 14.308048, -1.376816, 6.510882, 0.346323, 0.804717, -1.669780, -20.325546, -82.438431, -610.755859
1733468036.103293, 14.252832, -1.690755, 5.637148, 0.314917, 0.836544, -1.470394, -19.904648, -82.026764, -610.881836
1733468036.113283, 14.176367, -2.108543, 5.047875, 0.374540, 0.877644, -1.338711, -19.568604, -81.552444, -610.225830
1733468036.123285, 14.244602, -2.417994, 4.885069, 0.451724, 0.903926, -1.262473, -19.500168, -81.242020, -609.819946
1733468036.133281, 14.603732, -2.428918, 5.140650, 0.553806, 0.834970, -1.203344, -19.003387, -81.041824, -609.741760
1733468036.143291, 15.153501, -2.297835, 5.671265, 0.659705, 0.716450, -1.147613, -18.792389, -80.769455, -609.174438
1733468036.153282, 15.820735, -2.204012, 6.330868, 0.712937, 0.589113, -1.074313, -18.376907, -80.754364, -608.567261
1733468036.163299, 16.651224, -1.916110, 7.360674, 0.688383, 0.404069, -0.936596, -17.954666, -80.205048, -608.139160
1733468036.173287, 17.425449, -1.491288, 8.434623, 0.593070, 0.172568, -0.739254, -17.969727, -79.771820, -607.736084
1733468036.183313, 17.799543, -1.289577, 9.068787, 0.450618, -0.064453, -0.521616, -17.549271, -79.781906, -607.765991
1733468036.193290, 17.748815, -1.348235, 9.159617, 0.310285, -0.237209, -0.315718, -17.614105, -79.671448, -607.891052
1733468036.203288, 17.448194, -1.442357, 8.909872, 0.195526, -0.331412, -0.132551, -17.615356, -79.661758, -607.666687
1733468036.213288, 17.000777, -1.446397, 8.514080, 0.123965, -0.353830, 0.044163, -17.292175, -79.686386, -607.990967
1733468036.223279, 16.587628, -1.417816, 8.112603, 0.074876, -0.290617, 0.210492, -17.183624, -79.642456, -607.939758
1733468036.233286, 16.120609, -1.489942, 7.939921, 0.004896, -0.198105, 0.354214, -17.450531, -80.014526, -608.024414
1733468036.243290, 15.782727, -1.623119, 8.125322, -0.084614, -0.199872, 0.474682, -17.530457, -79.958603, -608.159485
1733468036.253332, 15.657630, -1.525705, 8.605659, -0.154547, -0.367520, 0.603055, -17.618362, -80.147675, -608.308350
1733468036.263279, 15.649550, -1.240196, 8.963741, -0.197598, -0.663550, 0.740618, -17.894012, -80.282471, -608.265198
1733468036.273286, 15.350424, -1.111508, 8.904635, -0.244045, -0.957606, 0.858924, -18.160446, -80.468857, -609.109802
1733468036.283286, 14.870387, -1.215207, 8.401553, -0.295901, -1.144448, 0.965857, -18.151474, -80.838150, -609.250916
1733468036.293280, 14.448558, -1.244686, 7.799860, -0.345112, -1.232849, 1.073783, -18.213608, -81.232452, -609.145142
1733468036.303276, 14.088829, -1.163732, 7.259668, -0.394584, -1.270047, 1.202954, -18.679047, -81.291855, -609.854065
1733468036.313273, 13.735236, -1.014393, 6.770204, -0.440681, -1.266443, 1.358302, -18.907867, -81.798294, -610.246216
1733468036.323295, 13.364434, -0.933140, 6.294207, -0.491602, -1.200997, 1.534294, -19.371689, -82.139313, -610.721313
1733468036.333278, 12.929736, -0.829591, 5.860856, -0.573379, -1.101900, 1.719662, -19.850128, -82.501953, -611.142212
1733468036.343284, 12.491747, -0.765396, 5.522825, -0.668916, -1.027097, 1.904890, -20.883881, -83.168427, -611.545654
1733468036.353278, 11.992406, -0.773776, 5.109526, -0.753915, -0.981068, 2.083398, -21.546036, -83.618011, -612.233521
1733468036.363271, 11.414057, -0.939575, 4.570531, -0.776049, -0.980862, 2.228404, -22.225189, -84.204620, -613.031494
1733468036.373326, 10.806828, -1.179144, 4.121169, -0.741165, -1.049097, 2.333692, -23.270813, -84.640579, -613.401367
1733468036.383276, 10.157251, -1.402553, 3.741389, -0.656842, -1.158057, 2.398059, -24.088196, -85.398926, -613.927856
1733468036.393280, 9.610475, -1.593491, 3.431190, -0.533741, -1.309762, 2.442015, -25.058594, -85.900543, -613.832275
1733468036.403273, 9.225458, -1.768567, 3.299659, -0.408703, -1.470363, 2.499895, -25.907135, -86.006760, -614.819580
1733468036.413264, 8.762628, -1.788169, 3.284396, -0.333375, -1.599409, 2.561340, -26.881760, -86.681183, -615.222778
1733468036.423273, 8.121731, -1.880047, 3.248034, -0.331050, -1.656854, 2.609420, -28.010117, -86.970673, -615.340820
1733468036.433276, 7.569568, -2.095974, 3.100042, -0.376061, -1.668941, 2.649902, -29.200897, -87.532394, -615.602112
1733468036.443292, 7.035212, -2.317587, 2.846556, -0.434247, -1.630334, 2.681108, -30.279068, -87.655548, -615.974792
1733468036.453280, 6.591836, -2.489072, 2.577059, -0.495205, -1.560394, 2.710249, -31.242218, -88.149124, -616.499084
1733468036.463289, 6.239439, -2.692280, 2.333449, -0.553524, -1.490696, 2.747324, -32.432175, -88.409042, -617.205200
1733468036.473272, 5.974581, -2.801366, 2.156876, -0.606345, -1.424879, 2.802034, -33.948639, -88.712173, -617.247070
1733468036.483273, 5.652560, -2.917634, 2.075174, -0.652255, -1.381515, 2.856368, -35.499268, -88.916672, -617.521606
1733468036.493272, 5.325752, -3.073706, 1.930924, -0.679187, -1.380833, 2.898457, -36.870010, -89.258621, -617.464966
1733468036.503272, 5.044882, -3.236212, 1.727416, -0.670377, -1.413568, 2.939893, -37.996658, -89.183670, -618.473328
1733468036.513280, 4.751592, -3.377021, 1.459715, -0.626218, -1.454186, 2.983901, -39.478134, -89.317368, -618.784363
1733468036.523320, 4.464887, -3.598036, 1.270274, -0.589058, -1.460135, 3.027202, -40.597855, -89.501328, -619.244019
1733468036.533269, 4.171747, -3.757550, 1.156848, -0.591477, -1.427018, 3.077985, -42.373550, -89.537033, -619.556519
1733468036.543280, 3.846584, -3.870077, 1.092504, -0.636422, -1.332148, 3.141974, -44.135910, -89.469223, -619.643066
1733468036.553270, 3.610905, -4.008791, 0.972046, -0.713960, -1.183910, 3.230548, -45.513031, -89.356018, -620.034424
1733468036.563274, 3.307141, -3.961356, 1.052701, -0.830623, -1.045346, 3.325938, -46.929001, -89.254623, -620.641602
1733468036.573322, 2.926912, -3.977667, 1.159542, -0.981982, -0.913755, 3.405498, -49.048492, -88.820557, -621.120361
1733468036.583266, 2.496255, -4.148254, 1.200094, -1.149491, -0.845842, 3.457329, -50.731903, -88.689590, -622.150940
1733468036.593266, 2.055272, -4.399346, 1.150414, -1.318303, -0.845485, 3.479437, -52.550751, -88.084290, -621.947998
1733468036.603292, 1.579724, -4.528632, 0.843058, -1.451228, -0.889380, 3.473857, -54.049988, -87.652084, -623.450378
1733468036.613282, 1.082778, -4.610035, 0.343269, -1.532238, -0.942105, 3.444996, -55.712936, -87.128571, -623.936096
1733468036.623267, 0.738910, -4.771644, -0.287155, -1.560031, -0.986041, 3.410184, -57.522690, -86.385712, -624.382935
1733468036.633265, 0.407762, -4.947318, -0.937180, -1.542821, -1.024704, 3.368757, -58.854828, -85.739716, -625.012085
1733468036.643265, 0.089034, -5.111920, -1.466299, -1.479454, -1.077306, 3.328089, -60.527023, -84.884064, -625.606506
1733468036.653269, -0.331597, -5.140800, -1.885583, -1.388693, -1.108259, 3.284564, -62.097244, -83.998718, -625.653076
1733468036.663212, -0.760009, -5.085284, -2.180818, -1.298294, -1.105151, 3.247822, -63.424835, -83.296875, -626.160522
1733468036.673265, -1.065120, -5.010914, -2.280776, -1.231813, -1.090834, 3.214401, -65.016830, -82.179062, -626.146362
1733468036.683289, -1.258752, -4.924723, -2.328062, -1.198480, -1.064819, 3.207196, -66.304520, -81.255356, -626.423340
1733468036.693271, -1.440412, -4.818630, -2.362030, -1.180924, -1.033444, 3.224376, -67.754684, -80.258392, -626.547485
1733468036.703278, -1.911471, -4.576367, -2.141913, -1.163241, -1.053409, 3.227032, -69.232773, -78.964005, -626.936157
1733468036.713269, -2.543839, -4.587290, -1.876755, -1.150991, -1.125993, 3.180605, -70.354691, -78.000443, -627.017456
1733468036.723270, -3.190573, -4.896292, -1.912069, -1.145849, -1.206691, 3.084575, -72.020081, -76.737885, -626.963257
1733468036.733266, -3.815759, -5.040243, -2.344821, -1.121740, -1.228642, 2.975410, -72.822067, -75.824997, -627.416809
1733468036.743011, -4.326771, -5.032013, -2.890699, -1.090881, -1.130235, 2.871655, -74.039886, -74.718216, -627.721985
1733468036.753266, -4.576367, -5.018845, -3.185336, -1.093082, -1.021406, 2.781984, -74.622421, -73.634506, -627.706726
1733468036.763265, -4.410718, -4.808455, -3.150021, -1.117149, -0.966481, 2.754219, -75.988327, -72.513809, -627.838257
1733468036.773265, -4.108300, -4.491522, -3.278111, -1.129225, -0.923080, 2.795800, -76.962585, -71.177475, -627.361084
1733468036.783265, -4.027047, -4.052934, -3.547159, -1.115936, -0.889114, 2.885126, -77.799438, -69.834946, -627.590271
1733468036.793267, -4.210054, -3.731513, -3.788974, -1.070447, -0.878959, 2.989254, -78.495422, -68.510239, -626.633484
1733468036.803276, -4.612579, -3.605967, -3.927239, -0.989746, -0.895099, 3.084076, -79.748901, -67.049683, -627.101562
1733468036.813275, -5.273678, -3.674501, -3.986944, -0.916637, -0.927243, 3.132307, -80.689941, -65.566895, -627.071472
1733468036.823269, -6.118532, -3.826982, -3.869329, -0.878377, -0.947575, 3.128134, -81.555527, -64.175842, -626.636963
1733468036.833288, -7.054515, -3.960758, -3.998766, -0.872614, -0.911056, 3.077373, -82.252777, -62.593307, -626.575806
1733468036.842879, -7.954735, -4.231303, -4.119523, -0.905865, -0.837633, 2.968215, -82.677841, -61.152557, -626.618774
1733468036.853269, -8.606856, -4.496311, -4.251953, -0.980061, -0.749519, 2.832493, -83.259949, -59.886597, -626.315430
1733468036.863273, -9.077466, -4.558261, -4.403086, -1.043814, -0.711464, 2.676262, -83.783417, -58.625015, -626.384033
1733468036.873281, -9.625140, -4.698022, -4.526538, -1.045531, -0.781147, 2.474697, -84.516373, -57.557022, -625.923584
1733468036.883265, -10.054600, -4.712986, -4.888810, -0.955214, -0.954073, 2.270458, -84.620453, -56.378494, -625.542480
1733468036.893277, -10.284742, -4.692635, -5.424962, -0.786290, -1.152032, 2.096424, -84.620453, -56.378494, -625.542480
1733468036.903278, -10.358962, -4.685752, -6.059874, -0.578766, -1.257779, 1.997967, -85.021362, -54.257980, -624.270874
1733468036.913274, -10.416423, -4.663905, -6.668151, -0.403673, -1.201777, 1.983695, -85.315414, -53.100906, -623.665833
1733468036.923275, -10.676942, -4.536264, -6.810905, -0.314460, -1.022301, 2.028421, -85.537521, -51.976929, -623.085449
1733468036.933270, -11.528829, -4.373458, -6.364536, -0.350305, -0.792569, 2.050388, -85.508591, -51.051559, -623.177917
1733468036.943274, -12.625673, -4.665551, -5.830031, -0.457899, -0.629892, 2.009382, -85.508591, -51.051559, -623.177917
1733468036.953269, -13.609390, -5.355829, -5.770475, -0.551796, -0.535004, 1.888411, -86.003662, -49.948105, -623.089905
1733468036.963265, -14.560637, -6.070199, -6.244527, -0.585432, -0.467313, 1.699646, -85.827576, -49.018051, -622.887634
1733468036.973267, -15.376611, -6.459556, -6.939444, -0.565950, -0.390407, 1.473290, -86.029602, -48.346802, -622.957947
1733468036.983274, -15.901689, -6.565200, -7.369802, -0.538881, -0.335168, 1.228690, -86.124786, -47.744980, -622.610413
1733468036.993266, -16.132580, -6.305729, -7.539940, -0.525126, -0.337867, 1.011111, -86.258896, -47.102570, -622.116150
1733468037.003269, -16.210691, -6.013037, -7.848193, -0.489098, -0.368269, 0.828007, -85.928299, -46.655853, -621.260132
1733468037.013258, -16.368558, -5.806986, -8.459463, -0.398281, -0.337997, 0.675962, -85.820587, -46.340286, -621.858093
1733468037.023269, -16.729634, -6.170007, -9.803657, -0.090476, -0.047211, 0.407090, -86.120667, -46.146759, -622.043152
1733468037.033271, -16.976536, -6.270414, -9.944466, 0.078204, 0.127385, 0.247925, -86.037766, -45.994843, -621.974854
1733468037.043259, -17.158495, -6.213851, -9.732130, 0.217561, 0.282968, 0.065178, -85.872742, -45.848038, -622.259644
1733468037.053266, -17.158495, -6.213851, -9.732130, 0.217561, 0.282968, 0.065178, -86.118454, -45.792023, -622.032227
1733468037.063262, -17.169419, -6.008997, -8.815899, 0.412168, 0.428844, -0.336442, -85.894699, -45.949600, -622.180298
1733468037.073268, -17.176302, -5.926547, -8.445397, 0.478348, 0.512348, -0.556239, -85.896866, -46.190063, -622.553345
1733468037.083258, -16.985664, -5.951686, -8.066065, 0.524290, 0.584295, -0.782964, -86.212463, -46.483856, -622.497925
1733468037.093262, -16.645537, -5.910236, -7.694964, 0.559864, 0.655649, -1.007050, -85.973236, -46.916763, -623.330017
1733468037.103260, -16.140510, -5.749975, -7.411102, 0.597184, 0.731630, -1.210459, -85.749695, -47.667877, -622.648865
1733468037.113261, -15.498715, -5.438579, -7.159411, 0.637913, 0.811791, -1.370813, -85.752579, -48.250641, -623.572754
1733468037.123258, -14.861857, -5.199607, -6.949769, 0.682112, 0.889833, -1.513088, -85.481140, -49.082565, -623.968994
1733468037.133265, -14.308946, -5.010466, -6.676531, 0.731605, 0.949006, -1.655516, -85.882004, -49.836624, -624.600464
1733468037.143259, -13.693636, -4.857087, -6.402095, 0.782861, 0.979620, -1.784188, -85.452957, -51.005981, -624.962402
1733468037.153254, -12.993632, -4.701165, -6.150554, 0.830525, 0.995572, -1.897427, -85.229599, -51.897369, -624.943054
1733468037.163259, -12.313230, -4.518756, -6.000618, 0.869849, 1.020335, -1.979714, -85.163879, -52.773041, -625.401428
1733468037.173259, -11.714380, -4.310910, -5.947795, 0.908243, 1.085060, -2.028311, -84.769943, -53.962036, -625.875000
1733468037.183276, -11.206061, -4.295796, -5.915923, 0.941709, 1.217828, -2.064576, -84.473984, -54.975723, -626.285095
1733468037.193291, -10.749068, -4.231602, -5.730971, 0.959925, 1.374178, -2.092257, -83.950119, -56.114624, -626.457275
1733468037.203266, -10.312874, -4.162918, -5.331438, 0.974960, 1.514579, -2.128799, -83.627548, -57.322632, -626.572937
1733468037.213261, -9.827450, -4.115782, -4.916493, 0.987189, 1.609586, -2.184801, -83.150681, -58.388107, -627.624512
1733468037.223263, -9.281871, -4.102913, -4.476708, 1.013322, 1.627766, -2.246745, -83.079025, -59.711227, -628.582153
1733468037.233257, -8.696638, -4.059818, -4.235941, 1.064609, 1.598527, -2.302389, -81.960678, -61.021774, -629.228027
1733468037.243258, -8.169615, -4.047996, -4.071938, 1.120005, 1.554609, -2.372976, -81.473465, -62.154068, -629.471863
1733468037.253254, -7.701249, -4.085705, -3.969736, 1.187677, 1.499853, -2.445884, -80.632233, -63.350952, -629.602112
1733468037.263258, -7.141006, -4.091092, -3.983203, 1.282624, 1.453721, -2.503865, -80.171661, -64.540894, -630.255371
1733468037.273254, -6.564751, -4.052186, -3.973477, 1.381481, 1.445089, -2.560758, -79.340973, -65.722977, -630.646545
1733468037.283264, -5.880608, -3.998017, -3.803489, 1.476302, 1.446063, -2.601176, -78.628448, -67.214157, -630.588562
1733468037.293269, -5.163694, -4.000711, -3.437774, 1.546070, 1.442049, -2.608231, -77.488083, -68.435822, -630.632751
1733468037.303253, -4.485238, -3.991733, -2.998887, 1.553589, 1.478290, -2.600122, -76.970520, -69.874130, -629.901245
1733468037.313253, -3.907337, -4.152144, -2.538003, 1.502219, 1.545879, -2.565475, -75.743393, -70.849777, -630.779907
1733468037.323252, -3.317765, -4.144064, -2.122909, 1.421756, 1.598771, -2.504614, -74.797058, -72.069366, -630.905884
1733468037.333254, -2.836082, -4.123563, -1.874660, 1.346675, 1.657179, -2.450831, -73.527206, -73.292786, -630.775085
1733468037.343279, -2.296638, -4.303727, -1.833809, 1.323805, 1.687603, -2.371690, -72.469299, -74.362091, -630.735474
1733468037.353253, -1.863886, -4.308366, -1.728763, 1.339440, 1.704609, -2.310397, -71.700577, -75.450851, -631.335876
1733468037.363267, -1.547103, -4.382885, -1.477372, 1.342797, 1.681831, -2.279491, -70.715805, -76.226852, -630.911865
1733468037.373252, -1.260996, -4.506336, -1.142034, 1.323059, 1.614853, -2.271438, -69.573975, -77.314911, -631.483643
1733468037.383253, -1.066318, -4.542249, -0.860416, 1.288759, 1.530063, -2.280759, -68.513016, -78.233765, -631.384949
1733468037.393250, -0.953790, -4.563348, -0.738611, 1.228068, 1.485474, -2.322145, -67.468704, -78.915588, -631.190552
1733468037.403247, -0.671125, -4.725406, -0.858022, 1.194459, 1.492094, -2.341459, -66.309753, -79.767868, -630.157349
1733468037.413247, -0.275632, -4.833893, -1.045518, 1.194850, 1.529726, -2.352991, -65.475128, -80.815521, -631.579956
1733468037.423247, 0.019303, -4.938639, -1.090559, 1.219663, 1.546631, -2.371077, -63.985855, -81.471222, -630.868652
1733468037.433260, 0.304513, -4.810849, -0.877026, 1.253635, 1.502083, -2.379910, -62.762466, -82.021759, -630.379883
1733468037.443263, 0.464176, -4.505588, -0.636109, 1.273936, 1.458732, -2.400802, -61.546097, -82.761627, -630.385437
1733468037.453264, 0.647632, -4.295497, -0.446968, 1.287137, 1.390961, -2.428856, -60.196411, -83.652374, -630.103210
1733468037.463266, 0.902315, -4.203320, -0.301220, 1.297832, 1.279503, -2.458365, -59.156357, -84.111786, -629.851074
1733468037.473260, 1.161936, -4.282628, -0.285359, 1.340721, 1.187940, -2.493101, -57.809204, -84.639511, -629.518860
1733468037.483254, 1.484255, -4.698172, -0.647632, 1.463691, 1.159619, -2.515111, -56.640121, -85.232208, -629.292236
1733468037.492926, 1.758092, -4.817583, -0.687286, 1.596931, 1.181364, -2.534316, -55.033737, -85.888077, -628.239197
1733468037.503244, 1.954267, -4.756381, -0.179116, 1.666306, 1.186267, -2.558675, -53.881882, -86.437653, -626.987793
1733468037.513251, 2.200720, -4.557961, 0.457891, 1.656066, 1.196436, -2.559354, -52.566986, -86.877609, -627.136230
1733468037.523292, 2.358139, -4.371363, 1.044171, 1.568149, 1.220109, -2.565606, -51.182632, -87.184845, -626.292847
1733468037.533241, 2.550723, -4.217237, 1.580173, 1.393941, 1.209880, -2.577228, -49.682251, -87.500610, -625.432495
1733468037.543251, 2.877232, -4.337096, 1.825130, 1.211449, 1.149913, -2.590871, -48.787094, -87.760406, -625.387634
1733468037.553245, 3.172616, -4.503942, 1.426346, 1.130563, 1.107727, -2.604683, -47.413910, -88.005341, -624.821533
1733468037.563291, 3.400963, -4.680066, 0.658405, 1.204364, 1.102986, -2.620926, -46.069977, -88.181992, -624.160706
1733468037.573247, 3.657592, -4.683208, 0.147842, 1.372533, 1.116066, -2.628803, -44.880051, -88.389435, -623.825562
1733468037.583254, 3.860949, -4.456956, 0.124798, 1.556125, 1.104661, -2.618817, -43.403656, -88.525986, -623.108154
1733468037.593240, 4.053982, -4.188506, 0.549020, 1.693613, 1.067434, -2.606212, -42.213577, -88.677841, -622.335938
1733468037.603273, 4.255095, -3.932476, 1.184232, 1.744948, 1.008780, -2.604483, -40.947845, -88.772110, -621.434937
1733468037.613240, 4.448576, -3.646519, 1.726668, 1.724228, 0.940086, -2.604180, -39.854202, -88.732056, -620.625122
1733468037.623248, 4.625448, -3.556437, 1.951574, 1.687555, 0.898633, -2.612977, -38.593018, -88.740189, -619.774902
1733468037.633241, 4.815787, -3.556138, 1.919551, 1.685472, 0.901149, -2.642391, -37.422348, -88.632019, -618.629761
1733468037.643255, 4.986972, -3.654898, 1.829020, 1.746376, 0.935710, -2.688957, -36.105896, -88.641876, -617.996399
1733468037.653250, 5.329643, -3.575291, 2.057966, 1.832728, 0.924154, -2.722426, -34.946976, -88.350891, -617.117859
1733468037.663257, 5.717952, -3.110218, 2.764555, 1.878735, 0.830812, -2.727673, -33.625168, -88.092728, -616.529724
1733468037.673240, 5.972635, -2.722656, 3.503166, 1.853760, 0.668474, -2.743672, -32.414703, -87.747131, -615.458862
1733468037.682659, 6.240187, -2.877232, 3.685873, 1.807142, 0.542118, -2.772810, -31.182541, -87.459778, -614.296509
1733468037.693299, 6.637774, -3.131316, 3.254019, 1.817750, 0.529841, -2.777541, -30.033615, -87.067398, -613.392883
1733468037.703247, 7.306954, -2.879027, 3.182941, 1.877373, 0.583326, -2.761502, -29.097290, -86.680328, -612.617188
1733468037.713254, 8.133702, -2.874089, 3.544466, 1.965712, 0.681979, -2.738025, -28.068298, -86.024124, -611.870239
1733468037.723244, 8.983494, -2.938883, 4.348618, 2.011982, 0.771793, -2.676719, -26.885864, -85.628601, -610.683472
1733468037.733260, 9.933692, -2.479196, 5.660791, 1.941778, 0.827327, -2.572925, -25.997116, -85.043686, -609.741455
1733468037.742714, 10.890625, -2.364873, 6.919991, 1.773148, 0.839318, -2.428548, -25.211746, -84.582153, -608.889282
1733468037.753245, 12.040889, -2.224662, 7.736264, 1.611198, 0.870835, -2.210328, -24.647598, -84.002533, -608.097534
1733468037.763241, 13.377303, -2.122310, 8.372822, 1.502881, 0.885236, -1.945605, -24.029633, -83.598007, -607.184021
1733468037.773305, 14.590415, -2.240075, 9.271696, 1.375754, 0.838424, -1.648813, -23.561584, -82.997559, -606.445374
1733468037.783238, 15.510985, -2.511218, 10.001179, 1.196225, 0.839209, -1.380915, -23.596085, -82.599548, -605.720093
1733468037.793241, 16.072575, -2.946963, 10.574141, 0.934948, 0.943503, -1.144498, -23.318100, -82.449844, -605.793945
1733468037.803254, 16.623391, -3.126977, 11.246762, 0.588722, 1.104769, -0.895349, -22.958344, -82.111923, -605.094116
1733468037.813249, 16.921768, -3.188179, 12.025626, 0.199627, 1.171159, -0.669420, -22.861954, -82.163300, -604.761841
1733468037.823308, 16.963817, -3.339163, 12.350789, -0.096584, 1.116963, -0.476253, -23.101822, -81.819992, -604.846252
1733468037.832930, 16.819117, -3.405602, 12.197560, -0.237099, 0.954515, -0.328367, -23.196243, -82.033051, -605.128784
1733468037.843249, 16.434698, -3.589208, 11.876886, -0.230615, 0.676145, -0.251428, -23.323395, -82.013321, -604.874390
1733468037.853251, 16.197522, -3.635894, 11.726949, -0.143428, 0.302508, -0.198909, -23.244614, -81.874557, -604.555481
1733468037.863306, 15.944336, -3.508104, 11.672631, -0.052450, -0.117091, -0.161686, -22.910324, -81.888947, -604.843506
1733468037.873243, 15.619323, -3.377021, 11.603947, 0.017021, -0.541491, -0.129525, -22.740829, -81.684341, -604.999695
1733468037.883240, 15.191658, -3.170970, 11.477803, 0.020083, -0.860977, -0.101998, -22.587585, -81.699783, -604.802612
1733468037.893235, 14.807988, -3.089268, 11.041160, -0.062756, -0.992211, -0.048092, -22.338684, -81.783951, -604.460693
1733468037.903234, 14.661343, -2.709638, 10.630704, -0.219878, -0.980291, 0.072838, -21.909927, -81.661026, -605.657349
1733468037.913238, 14.444518, -2.257882, 10.211420, -0.424784, -0.883666, 0.233583, -21.747574, -81.728912, -605.626953
1733468037.923257, 14.138060, -1.997812, 9.620202, -0.611797, -0.753568, 0.412777, -21.735977, -81.875229, -606.101440
1733468037.933258, 13.740323, -1.829619, 9.004742, -0.745094, -0.691912, 0.581970, -21.514618, -82.232132, -606.574646
1733468037.943243, 13.253702, -1.847575, 8.470985, -0.807353, -0.707998, 0.737626, -21.933319, -82.415192, -606.895386
1733468037.953255, 12.812121, -1.793407, 8.040028, -0.820797, -0.814989, 0.881923, -22.140945, -82.573853, -607.113403
1733468037.963254, 12.301558, -1.803432, 7.744793, -0.816376, -0.989859, 0.995431, -22.409378, -82.890442, -607.516479
1733468037.973244, 11.672631, -1.988235, 7.404069, -0.810257, -1.166934, 1.081386, -22.568420, -83.082397, -608.344238
1733468037.983297, 11.086650, -2.132037, 6.914454, -0.822964, -1.301153, 1.144746, -22.866791, -83.486984, -608.612427
1733468037.993236, 10.502166, -2.218826, 6.492027, -0.847395, -1.410265, 1.201531, -22.962189, -84.017731, -608.668091
1733468038.003235, 9.965864, -2.298284, 5.915474, -0.863520, -1.454762, 1.252382, -23.246063, -84.019379, -609.821228
1733468038.013305, 9.559898, -2.387917, 5.182848, -0.857634, -1.429800, 1.312509, -23.431808, -84.514496, -610.631531
1733468038.023237, 9.341277, -2.236484, 4.669741, -0.843951, -1.419549, 1.396234, -23.716476, -84.804703, -611.130920
1733468038.033244, 9.183709, -2.157325, 4.244022, -0.819865, -1.419399, 1.514793, -24.613541, -85.124481, -611.513489
1733468038.042291, 9.083451, -2.209250, 3.779098, -0.787393, -1.400855, 1.648380, -25.053406, -85.487000, -612.347351
1733468038.053252, 8.717139, -2.312500, 3.460669, -0.774257, -1.374036, 1.757906, -25.717697, -85.697723, -612.915955
1733468038.063238, 8.243685, -2.587384, 3.324050, -0.786000, -1.353409, 1.812810, -26.467438, -86.092667, -613.412598
1733468038.073245, 7.847445, -3.033154, 3.141791, -0.788813, -1.371583, 1.823868, -27.363953, -86.363480, -613.809021
1733468038.083239, 7.574356, -3.314174, 2.953996, -0.763918, -1.428015, 1.817692, -27.942810, -86.800323, -614.596069
1733468038.093232, 7.337330, -3.440318, 2.809147, -0.715538, -1.503773, 1.813387, -28.871368, -86.967773, -614.576782
1733468038.102723, 7.191733, -3.481020, 2.738817, -0.675746, -1.598271, 1.824716, -29.286591, -87.168137, -615.746399
1733468038.113253, 7.049577, -3.470246, 2.647987, -0.650852, -1.669749, 1.854018, -30.557037, -87.603546, -616.356018
1733468038.123244, 6.903531, -3.602226, 2.335095, -0.608892, -1.689294, 1.896806, -31.119858, -87.793167, -616.548950
1733468038.133235, 6.765266, -3.762039, 2.037017, -0.567310, -1.663805, 1.951127, -31.815491, -88.256302, -616.992920
1733468038.143234, 6.666206, -3.800197, 2.042703, -0.569517, -1.632333, 2.016905, -32.815674, -88.368729, -617.661682
1733468038.153174, 6.540360, -3.878457, 2.127996, -0.613956, -1.607242, 2.085551, -33.956177, -88.288147, -617.567444
1733468038.163190, 6.365733, -3.991882, 2.083255, -0.674218, -1.570974, 2.152080, -34.861053, -88.503235, -618.262695
1733468038.173233, 6.140828, -4.138378, 1.887229, -0.721913, -1.526578, 2.200323, -35.753571, -88.873749, -618.838501
1733468038.183245, 5.932084, -4.216189, 1.694796, -0.743997, -1.494819, 2.259587, -37.078186, -89.061157, -619.275757
1733468038.193252, 5.757008, -4.172495, 1.594239, -0.741371, -1.487053, 2.319588, -38.258209, -89.128265, -618.362122
1733468038.203239, 5.517737, -4.193594, 1.606958, -0.745324, -1.507159, 2.382305, -38.817230, -89.241562, -619.522583
1733468038.213235, 5.346701, -4.204068, 1.670405, -0.781179, -1.532216, 2.464286, -40.502747, -89.197052, -620.140198
1733468038.223239, 5.120599, -4.244022, 1.671003, -0.856147, -1.535341, 2.556033, -41.767197, -89.288269, -620.764099
1733468038.233230, 4.783765, -4.365527, 1.459416, -0.955274, -1.493526, 2.641814, -43.138931, -89.241257, -621.311768
1733468038.243232, 4.469226, -4.398747, 1.164181, -1.066602, -1.456191, 2.722344, -44.362137, -89.258224, -622.110962
1733468038.253231, 4.179827, -4.387973, 0.847547, -1.164782, -1.426977, 2.804042, -45.835266, -89.041931, -622.207153
1733468038.263229, 3.814263, -4.355053, 0.358681, -1.223926, -1.395452, 2.881984, -47.150177, -88.897430, -623.311768
1733468038.273239, 3.368941, -4.328417, -0.166996, -1.231648, -1.346244, 2.951375, -48.825577, -88.544601, -623.582397
1733468038.283247, 3.039589, -4.389769, -0.709133, -1.197116, -1.289531, 3.014277, -50.424408, -88.131393, -623.903076
1733468038.293231, 2.648137, -4.544644, -1.117643, -1.130631, -1.230532, 3.067433, -51.958252, -87.942688, -623.939087
1733468038.303244, 2.359037, -4.727950, -1.407641, -1.052943, -1.172033, 3.123991, -53.496490, -87.271118, -625.047058
1733468038.313244, 2.111985, -4.802320, -1.508796, -0.988158, -1.124372, 3.187168, -55.248489, -86.972687, -625.336548
1733468038.323255, 1.676540, -4.786308, -1.437419, -0.943604, -1.100655, 3.223759, -56.828369, -86.399963, -625.377258
1733468038.333235, 1.071555, -4.914548, -1.232415, -0.914893, -1.132953, 3.208621, -58.315216, -85.781433, -625.758301
1733468038.343233, 0.505177, -5.019294, -0.993145, -0.901572, -1.218016, 3.155613, -59.826309, -85.248032, -625.998779
1733468038.353235, 0.040402, -5.095609, -0.925359, -0.892947, -1.314087, 3.081488, -61.238083, -84.207794, -626.394287
1733468038.363239, -0.270246, -5.107880, -1.011550, -0.892013, -1.372097, 3.012477, -62.585724, -83.802338, -626.382141
1733468038.373229, -0.542436, -5.033659, -1.207127, -0.899712, -1.377930, 2.961331, -64.201813, -82.904510, -626.041260
1733468038.383228, -0.720355, -4.990264, -1.470788, -0.919041, -1.324025, 2.941564, -65.278000, -81.857300, -626.480408
1733468038.393226, -0.832584, -4.835988, -1.841291, -0.941429, -1.213718, 2.954075, -66.498795, -81.139328, -625.975342
1733468038.403228, -1.030105, -4.771644, -2.131887, -0.963797, -1.068907, 2.989344, -67.965195, -79.981140, -626.500793
1733468038.413233, -1.241244, -4.687996, -2.316839, -1.006221, -0.909096, 3.022881, -69.327499, -78.852203, -627.046631
1733468038.423226, -1.502212, -4.622754, -2.340482, -1.065958, -0.774226, 3.058327, -70.528671, -77.913773, -627.146912
1733468038.433250, -1.787421, -4.396951, -2.326865, -1.109005, -0.684892, 3.109069, -71.618576, -76.716522, -627.543274
1733468038.443239, -2.065897, -4.203620, -2.495506, -1.123020, -0.612014, 3.162647, -73.060455, -75.620865, -627.731689
1733468038.453237, -2.242918, -4.113538, -2.579154, -1.101948, -0.605172, 3.232071, -73.060455, -75.620865, -627.731689
1733468038.463238, -2.407519, -4.011036, -2.477849, -1.081995, -0.676186, 3.309956, -74.049057, -74.233322, -628.140442
1733468038.473246, -2.757522, -3.730615, -2.376993, -1.073821, -0.775836, 3.372251, -75.445496, -72.782455, -627.964050
1733468038.483226, -3.348590, -3.590704, -2.441637, -1.073544, -0.861514, 3.390747, -76.803452, -71.549683, -627.779968
1733468038.493239, -3.877260, -3.570503, -2.596661, -1.086308, -0.947131, 3.392560, -77.792404, -69.769226, -627.795471
1733468038.503226, -4.506636, -3.504363, -2.940678, -1.107255, -0.966603, 3.394262, -78.945862, -68.342285, -627.020935
1733468038.512497, -5.236119, -3.566912, -3.374328, -1.138205, -0.941462, 3.364231, -79.755478, -66.764969, -627.791626
1733468038.523227, -5.974431, -3.560477, -3.611952, -1.179228, -0.929130, 3.325633, -80.869934, -65.195923, -627.854553
1733468038.533238, -6.648698, -3.269731, -3.870826, -1.222931, -0.889184, 3.290401, -81.625214, -63.637863, -627.770935
1733468038.543224, -7.234679, -3.130568, -4.216638, -1.249205, -0.872308, 3.261528, -82.124481, -62.013687, -627.338867
1733468038.553225, -7.867047, -3.058892, -4.645350, -1.211597, -0.937095, 3.222816, -82.857056, -60.554321, -627.456177
1733468038.563226, -8.763676, -3.238457, -5.082740, -1.103491, -1.062725, 3.122571, -83.394485, -58.702667, -627.069397
1733468038.573238, -9.827300, -3.529353, -5.606622, -0.935938, -1.175627, 2.992078, -83.934021, -57.082733, -626.964233
1733468038.583229, -10.812664, -3.749469, -6.260388, -0.755188, -1.173289, 2.856301, -84.424500, -55.734848, -626.504883
1733468038.593231, -11.684303, -4.090194, -6.761076, -0.617486, -1.043272, 2.716776, -84.727036, -54.366760, -625.614868
1733468038.603228, -12.307394, -4.301632, -6.830657, -0.579582, -0.820682, 2.606352, -84.924759, -53.116226, -625.070496
1733468038.613230, -12.834118, -4.295347, -6.598719, -0.642475, -0.594632, 2.505482, -85.322922, -51.597809, -625.595703
1733468038.623233, -13.457059, -4.358644, -6.420650, -0.743755, -0.426933, 2.365161, -85.694702, -50.378525, -624.793884
1733468038.633232, -14.017153, -4.524742, -6.443096, -0.803864, -0.396242, 2.185235, -85.947983, -49.109741, -624.985718
1733468038.643289, -14.626028, -4.733636, -6.588394, -0.776477, -0.534392, 1.958299, -86.087296, -48.203644, -624.518616
1733468038.653233, -15.097985, -5.173122, -7.098509, -0.647220, -0.709679, 1.706720, -86.367813, -47.235306, -624.711914
1733468038.663220, -15.434520, -5.484817, -7.779809, -0.487755, -0.830975, 1.463776, -86.146133, -46.374512, -624.257874
1733468038.673229, -15.762077, -5.576245, -8.281244, -0.362777, -0.830742, 1.250327, -86.109283, -45.686661, -624.027161
1733468038.683220, -15.919645, -5.565471, -8.712350, -0.277699, -0.726902, 1.092737, -86.265656, -45.068192, -623.458008
1733468038.693229, -16.044294, -5.553051, -9.067440, -0.219797, -0.554081, 0.980254, -86.249023, -44.649612, -623.181580
1733468038.703229, -16.320225, -5.576395, -9.250447, -0.172498, -0.359376, 0.866750, -86.139877, -44.329102, -622.433105
1733468038.713219, -16.690279, -5.737704, -9.425673, -0.099130, -0.167776, 0.737008, -86.175491, -43.772644, -622.826782
1733468038.723234, -16.918327, -5.959018, -9.656115, 0.006046, 0.027767, 0.589443, -86.198715, -43.689880, -622.537598
1733468038.733230, -17.086819, -6.125116, -9.568577, 0.113482, 0.180145, 0.421728, -86.283188, -43.308533, -623.051880
1733468038.743223, -17.311874, -6.183624, -9.193585, 0.193834, 0.283229, 0.216983, -86.167877, -43.358963, -623.120117
1733468038.753221, -17.437719, -6.326079, -8.754249, 0.265398, 0.299749, -0.015240, -86.277039, -43.132324, -623.281128
1733468038.763227, -17.523162, -6.263381, -8.401553, 0.345914, 0.295000, -0.273059, -86.232086, -43.393600, -623.627136
1733468038.773218, -17.543213, -6.304083, -8.279898, 0.441874, 0.292866, -0.540223, -86.167679, -43.905212, -623.678589
1733468038.783218, -17.315016, -6.359598, -8.168418, 0.540981, 0.321140, -0.777291, -86.151077, -44.113083, -624.018677
1733468038.793220, -16.929699, -6.248866, -8.083723, 0.624321, 0.417624, -0.978669, -86.182449, -44.878098, -624.023438
1733468038.803220, -16.487819, -6.041020, -7.809287, 0.672567, 0.546773, -1.150645, -86.219574, -45.283142, -623.307678
1733468038.813275, -15.933262, -5.756259, -7.460033, 0.686890, 0.681153, -1.293792, -86.231079, -46.058640, -624.482666
1733468038.823217, -15.318551, -5.426458, -7.139060, 0.688163, 0.816552, -1.399245, -86.156082, -46.995987, -624.482239
1733468038.833216, -14.791228, -5.165939, -6.892009, 0.685828, 0.950843, -1.495177, -86.028503, -47.633926, -624.835999
1733468038.843223, -14.309096, -5.161749, -6.732645, 0.689389, 1.084114, -1.579835, -85.732803, -48.659134, -625.812622
1733468038.853217, -13.865869, -5.144840, -6.546496, 0.705427, 1.200542, -1.671167, -85.687790, -49.614639, -626.322571
1733468038.863253, -13.426384, -5.088427, -6.232556, 0.733914, 1.250106, -1.782264, -85.411880, -50.708618, -626.687988
1733468038.873213, -12.979715, -4.953005, -5.792621, 0.762876, 1.244739, -1.899640, -85.195526, -51.708038, -627.281555
1733468038.883210, -12.535292, -4.647594, -5.406556, 0.782759, 1.225901, -2.001297, -84.811935, -52.741989, -627.579468
1733468038.893241, -12.021586, -4.527286, -5.194819, 0.788994, 1.233694, -2.093934, -84.392593, -53.906448, -628.185852
1733468038.903218, -11.506533, -4.458901, -5.063288, 0.781943, 1.269643, -2.161598, -83.846268, -55.071320, -628.316895
