SamplingTime, AccelerationX, AccelerationY, AccelerationZ, GyroX, GyroY, GyroZ, MagneticFieldX, MagneticFieldY, MagneticFieldZ
1733468294.412572, 2.556858, -10.096199, -0.198419, -0.053917, -0.034306, -0.003531, , , 
1733468294.422558, 2.757522, -10.118195, -0.356586, 0.057545, -0.296669, 0.048403, -44.565262, -82.097321, -643.834717
1733468294.432567, 2.549226, -10.207380, -0.591966, 0.148430, -0.481481, 0.043235, -44.523422, -82.036804, -643.863586
1733468294.442607, 1.780837, -10.661979, -0.569072, 0.178283, -0.683151, 0.017968, -44.708939, -82.191833, -643.821655
1733468294.452594, 1.613991, -10.933720, 0.183755, 0.252725, -0.938287, 0.024772, -44.861023, -82.249420, -643.389404
1733468294.462600, 0.947356, -11.335348, -0.220566, 0.424005, -1.330386, 0.001842, -44.969498, -82.650848, -643.628479
1733468294.472571, -0.019303, -11.961880, -0.301220, 0.699248, -1.743018, -0.074277, -45.702438, -82.540970, -642.780884
1733468294.482598, -0.531213, -12.038196, -0.592116, 0.921036, -1.963235, -0.162816, -46.084976, -82.789825, -642.238281
1733468294.492580, -1.092504, -12.053908, -0.579846, 1.016195, -1.975847, -0.275344, -46.258911, -83.329636, -641.033020
1733468294.502582, -1.380407, -12.200103, -0.303465, 0.955197, -1.795133, -0.390948, -46.674057, -83.351471, -641.391541
1733468294.512578, -1.425149, -12.068871, 0.471209, 0.791308, -1.650840, -0.483045, -46.651154, -83.738770, -640.184021
1733468294.522567, -1.384896, -11.904120, 1.419163, 0.557784, -1.581343, -0.574444, -46.914932, -84.036682, -640.303894
1733468294.532568, -1.502212, -11.784709, 1.642871, 0.310414, -1.484482, -0.702296, -46.714264, -84.201614, -639.992065
1733468294.542561, -1.521066, -11.517157, 1.391480, 0.114204, -1.402381, -0.832321, -47.015930, -84.390747, -639.129517
1733468294.552572, -1.225831, -11.128249, 1.105672, -0.009962, -1.397934, -0.945937, -46.657806, -84.448959, -639.952881
1733468294.562564, -0.891840, -10.883592, 0.862362, -0.041151, -1.519668, -1.061196, -46.678955, -84.754013, -639.105896
1733468294.572571, -0.576254, -10.857854, 0.567875, 0.018166, -1.725815, -1.169225, -46.505875, -84.778610, -639.417175
1733468294.582574, -0.350302, -10.785430, 0.287005, 0.156667, -2.031096, -1.265742, -46.414108, -84.817200, -639.528320
1733468294.592563, -0.389656, -10.714501, 0.321422, 0.327652, -2.408704, -1.411325, -46.324966, -85.308029, -638.664062
1733468294.602570, -0.280720, -10.863989, 0.733524, 0.471699, -2.889347, -1.576199, -46.121979, -85.263184, -638.969421
1733468294.612571, -0.012719, -10.835409, 1.248875, 0.558568, -3.389975, -1.740685, -46.100998, -85.820084, -638.189270
1733468294.622571, 0.198270, -10.698490, 1.332672, 0.567043, -3.789865, -1.895352, -46.029160, -85.995117, -637.720825
1733468294.632339, 0.469413, -10.450840, 1.083077, 0.518019, -4.061491, -2.016745, -45.957413, -86.183472, -636.613281
1733468294.642565, 0.750582, -10.394576, 0.661847, 0.409076, -4.184735, -2.137116, -45.593475, -86.529434, -636.779053
1733468294.652569, 1.105972, -10.370185, 0.184054, 0.247613, -4.178710, -2.234074, -45.212433, -86.630539, -636.150513
1733468294.662564, 1.547552, -10.000131, -0.199766, 0.068435, -4.103822, -2.298848, -44.910339, -86.973495, -635.483582
1733468294.672565, 2.047342, -9.615862, -0.525976, -0.102021, -4.001134, -2.340013, -44.668488, -87.125046, -635.211731
1733468294.682575, 2.576760, -9.404723, -0.810587, -0.270474, -3.901881, -2.355428, -44.120239, -87.165649, -635.632019
1733468294.692572, 2.813636, -9.202264, -0.897826, -0.430362, -3.920213, -2.405499, -43.598663, -87.412018, -635.053711
1733468294.702560, 2.833388, -8.994267, -0.925658, -0.553341, -4.086682, -2.487735, -43.210205, -87.344635, -635.663574
1733468294.712564, 3.058742, -8.710106, -1.651251, -0.627355, -4.213080, -2.535209, -42.640320, -87.378601, -635.312988
1733468294.722561, 3.371934, -8.382250, -2.560150, -0.691227, -4.270176, -2.538362, -42.292480, -87.330017, -635.477783
1733468294.732572, 3.624672, -7.826346, -3.074454, -0.834368, -4.264862, -2.496023, -41.725525, -87.156616, -636.246582
1733468294.742569, 4.109797, -6.918944, -4.107103, -1.052443, -4.101479, -2.355855, -41.450378, -87.011780, -635.695251
1733468294.752570, 4.911405, -5.939266, -5.739799, -1.267015, -3.727413, -2.125885, -40.801254, -86.828674, -637.135681
1733468294.762563, 5.838111, -4.936096, -7.342867, -1.449528, -3.245449, -1.805684, -40.958496, -86.620224, -636.785828
1733468294.772576, 6.539313, -3.932476, -8.692299, -1.577649, -2.738823, -1.431184, -40.540665, -86.220886, -637.474792
1733468294.782569, 7.090877, -3.035698, -10.030209, -1.645404, -2.202433, -0.998199, -40.524719, -85.890198, -638.717529
1733468294.792566, 7.281815, -2.315343, -11.181670, -1.677150, -1.699498, -0.590401, -40.644150, -85.432724, -638.989624
1733468294.802580, 6.893804, -2.110189, -11.992706, -1.679069, -1.282131, -0.273298, -40.960724, -84.979187, -640.117126
1733468294.812559, 6.393865, -1.986888, -13.051990, -1.646229, -0.833273, -0.039644, -41.259827, -84.613052, -640.330872
1733468294.822566, 5.888539, -1.675343, -14.298172, -1.545712, -0.370039, 0.121712, -41.381134, -84.368759, -640.793030
1733468294.832565, 5.325004, -1.141136, -15.273211, -1.335921, 0.037229, 0.237910, -41.384811, -83.733124, -641.988708
1733468294.842557, 5.050568, -0.639701, -16.106543, -1.027630, 0.411349, 0.328846, -41.388535, -83.755325, -641.819824
1733468294.852566, 5.115960, -0.372448, -16.857424, -0.640615, 0.774709, 0.435820, -41.267227, -83.792358, -642.888916
1733468294.862565, 5.241656, -0.256479, -17.278654, -0.182441, 1.102437, 0.566991, -41.586365, -83.563980, -642.793823
1733468294.872557, 5.124938, -0.345064, -17.277906, 0.324507, 1.374837, 0.678111, -41.387878, -83.755539, -642.194763
1733468294.882557, 4.812046, -0.527173, -16.652121, 0.828092, 1.592983, 0.748331, -41.100281, -84.043060, -641.867004
1733468294.892555, 4.454562, -0.603788, -15.514127, 1.252161, 1.794865, 0.799907, -41.267426, -84.456467, -640.759277
1733468294.902560, 4.236241, -0.494403, -13.980791, 1.587129, 1.940194, 0.858517, -41.018906, -84.680984, -640.507935
1733468294.912566, 4.188955, -0.472406, -12.251878, 1.846592, 1.979859, 0.929758, -41.269836, -85.289001, -639.741211
1733468294.922565, 4.041861, -0.651971, -10.483162, 2.051461, 1.830733, 0.970509, -41.384750, -85.625244, -638.159058
1733468294.932389, 3.702334, -0.946907, -9.079561, 2.237993, 1.614073, 0.983361, -41.368805, -86.108795, -637.381958
1733468294.942556, 3.424008, -1.359757, -8.513183, 2.435135, 1.464862, 0.990539, -41.391663, -86.619644, -635.751282
1733468294.952554, 3.048717, -1.906233, -8.252963, 2.656329, 1.408219, 0.985106, -41.709305, -86.962616, -635.419250
1733468294.962555, 2.492962, -2.224513, -7.943363, 2.883358, 1.527329, 1.002991, -41.822952, -87.426041, -633.598877
1733468294.972551, 1.802086, -2.544438, -7.320421, 3.056068, 1.785544, 1.001114, -42.400452, -87.927841, -632.342285
1733468294.982556, 1.206229, -3.064279, -5.840805, 3.167929, 1.951602, 0.957660, -42.445190, -88.296844, -630.636230
1733468294.992567, 0.956633, -3.361908, -4.032733, 3.244759, 1.926358, 0.902611, -42.779083, -88.775894, -629.073730
1733468295.002562, 0.957980, -3.682282, -2.277035, 3.324980, 1.688323, 0.848482, -42.948959, -89.226532, -627.063599
1733468295.012553, 1.028010, -4.113687, -0.928052, 3.453378, 1.313559, 0.796105, -43.287811, -89.320923, -625.738464
1733468295.022550, 0.743549, -4.237288, 0.049680, 3.579123, 0.914096, 0.719397, -43.528198, -89.423737, -624.040405
1733468295.032574, 0.250344, -4.561553, 0.778864, 3.625002, 0.704608, 0.596995, -43.671692, -89.566177, -621.661072
1733468295.042557, -0.224905, -5.141847, 1.240196, 3.553756, 0.698869, 0.446203, -43.910889, -89.332642, -620.544312
1733468295.052546, -0.534805, -5.555146, 1.690157, 3.416573, 0.900723, 0.294373, -44.262695, -89.409332, -618.982239
1733468295.062548, -0.485275, -6.036680, 1.906233, 3.264075, 1.212655, 0.166738, -44.065521, -89.417450, -616.823792
1733468295.072548, -0.257526, -5.978920, 2.646191, 3.102790, 1.475422, 0.086615, -44.305756, -89.428940, -616.280273
1733468295.082595, 0.020650, -5.827636, 3.263596, 3.003174, 1.705718, 0.043162, -44.288589, -89.077972, -614.514038
1733468295.092552, 0.331747, -5.763741, 3.966444, 2.932211, 1.803574, 0.035053, -44.616074, -88.931580, -613.068298
1733468295.102551, 0.669329, -5.393538, 5.067029, 2.785627, 1.764404, 0.040288, -44.889465, -88.938126, -611.438721
1733468295.112559, 1.004068, -5.211728, 6.016629, 2.548793, 1.632272, 0.061061, -44.989243, -88.569016, -611.247437
1733468295.122603, 1.404947, -5.061941, 6.305729, 2.351289, 1.473032, 0.093375, -45.282486, -88.341751, -610.395508
1733468295.132549, 1.808819, -5.551106, 5.471050, 2.400396, 1.414197, 0.140871, -45.382797, -88.348297, -608.993835
1733468295.142549, 2.099565, -5.993884, 4.645649, 2.633554, 1.370113, 0.205032, -45.889908, -87.981613, -607.296936
1733468295.152545, 2.121263, -5.581932, 5.312434, 2.807507, 1.256828, 0.244983, -46.147552, -87.500153, -606.514282
1733468295.162557, 1.816750, -5.344457, 6.616376, 2.814683, 1.090125, 0.221072, -46.318802, -86.950623, -605.328674
1733468295.172577, 1.321899, -5.045930, 7.382670, 2.672106, 1.080702, 0.173648, -46.552368, -86.697144, -603.816650
1733468295.182024, 1.135001, -5.042638, 7.110180, 2.493059, 1.352623, 0.121990, -47.057892, -86.360672, -603.273254
1733468295.192396, 1.117943, -5.611111, 7.053019, 2.358705, 1.657614, 0.098378, -47.502777, -86.038757, -601.998901
1733468295.202566, 1.159392, -5.687576, 7.956680, 2.188555, 1.776827, 0.059667, -47.763077, -85.684204, -601.754456
1733468295.212547, 1.401955, -5.677999, 8.921843, 2.087252, 1.684077, 0.039476, -47.844086, -85.133820, -601.085632
1733468295.222565, 1.791910, -5.483919, 8.588001, 2.170020, 1.613786, 0.092755, -48.264175, -84.888214, -600.294434
1733468295.232579, 1.907281, -5.356577, 7.843405, 2.408807, 1.745342, 0.177404, -48.586105, -84.393082, -599.608093
1733468295.242575, 1.697639, -5.597943, 8.793155, 2.639143, 1.773615, 0.239226, -49.361099, -83.811325, -598.325195
1733468295.252559, 1.364545, -5.598691, 11.778874, 2.721579, 1.607182, 0.256055, -49.879227, -83.433655, -597.190063
1733468295.262553, 1.100884, -5.790526, 14.472350, 2.602015, 1.414039, 0.225804, -50.318619, -82.934601, -597.265686
1733468295.272545, 0.735319, -6.256498, 16.996138, 2.266230, 1.144131, 0.109426, -50.459930, -82.390503, -596.062073
1733468295.282024, 0.531662, -6.760777, 18.939033, 1.807522, 0.844573, -0.053989, -50.661957, -82.030838, -595.634033
1733468295.292554, 0.653168, -7.088932, 19.632454, 1.400156, 0.545179, -0.206339, -50.439163, -81.880066, -595.246704
1733468295.302536, 1.299004, -7.047931, 19.744233, 1.074318, 0.315992, -0.270605, -50.485123, -81.794647, -594.651733
1733468295.311806, 2.324620, -6.534076, 19.548657, 0.772443, 0.199751, -0.226675, -50.681152, -81.486984, -594.627991
1733468295.322559, 3.067122, -6.140080, 19.345000, 0.491006, 0.161691, -0.128057, -50.594101, -81.591812, -594.712646
1733468295.332535, 3.469198, -6.228067, 19.274670, 0.258577, 0.087667, -0.035391, -50.821594, -81.684006, -594.845215
1733468295.342372, 3.461866, -6.407183, 19.357869, 0.088612, -0.079070, -0.001070, -50.913452, -81.446243, -594.521484
1733468295.352595, 3.173963, -6.714838, 19.324499, -0.009921, -0.330954, -0.044101, -50.572250, -81.736435, -594.613708
1733468295.362477, 2.842067, -7.002890, 19.406800, -0.076788, -0.684634, -0.145004, -50.203110, -81.624069, -594.007568
1733468295.372545, 2.766051, -6.880786, 19.501521, -0.144728, -1.028853, -0.231685, -49.555786, -81.749695, -594.194885
1733468295.382564, 2.764405, -6.564302, 19.246987, -0.233727, -1.247405, -0.276527, -49.118683, -81.780273, -594.377502
1733468295.392563, 2.867805, -6.203227, 18.916138, -0.390620, -1.307313, -0.259218, -48.655869, -81.922791, -593.922668
1733468295.402606, 3.007267, -5.810279, 18.792837, -0.624502, -1.291136, -0.196729, -48.442764, -82.315643, -594.387207
1733468295.412544, 3.232771, -5.591209, 18.811991, -0.909830, -1.323187, -0.105705, -48.125107, -82.287613, -594.730591
1733468295.422567, 3.482516, -5.588965, 18.724602, -1.189708, -1.477599, -0.008942, -47.607819, -82.725800, -595.109253
1733468295.432548, 3.458125, -5.552004, 18.038963, -1.411049, -1.679322, 0.074008, -47.350601, -83.052887, -595.811707
1733468295.442547, 3.206435, -5.467608, 16.876279, -1.574601, -1.847410, 0.128302, -46.804688, -83.335403, -595.771362
1733468295.452542, 2.685396, -5.469554, 15.650747, -1.683479, -1.992756, 0.134393, -46.539047, -83.935425, -596.724426
1733468295.462542, 2.105850, -5.272780, 14.794071, -1.751197, -2.178429, 0.101140, -45.824051, -84.029602, -597.254761
1733468295.472550, 1.827075, -4.983680, 14.086285, -1.806311, -2.392224, 0.057010, -45.157516, -84.566147, -597.681091
1733468295.482569, 1.796549, -4.954800, 13.240384, -1.844954, -2.573184, 0.011979, -44.658432, -85.080383, -597.453796
1733468295.492549, 1.828871, -4.857835, 12.259659, -1.848930, -2.702681, 0.001333, -44.365479, -85.281540, -599.027832
1733468295.502538, 2.122310, -4.587739, 11.495161, -1.829931, -2.869701, 0.029273, -43.545547, -85.879105, -599.750793
1733468295.511619, 2.357092, -4.494066, 11.168203, -1.801369, -3.115427, 0.061132, -43.545547, -85.879105, -599.750793
1733468295.521729, 2.307262, -4.381090, 10.686220, -1.779964, -3.332254, 0.066233, -43.094330, -85.999969, -600.223511
1733468295.532435, 2.247258, -4.270807, 10.281749, -1.799642, -3.538430, 0.059109, -41.494522, -86.738983, -601.647217
1733468295.542568, 2.358738, -4.069694, 9.807847, -1.855186, -3.662025, 0.075244, -40.899750, -87.211105, -602.540100
1733468295.552543, 2.686743, -3.875165, 9.031826, -1.955478, -3.661965, 0.143199, -40.370361, -87.706665, -603.764771
1733468295.562539, 3.166332, -3.758298, 8.380155, -2.110008, -3.592728, 0.265386, -40.027237, -87.967804, -604.801514
1733468295.572535, 3.496881, -3.456329, 7.747936, -2.308310, -3.462774, 0.433973, -39.779999, -88.332687, -606.080444
1733468295.582533, 3.631405, -3.079991, 6.862231, -2.509285, -3.307271, 0.634404, -39.779999, -88.332687, -606.080444
1733468295.592604, 3.761291, -2.743306, 5.845294, -2.673853, -3.154576, 0.860456, -39.974167, -88.698318, -606.751831
1733468295.602576, 3.771017, -2.538303, 4.750994, -2.793070, -2.998565, 1.076195, -40.100449, -88.926193, -608.163940
1733468295.612545, 3.440917, -2.404078, 3.804686, -2.849681, -2.986962, 1.239195, -40.493149, -89.294815, -609.606445
1733468295.622549, 2.905513, -2.425775, 2.840571, -2.787740, -3.109483, 1.343184, -40.967911, -89.432877, -611.133240
1733468295.632544, 2.399888, -2.465579, 1.748515, -2.442493, -3.530822, 1.461161, -41.309479, -89.845291, -612.373901
1733468295.642539, 1.422305, -2.753332, -0.448165, -2.239221, -3.627555, 1.482662, -41.824463, -90.044525, -613.381348
1733468295.652531, 0.766145, -3.043030, -1.356166, -2.080133, -3.637201, 1.449592, -42.317947, -89.890839, -614.254761
1733468295.662534, -0.108936, -3.675848, -2.321478, -1.928794, -3.536250, 1.318878, -42.737869, -89.919266, -615.605591
1733468295.672533, -0.988356, -4.402937, -3.205537, -1.714866, -3.403284, 1.107801, -43.614029, -89.872391, -616.429504
1733468295.682534, -1.421557, -5.121197, -3.977816, -1.426895, -3.246125, 0.850499, -44.295471, -90.245407, -617.244873
1733468295.692530, -1.552041, -5.443666, -4.367473, -1.122260, -3.102122, 0.615249, -44.388184, -89.910416, -617.738770
1733468295.702525, -1.421258, -5.273528, -4.320786, -0.867004, -2.991099, 0.446272, -44.680725, -90.006104, -618.300110
1733468295.712529, -1.077540, -5.159505, -4.078523, -0.699129, -2.896781, 0.333049, -44.815308, -90.163757, -618.509460
1733468295.722540, -0.804152, -5.129577, -3.542820, -0.596658, -2.908221, 0.254443, -45.010757, -90.213821, -619.209290
1733468295.732528, -0.544980, -4.852897, -3.006519, -0.544984, -2.993936, 0.249756, -45.145157, -90.236694, -619.043579
1733468295.742539, -0.101604, -4.463839, -2.553566, -0.551408, -3.141384, 0.341612, -45.143494, -90.244049, -619.367920
1733468295.752535, 0.285060, -4.371663, -2.340332, -0.585920, -3.294665, 0.515162, -45.473709, -90.110107, -619.099548
1733468295.762534, 0.363919, -4.405032, -2.568829, -0.592855, -3.384082, 0.715737, -45.607544, -90.077911, -619.422546
1733468295.772536, 0.164452, -4.770596, -3.086575, -0.550673, -3.368172, 0.924846, -46.256622, -90.140900, -619.264648
1733468295.782533, -0.262165, -5.091569, -3.575591, -0.511307, -3.217440, 1.117861, -46.778320, -89.938843, -619.362427
1733468295.792535, -0.604985, -5.641038, -3.679289, -0.606436, -3.014800, 1.248110, -47.450729, -89.943390, -619.255615
1733468295.802536, -0.891242, -6.162525, -3.060089, -0.919771, -2.918671, 1.351932, -48.263641, -89.633469, -619.506104
1733468295.812544, -1.111209, -6.196493, -2.714426, -1.307466, -2.817077, 1.461827, -48.767776, -89.565903, -619.813965
1733468295.822552, -1.111209, -6.196493, -2.714426, -1.307466, -2.817077, 1.461827, -49.472397, -89.220108, -620.203308
1733468295.832545, -2.076072, -5.683236, -3.872920, -1.875213, -2.682994, 1.687136, -50.769196, -89.031723, -621.198120
1733468295.842536, -2.545036, -6.450578, -5.574450, -1.872632, -2.592933, 1.759002, -51.526932, -88.676086, -621.678101
1733468295.852534, -2.960430, -7.007080, -6.743568, -1.723515, -2.598180, 1.814479, -52.629135, -88.389221, -622.330627
1733468295.862532, -3.552397, -7.236175, -7.090129, -1.593243, -2.709372, 1.851556, -53.276550, -87.999802, -622.888733
1733468295.871652, -4.351910, -7.353341, -7.558644, -1.562169, -2.739934, 1.879302, -54.371017, -87.532532, -623.168701
1733468295.882547, -5.317971, -7.345560, -8.514380, -1.627768, -2.585167, 1.875791, -55.472290, -87.119705, -623.139343
1733468295.892533, -6.385785, -7.610120, -9.569774, -1.741122, -2.330294, 1.820293, -56.353745, -86.600586, -623.655212
1733468295.902534, -7.054515, -8.334366, -11.006893, -1.800138, -2.000138, 1.758749, -57.152374, -86.157410, -623.861206
1733468295.912534, -7.398682, -9.192687, -12.896667, -1.754495, -1.579252, 1.681096, -58.109650, -85.621750, -624.585205
1733468295.922532, -7.654412, -9.873837, -14.501380, -1.578369, -1.148968, 1.601481, -59.036819, -85.032043, -625.218811
1733468295.932527, -7.855076, -10.106075, -15.204078, -1.339934, -0.822923, 1.529582, -59.830399, -84.714737, -625.302856
1733468295.942574, -7.995586, -9.909900, -14.916774, -1.140518, -0.646529, 1.487664, -60.514786, -84.240036, -625.763306
1733468295.952526, -8.141333, -9.655666, -14.401722, -1.029376, -0.555626, 1.466305, -60.962692, -83.780289, -626.012573
1733468295.962528, -8.606108, -9.585635, -13.850008, -1.021846, -0.580508, 1.416174, -61.696930, -83.161667, -626.333008
1733468295.972526, -9.452009, -9.783007, -13.722816, -1.091731, -0.570804, 1.307173, -62.358444, -82.713806, -626.691467
1733468295.982529, -10.270377, -10.023924, -14.555100, -1.139861, -0.449661, 1.162490, -62.919800, -82.252411, -626.236328
1733468295.992532, -10.784532, -9.963171, -15.847520, -1.089014, -0.200904, 1.012425, -63.110962, -81.727875, -627.571899
1733468296.002529, -11.112837, -9.776722, -17.135301, -0.935223, 0.140339, 0.848911, -63.606216, -81.429123, -627.821289
1733468296.012529, -11.257087, -9.628881, -18.147151, -0.683731, 0.532994, 0.673009, -64.095352, -81.069626, -628.415649
1733468296.022545, -11.194688, -9.311050, -18.585888, -0.374609, 0.916506, 0.498444, -64.183105, -81.043701, -628.905640
1733468296.032529, -11.028142, -8.952967, -18.404677, -0.045925, 1.257040, 0.316985, -64.209808, -80.827408, -629.578125
1733468296.042527, -10.786178, -8.622717, -17.754053, 0.286279, 1.465115, 0.118434, -64.318649, -81.069702, -629.760681
1733468296.052528, -10.654197, -8.132355, -16.760609, 0.643964, 1.514174, -0.121237, -63.965256, -80.967773, -630.042358
1733468296.062527, -10.506954, -7.775020, -15.551687, 1.016016, 1.426661, -0.393968, -63.955582, -81.313889, -629.773193
1733468296.072527, -10.098443, -7.533056, -14.353987, 1.360284, 1.318126, -0.670970, -63.628113, -81.639755, -629.710327
1733468296.082526, -9.530120, -7.343166, -13.261633, 1.632921, 1.257216, -0.928261, -62.894989, -82.235321, -628.997559
1733468296.092529, -8.775198, -7.106290, -12.202797, 1.819762, 1.294858, -1.135404, -62.470322, -82.529877, -628.885498
1733468296.102528, -7.885303, -6.737134, -11.227758, 1.940379, 1.417583, -1.268498, -61.757080, -83.038010, -628.326477
1733468296.112529, -6.943783, -6.248717, -10.252720, 2.006474, 1.602717, -1.326294, -61.148178, -83.674515, -627.671570
1733468296.122527, -5.937022, -5.955128, -9.258527, 2.022883, 1.789394, -1.311142, -60.552261, -84.326248, -627.104492
1733468296.132535, -5.049521, -5.671415, -8.187721, 1.984089, 1.918650, -1.250168, -59.632584, -84.903503, -626.314392
1733468296.142525, -4.526687, -5.481974, -7.184251, 1.914206, 1.985029, -1.201220, -58.814407, -85.318405, -626.239929
1733468296.152541, -4.252102, -5.585523, -6.531681, 1.854434, 2.071067, -1.193391, -58.012207, -85.796280, -625.713928
1733468296.162525, -3.977368, -5.853524, -6.124667, 1.837219, 2.148773, -1.212853, -57.561630, -86.353058, -625.297607
1733468296.172575, -3.719392, -5.784242, -5.714510, 1.871791, 2.210916, -1.235607, -57.169327, -86.591263, -624.785583
1733468296.182540, -3.376423, -5.556643, -5.215020, 1.933565, 2.205044, -1.262972, -56.094574, -87.193588, -623.708740
1733468296.192117, -2.923769, -5.296273, -4.445434, 1.975502, 2.110940, -1.261142, -55.253464, -87.416138, -623.651123
1733468296.202532, -2.477699, -5.158158, -3.844340, 1.957474, 2.040146, -1.233871, -54.593140, -87.966248, -622.708740
1733468296.212533, -2.233790, -5.102493, -3.491494, 1.867153, 2.043959, -1.203053, -54.075363, -88.018585, -622.418701
1733468296.222521, -2.183213, -5.206491, -3.366098, 1.760872, 2.145786, -1.201434, -53.362717, -88.377579, -621.621338
1733468296.232523, -2.169147, -5.532102, -3.633201, 1.745821, 2.342511, -1.243461, -52.564880, -88.534424, -621.123596
1733468296.242548, -1.956661, -5.829582, -3.738696, 1.821472, 2.552133, -1.307353, -51.815628, -89.048645, -620.626343
1733468296.252523, -1.603666, -5.847389, -3.215114, 1.930367, 2.638528, -1.361251, -50.946854, -89.279297, -619.918091
1733468296.262580, -1.262343, -5.392640, -2.325668, 2.013410, 2.626828, -1.401429, -50.364441, -89.471909, -619.100891
1733468296.272522, -1.061529, -4.822970, -1.439514, 2.041365, 2.571224, -1.430213, -49.713181, -89.671661, -618.196655
1733468296.282526, -0.877475, -4.524443, -0.581791, 2.000090, 2.462192, -1.458682, -49.051926, -89.621063, -616.740845
1733468296.292524, -0.595707, -4.480748, 0.071527, 1.944380, 2.333235, -1.496506, -48.343353, -89.932419, -616.581116
1733468296.302584, -0.308553, -4.771195, 0.084545, 1.991595, 2.259044, -1.567056, -47.468765, -89.975128, -615.986206
1733468296.312543, 0.076016, -4.954351, 0.025438, 2.153377, 2.132969, -1.631693, -47.013489, -90.192444, -615.056885
1733468296.322528, 0.490512, -4.690091, 0.587777, 2.346481, 1.906296, -1.693632, -46.162979, -90.149445, -613.710510
1733468296.332520, 0.835576, -4.257040, 1.176451, 2.492172, 1.650750, -1.714787, -45.187973, -90.001816, -612.519836
1733468296.342571, 1.043872, -3.441216, 1.742680, 2.544193, 1.467733, -1.709571, -44.486237, -89.805054, -611.420288
1733468296.352520, 1.177349, -3.367894, 2.134730, 2.512636, 1.397438, -1.726945, -43.835495, -89.645126, -610.036255
1733468296.362518, 1.350030, -3.322404, 2.645443, 2.365829, 1.408620, -1.721555, -43.188965, -89.477020, -608.808777
1733468296.372516, 1.511340, -3.214964, 3.005920, 2.134054, 1.491443, -1.744799, -42.360214, -89.298996, -607.506042
1733468296.382522, 1.632097, -3.305345, 3.106177, 1.901396, 1.572393, -1.754062, -41.499237, -89.009476, -606.604736
1733468296.392531, 1.542016, -2.873491, 2.489670, 1.820685, 1.701271, -1.775814, -40.851074, -88.969101, -605.811707
1733468296.402521, 1.449839, -2.350956, 1.584662, 1.909334, 1.827343, -1.804707, -40.385269, -88.533783, -604.991394
1733468296.412538, 1.542315, -2.222118, 0.924910, 2.177742, 1.953252, -1.899036, -40.017059, -88.242767, -604.125732
1733468296.422574, 1.858200, -2.433856, 0.926107, 2.554318, 1.968113, -2.002360, -39.371292, -87.807861, -602.940063
1733468296.432519, 2.596512, -1.977461, 2.408268, 2.796390, 1.711873, -2.061124, -38.572449, -87.173569, -601.198669
1733468296.442528, 3.336919, -1.668908, 4.625448, 2.792057, 1.232125, -2.102470, -37.706451, -86.723724, -599.863525
1733468296.452519, 3.708618, -1.293318, 5.574749, 2.657433, 0.800835, -2.123765, -37.075043, -85.975906, -599.018921
1733468296.462582, 3.485958, -1.396119, 4.621408, 2.623213, 0.767792, -2.213210, -36.532928, -85.432114, -597.627075
1733468296.472524, 3.421613, -1.967585, 3.215562, 2.724374, 1.052828, -2.331217, -35.923386, -84.630524, -596.600098
1733468296.482515, 4.052336, -2.001403, 3.353229, 2.827894, 1.416903, -2.424507, -35.076431, -83.969635, -594.503784
1733468296.492500, 4.937592, -1.606060, 5.009418, 2.832713, 1.648575, -2.459437, -34.496384, -83.291214, -594.198853
1733468296.502534, 5.977424, -0.975488, 7.215974, 2.667143, 1.763330, -2.425210, -34.235458, -82.424606, -592.829834
1733468296.512519, 7.173776, -0.976984, 9.629329, 2.309944, 1.665322, -2.350144, -33.922882, -81.816483, -591.527527
1733468296.522570, 7.957877, -1.507000, 11.081113, 2.034739, 1.531865, -2.343874, -33.550293, -81.291077, -591.077209
1733468296.532536, 8.839093, -1.886930, 11.714529, 1.918108, 1.294036, -2.353930, -33.325333, -80.346085, -590.026855
1733468296.542518, 10.419117, -1.793556, 13.152248, 1.838686, 0.864645, -2.299003, -32.818756, -79.874222, -589.733215
1733468296.552522, 12.093711, -1.320402, 14.289044, 1.743502, 0.427235, -2.131605, -32.342484, -79.263947, -588.880554
1733468296.562534, 13.525593, -0.753425, 14.879814, 1.597565, 0.112550, -1.894178, -31.818085, -78.540192, -588.232666
1733468296.572519, 14.677204, -0.632817, 15.132851, 1.394247, 0.015096, -1.594287, -31.226349, -77.785538, -587.406372
1733468296.582520, 15.773300, -0.557250, 15.354913, 1.034044, 0.192775, -1.223927, -30.999130, -77.366028, -586.276367
1733468296.592516, 16.691027, -0.647033, 15.926978, 0.503849, 0.501947, -0.856022, -30.735901, -77.286591, -587.170837
1733468296.602520, 17.209970, -1.059734, 16.146945, 0.009270, 0.803170, -0.515133, -31.201050, -77.397095, -586.713013
1733468296.612566, 17.348086, -1.087117, 15.663017, -0.312784, 0.996722, -0.205486, -31.441116, -77.393768, -587.088196
1733468296.622514, 17.240497, -0.996586, 15.187020, -0.427857, 0.978712, 0.060967, -31.879684, -77.540390, -586.890503
1733468296.632513, 17.029059, -1.115099, 14.928446, -0.378389, 0.748278, 0.288867, -32.223785, -77.745468, -587.749695
1733468296.642554, 16.659005, -0.990900, 15.112201, -0.272741, 0.348495, 0.504198, -32.494583, -77.927124, -587.751587
1733468296.652511, 16.023045, -0.870891, 15.461305, -0.191529, -0.111753, 0.688865, -32.823166, -78.263489, -587.871216
1733468296.662515, 15.224279, -0.938078, 15.622166, -0.184765, -0.522561, 0.836606, -32.762329, -77.985977, -587.775757
1733468296.672514, 14.428357, -1.047014, 15.503952, -0.266589, -0.841728, 0.958238, -32.746628, -78.222565, -588.001587
1733468296.682573, 13.726856, -1.230620, 15.117139, -0.397789, -1.071764, 1.072581, -32.375229, -78.489853, -587.436646
1733468296.692010, 12.987945, -1.238102, 14.415787, -0.540561, -1.184862, 1.203977, -32.435684, -78.705353, -588.714233
1733468296.702511, 12.364406, -1.098939, 13.647398, -0.687653, -1.230252, 1.368760, -32.438919, -79.098740, -588.322815
1733468296.712565, 11.658266, -1.190666, 13.105710, -0.825248, -1.262977, 1.518977, -32.441895, -79.330124, -588.884033
1733468296.722512, 10.858004, -1.347187, 12.733562, -0.957040, -1.307857, 1.659608, -32.573334, -79.883820, -588.999268
1733468296.732511, 10.083330, -1.525855, 12.343307, -1.079497, -1.379702, 1.766524, -32.864609, -80.217392, -589.390991
1733468296.742524, 9.205406, -1.870470, 11.830199, -1.149586, -1.495659, 1.829468, -32.862198, -80.872299, -590.214966
1733468296.752529, 8.403648, -2.323423, 11.322629, -1.189341, -1.662128, 1.849312, -33.322891, -81.344620, -590.921021
1733468296.762525, 7.647529, -2.683451, 10.941502, -1.223328, -1.882413, 1.835898, -33.160751, -81.707657, -591.369934
1733468296.772519, 7.007230, -2.918831, 10.432434, -1.242744, -2.128906, 1.811418, -33.078247, -82.283493, -592.168701
1733468296.782014, 6.404190, -3.140145, 9.759813, -1.248797, -2.346534, 1.794876, -32.852127, -82.871323, -592.400208
1733468296.792518, 5.858761, -3.230377, 8.995614, -1.248666, -2.488162, 1.795085, -33.098190, -83.130264, -593.186279
1733468296.802507, 5.540781, -3.257611, 8.242937, -1.250736, -2.584194, 1.828976, -33.303513, -83.680725, -594.241089
1733468296.812511, 5.323956, -3.315969, 7.747188, -1.278432, -2.669300, 1.890714, -33.114182, -84.056549, -594.656189
1733468296.822509, 4.920833, -3.458424, 7.124396, -1.313071, -2.706075, 1.951792, -33.132309, -84.560669, -595.679688
1733468296.832517, 4.549731, -3.630208, 6.339247, -1.360926, -2.686954, 2.031078, -33.350311, -85.140564, -596.105713
1733468296.842509, 4.165163, -3.790021, 5.635053, -1.429941, -2.633011, 2.123040, -33.598953, -85.683777, -597.384644
1733468296.852512, 3.597288, -3.912126, 5.073313, -1.527560, -2.560688, 2.193921, -34.294937, -86.365631, -597.971619
1733468296.862535, 2.979135, -4.067599, 4.389021, -1.613000, -2.440802, 2.238337, -34.466614, -86.751205, -598.816101
1733468296.872562, 2.544438, -4.162469, 3.647417, -1.703558, -2.276487, 2.299670, -35.148788, -87.151062, -599.847900
1733468296.882516, 2.181866, -4.109198, 3.164536, -1.806508, -2.138191, 2.379179, -35.755539, -87.771866, -600.307495
1733468296.892511, 1.821090, -4.095432, 2.567482, -1.879822, -2.055260, 2.442485, -36.784500, -88.051285, -601.923706
1733468296.902515, 1.296311, -4.287117, 2.005742, -1.882051, -2.095685, 2.454666, -37.817169, -88.475464, -602.797546
1733468296.912513, 0.727837, -4.573673, 1.315165, -1.796611, -2.216615, 2.420021, -38.494766, -88.801758, -603.778320
1733468296.922515, 0.254534, -4.783316, 0.605434, -1.669571, -2.367472, 2.350725, -39.288528, -89.057358, -604.700989
1733468296.932513, -0.287304, -5.248838, -0.144999, -1.511663, -2.415584, 2.216818, -40.093079, -89.492310, -605.665955
1733468296.942506, -0.858172, -5.657349, -0.737713, -1.384185, -2.343420, 2.065498, -40.715744, -89.525665, -605.942810
1733468296.952503, -1.120187, -5.622633, -0.791284, -1.360070, -2.203743, 1.927643, -41.297119, -89.560577, -606.751160
1733468296.962506, -1.018434, -5.450699, -0.572065, -1.434535, -2.074835, 1.843786, -41.731766, -89.874710, -607.588989
1733468296.972502, -0.813879, -5.127332, -0.574608, -1.552572, -1.983109, 1.826352, -42.464859, -89.990753, -608.338562
1733468296.982518, -0.740557, -4.914847, -0.969502, -1.659436, -1.908632, 1.843598, -43.263641, -90.004837, -608.548218
1733468296.992518, -0.795324, -5.028871, -1.714398, -1.692862, -1.869896, 1.858317, -44.360779, -90.024490, -610.053467
1733468297.002502, -0.885106, -5.203049, -2.639757, -1.614393, -1.836229, 1.879310, -45.154617, -90.292343, -610.765686
1733468297.012146, -1.011401, -5.316026, -3.425654, -1.443072, -1.780468, 1.885229, -46.169174, -90.202560, -611.204895
1733468297.022509, -1.163582, -5.603479, -3.879056, -1.214019, -1.725187, 1.869294, -46.668839, -90.317520, -611.849121
1733468297.032508, -1.183783, -5.810428, -3.670012, -1.017493, -1.758772, 1.850109, -47.565063, -90.148300, -612.166626
1733468297.042512, -1.171363, -5.847987, -2.898780, -0.935390, -1.851675, 1.859797, -48.405151, -89.839691, -612.018799
1733468297.052512, -1.354969, -5.805041, -2.203563, -0.962589, -1.961858, 1.857762, -49.338058, -89.846298, -612.902161
1733468297.062513, -1.780687, -5.885846, -1.791162, -1.051693, -2.057879, 1.834966, -50.295181, -89.591721, -612.941650
1733468297.072522, -2.088193, -6.133496, -2.152238, -1.141214, -2.030738, 1.811017, -51.092880, -89.571838, -613.576599
1733468297.082512, -2.232593, -6.249166, -2.696021, -1.225306, -1.935999, 1.794972, -51.635849, -89.391205, -613.188660
1733468297.092506, -2.332102, -6.463147, -2.930204, -1.335977, -1.885375, 1.798560, -52.460052, -88.957123, -614.297668
1733468297.102512, -2.239027, -6.281338, -3.146131, -1.468567, -1.864244, 1.859097, -53.429871, -88.634262, -614.689636
1733468297.112510, -2.374599, -5.911583, -3.743185, -1.561621, -1.795848, 1.932553, -54.122192, -88.371765, -615.362427
1733468297.122509, -2.498349, -5.887641, -4.705504, -1.596238, -1.657966, 2.035656, -55.282715, -88.292084, -615.866150
1733468297.132501, -2.692130, -5.845144, -5.397877, -1.605597, -1.532960, 2.157237, -56.246948, -87.807785, -616.461975
1733468297.142505, -3.182792, -6.186019, -6.006005, -1.601314, -1.380970, 2.233389, -56.246948, -87.807785, -616.461975
1733468297.152502, -3.677943, -6.780678, -6.657078, -1.563033, -1.247908, 2.265046, -57.558838, -87.089981, -616.713440
1733468297.162502, -4.263624, -6.781726, -6.698527, -1.523512, -1.254572, 2.247515, -58.698044, -86.922028, -617.354858
1733468297.172503, -4.932355, -6.716035, -6.699126, -1.505841, -1.360253, 2.222687, -59.305313, -86.276535, -617.956787
1733468297.182520, -5.649119, -6.638223, -7.177966, -1.483193, -1.476782, 2.200154, -60.402084, -85.847534, -618.333862
1733468297.192512, -6.581660, -6.678626, -8.064120, -1.430655, -1.504603, 2.143232, -61.374893, -85.136459, -618.270020
1733468297.202508, -7.455394, -6.967576, -9.194782, -1.341882, -1.446954, 2.052652, -62.235077, -84.515076, -619.041260
1733468297.211624, -8.112154, -7.309348, -10.350283, -1.217245, -1.314598, 1.964881, -62.981369, -83.965210, -619.149841
1733468297.222495, -8.892664, -8.037485, -11.664550, -1.086024, -0.996753, 1.846370, -63.647598, -83.320969, -619.508301
1733468297.232500, -9.441834, -8.867375, -12.688371, -0.990686, -0.593849, 1.715648, -64.602875, -82.787567, -619.816406
1733468297.242501, -9.830891, -9.239972, -13.087903, -0.907749, -0.270737, 1.598370, -65.150558, -82.448532, -619.946533
1733468297.252510, -10.446201, -9.274090, -13.283480, -0.758022, -0.103612, 1.479814, -65.628693, -81.836975, -619.946777
1733468297.262516, -11.365724, -9.147496, -13.406781, -0.511279, -0.114826, 1.331644, -66.271103, -81.335175, -620.355286
1733468297.272502, -12.323405, -9.352949, -13.657873, -0.209400, -0.179074, 1.118842, -66.422424, -80.958298, -620.228027
1733468297.282515, -12.967295, -9.923068, -13.914053, 0.075796, -0.232642, 0.859944, -66.863953, -80.794464, -620.315857
1733468297.292553, -13.353660, -10.563218, -14.021193, 0.319987, -0.221242, 0.562381, -67.379074, -80.749115, -619.923096
1733468297.302500, -13.521404, -11.050288, -14.082993, 0.530424, -0.091142, 0.276531, -67.224670, -80.510910, -619.576172
1733468297.312498, -13.373562, -11.318289, -14.016405, 0.689094, 0.193268, 0.023987, -67.309021, -80.669693, -619.439636
1733468297.322500, -13.034782, -11.224017, -13.371317, 0.780216, 0.485799, -0.170815, -67.230972, -80.649017, -619.406006
1733468297.332497, -12.739397, -10.739341, -12.264298, 0.855947, 0.711375, -0.335913, -67.194855, -80.795441, -619.365356
1733468297.342504, -12.385355, -10.372430, -11.338789, 0.942242, 0.863661, -0.487460, -67.004929, -81.160645, -618.725586
1733468297.352516, -12.025177, -10.264691, -10.499921, 1.021924, 0.936149, -0.643450, -66.911011, -81.166626, -619.001160
1733468297.362499, -11.797578, -10.260800, -9.658509, 1.084475, 0.939014, -0.834837, -66.612152, -81.519196, -619.029297
1733468297.372502, -11.537658, -10.230274, -9.085097, 1.134559, 0.950135, -1.051725, -65.815475, -81.972672, -618.393066
1733468297.382503, -11.089044, -9.949404, -8.687959, 1.179742, 1.026587, -1.253912, -65.538132, -82.384674, -618.362976
1733468297.392496, -10.451887, -9.476998, -8.318055, 1.218385, 1.184196, -1.407186, -64.941818, -82.744675, -618.246521
1733468297.402501, -9.600449, -8.983942, -7.691373, 1.232312, 1.353277, -1.503901, -63.986282, -83.289841, -617.864990
1733468297.412501, -8.759037, -8.436718, -6.772448, 1.209495, 1.484152, -1.550696, -63.487701, -83.776794, -618.063599
1733468297.422495, -8.086566, -8.016086, -5.769128, 1.138399, 1.580162, -1.576374, -62.730026, -84.312180, -617.792480
1733468297.432495, -7.567623, -7.734169, -4.932804, 0.997177, 1.656640, -1.604561, -61.950867, -84.726883, -617.886597
1733468297.442499, -7.095516, -7.450606, -4.440346, 0.835221, 1.763226, -1.629901, -61.328232, -85.168472, -617.873840
1733468297.452542, -6.595577, -7.236475, -4.496460, 0.710216, 1.931335, -1.648932, -60.611298, -85.620087, -617.943604
1733468297.462494, -6.133196, -7.007978, -4.585794, 0.630497, 2.084892, -1.671024, -59.972534, -86.153580, -618.107544
1733468297.472491, -5.803545, -6.654534, -4.438251, 0.610730, 2.175435, -1.719596, -59.158188, -86.394592, -618.132385
1733468297.482498, -5.486463, -6.475567, -4.491672, 0.665603, 2.226782, -1.789803, -58.281204, -86.867859, -618.025635
1733468297.491567, -4.982932, -6.318448, -4.535965, 0.785648, 2.255674, -1.860196, -57.490875, -87.343689, -618.348083
1733468297.502490, -4.450971, -6.143521, -4.580108, 0.963846, 2.286252, -1.931945, -56.556900, -87.687622, -618.403687
1733468297.512494, -3.918560, -6.021118, -4.320636, 1.168449, 2.273799, -2.005089, -55.499191, -88.062363, -618.507263
1733468297.522504, -3.404106, -5.591059, -3.572598, 1.342990, 2.150642, -2.086348, -54.615387, -88.390472, -617.854126
1733468297.532495, -2.917933, -5.137807, -2.730138, 1.464442, 1.932888, -2.171276, -53.501221, -88.908173, -617.227661
1733468297.542547, -2.478148, -4.732289, -2.129044, 1.529999, 1.706624, -2.243482, -52.417938, -89.079987, -616.594666
1733468297.552494, -2.131737, -4.439000, -1.950077, 1.551301, 1.567384, -2.317412, -51.276245, -89.383209, -616.267456
1733468297.562492, -1.857601, -4.295497, -2.103456, 1.572369, 1.579154, -2.413583, -50.326782, -89.847214, -615.811768
1733468297.572490, -1.442806, -4.405032, -2.481440, 1.655618, 1.758191, -2.511309, -49.058594, -89.988449, -614.853882
1733468297.582545, -0.742951, -4.448876, -2.440440, 1.778978, 1.930316, -2.588009, -47.828857, -90.182724, -613.282959
1733468297.592493, 0.003741, -4.390068, -1.602319, 1.858791, 1.976741, -2.652482, -46.581223, -90.355743, -613.180786
1733468297.602488, 0.624887, -4.120720, -0.558298, 1.867798, 1.882421, -2.691400, -45.115494, -90.290817, -612.229004
1733468297.612529, 1.087416, -3.482815, 0.398186, 1.807524, 1.689555, -2.711578, -43.982300, -90.458359, -611.389954
1733468297.622490, 1.508497, -2.983475, 1.035941, 1.714981, 1.462094, -2.726905, -42.784973, -90.388916, -610.681946
1733468297.632490, 2.000804, -2.807201, 1.226280, 1.618752, 1.241633, -2.732296, -41.385788, -90.263565, -610.110168
1733468297.642531, 2.388665, -2.688090, 0.996736, 1.565296, 1.124926, -2.738395, -40.350723, -90.152267, -608.946167
1733468297.652488, 2.609979, -2.970755, 0.199467, 1.622246, 1.200127, -2.801817, -39.040649, -89.788177, -607.996155
1733468297.662485, 2.956689, -3.255965, -0.443227, 1.765280, 1.352968, -2.843377, -37.825989, -89.790390, -607.319458
1733468297.672488, 3.516783, -2.903119, -0.250344, 1.878366, 1.484131, -2.837316, -36.569366, -89.423950, -605.898376
1733468297.682499, 4.075380, -2.564938, 0.523582, 1.887027, 1.505327, -2.780522, -35.341217, -88.965561, -603.944092
1733468297.692493, 4.605845, -2.169147, 1.354819, 1.783407, 1.444764, -2.661937, -34.094223, -88.590240, -603.735291
1733468297.702499, 4.982783, -1.753154, 1.847276, 1.570819, 1.377951, -2.480170, -33.189606, -87.936066, -603.364502
1733468297.712495, 4.982184, -1.465850, 1.777994, 1.338250, 1.416907, -2.324299, -32.639236, -87.745560, -602.476074
1733468297.722485, 4.636072, -1.878550, 0.885106, 1.272414, 1.629850, -2.295846, -31.929657, -87.354584, -601.973206
1733468297.732487, 4.442890, -2.744952, -0.244508, 1.473530, 1.910086, -2.357340, -31.502960, -86.702805, -600.873413
1733468297.742549, 4.815787, -2.746598, -0.196325, 1.808907, 2.040624, -2.401554, -30.579605, -86.087723, -600.041626
1733468297.752447, 5.318719, -2.104354, 1.124676, 2.070615, 1.955449, -2.410685, -29.908478, -85.376022, -598.651917
1733468297.762490, 5.943606, -1.565658, 2.626290, 2.137980, 1.749161, -2.365402, -29.145401, -84.676498, -597.659607
1733468297.772492, 6.466739, -1.519121, 3.563769, 2.061490, 1.583187, -2.313315, -28.554504, -83.948990, -596.731445
1733468297.781968, 6.650194, -1.855955, 3.894319, 1.931381, 1.519607, -2.281635, -28.399109, -83.097137, -594.928345
1733468297.792495, 6.697630, -2.098518, 3.993678, 1.795513, 1.557100, -2.304491, -27.928268, -82.575882, -595.363525
1733468297.802498, 6.745065, -2.331055, 3.853916, 1.720635, 1.697002, -2.354337, -27.139999, -81.657166, -593.539124
1733468297.812487, 6.975806, -2.057517, 3.652804, 1.770756, 1.869641, -2.397090, -27.074905, -81.011002, -593.059998
1733468297.822243, 7.497293, -1.821838, 3.517382, 1.994816, 2.071276, -2.454097, -27.195068, -80.502106, -592.162354
1733468297.832484, 8.779837, -1.492934, 4.425233, 2.303107, 2.021021, -2.422598, -26.459778, -79.173126, -590.408508
1733468297.842488, 10.684574, -0.586729, 6.963386, 2.517648, 1.569981, -2.233095, -25.883743, -78.125595, -589.568726
1733468297.852538, 12.243498, 0.198120, 9.633220, 2.488124, 0.939176, -1.934697, -25.549072, -77.212219, -588.271484
1733468297.861518, 12.977920, 0.186000, 11.104307, 2.173323, 0.439268, -1.644851, -25.312500, -76.451065, -587.443909
1733468297.872485, 12.645275, -0.533458, 11.020510, 1.756965, 0.290516, -1.489583, -25.319489, -75.729767, -586.817688
1733468297.882489, 11.908759, -1.605163, 9.496751, 1.448010, 0.601283, -1.477423, -25.242752, -75.105530, -585.611145
1733468297.892494, 11.867160, -1.898153, 8.321646, 1.249159, 1.059359, -1.472712, -25.125412, -74.337341, -585.407471
1733468297.902479, 12.619987, -1.494431, 8.460211, 1.155474, 1.420490, -1.422808, -25.103394, -73.833176, -584.990662
1733468297.912531, 13.638270, -0.978630, 9.287856, 1.145429, 1.582237, -1.292690, -25.505112, -73.477203, -584.654785
1733468297.922482, 14.586674, -0.412850, 10.641628, 1.165317, 1.487431, -1.101024, -25.415451, -73.077026, -583.811218
1733468297.932491, 15.618425, 0.171185, 12.618640, 1.142011, 1.060075, -0.817933, -25.683838, -72.493332, -583.524780
1733468297.942496, 16.355091, 0.506673, 14.158710, 1.046489, 0.505470, -0.489736, -25.559937, -72.138611, -582.945923
1733468297.952548, 16.230892, 0.361674, 14.447511, 0.918497, 0.080854, -0.187732, -25.540253, -71.771698, -582.567139
1733468297.962480, 15.605257, 0.085593, 13.991715, 0.769188, -0.125821, 0.049368, -25.529938, -71.619537, -582.523926
1733468297.972480, 14.742895, -0.179565, 13.422343, 0.596711, -0.124060, 0.225857, -25.403198, -71.608734, -582.366577
1733468297.982490, 14.169933, -0.354491, 13.115287, 0.371496, -0.017753, 0.394094, -25.231354, -71.511200, -581.733459
1733468297.992486, 13.943980, -0.160860, 13.125612, 0.117551, 0.100558, 0.594754, -25.733734, -71.732391, -582.189636
1733468298.002515, 13.800178, -0.013168, 13.197588, -0.126810, 0.110272, 0.804112, -26.056198, -71.785660, -582.393616
1733468298.012523, 13.409026, -0.147543, 13.124265, -0.321175, 0.040111, 0.988083, -26.369354, -72.221725, -582.783691
1733468298.022498, 12.749273, -0.309899, 12.795063, -0.473710, -0.086459, 1.114074, -26.734695, -72.543594, -582.665405
1733468298.032477, 11.984625, -0.636409, 12.523171, -0.586009, -0.279471, 1.176026, -26.784149, -72.893829, -582.651917
1733468298.042481, 11.490971, -0.813729, 12.279112, -0.667264, -0.538234, 1.221813, -26.560669, -73.404984, -583.287781
1733468298.052495, 11.109694, -0.799963, 11.904420, -0.753243, -1.029305, 1.302454, -26.644089, -73.881668, -583.408569
1733468298.062508, 10.759991, -0.976834, 11.250952, -0.753243, -1.029305, 1.302454, -26.678040, -74.225128, -583.959106
1733468298.072477, 10.212168, -1.322647, 9.962722, -0.773411, -1.316818, 1.396647, -26.752594, -74.716248, -584.463745
1733468298.082490, 10.046818, -1.396867, 9.477896, -0.790977, -1.392850, 1.479310, -26.492020, -75.191360, -584.291626
1733468298.092483, 9.878027, -1.358859, 9.134478, -0.829022, -1.448303, 1.587873, -26.470917, -75.683868, -585.330200
1733468298.102480, 9.682900, -1.329979, 8.861389, -0.891351, -1.491984, 1.717393, -26.297180, -76.128021, -585.797241
1733468298.112478, 9.403975, -1.340454, 8.392425, -0.964733, -1.472452, 1.849181, -26.599594, -76.684982, -586.419983
1733468298.122481, 9.083003, -1.451934, 7.866898, -1.052090, -1.410474, 1.972524, -26.505890, -77.311310, -586.880737
1733468298.132485, 8.873360, -1.593940, 7.529465, -1.141694, -1.386622, 2.092473, -26.616913, -77.962006, -587.601196
1733468298.142478, 8.604910, -1.809717, 7.178415, -1.219507, -1.397673, 2.213662, -27.205063, -78.667358, -588.393433
1733468298.152478, 8.267178, -1.904887, 6.779481, -1.290967, -1.437165, 2.332213, -27.742630, -79.137756, -588.743652
1733468298.162486, 7.861810, -2.085649, 6.298247, -1.344969, -1.494479, 2.434915, -28.101395, -80.015045, -589.698303
1733468298.172479, 7.379378, -2.289455, 5.718700, -1.362344, -1.541947, 2.534590, -28.589691, -80.850143, -590.495728
1733468298.182496, 6.920739, -2.343325, 5.184943, -1.372729, -1.565145, 2.649440, -28.700836, -81.496475, -590.551636
1733468298.192484, 6.376358, -2.273294, 4.814141, -1.394547, -1.567502, 2.763453, -29.351257, -82.339279, -591.792175
1733468298.202478, 5.769278, -2.376395, 4.474015, -1.420948, -1.570988, 2.849995, -30.242096, -82.911285, -592.506165
1733468298.212487, 5.299416, -2.708590, 4.185364, -1.459706, -1.595281, 2.917861, -31.049103, -83.588760, -593.586548
1733468298.222484, 4.750545, -2.892345, 3.826982, -1.500587, -1.618352, 2.973331, -32.036453, -84.216583, -594.004333
1733468298.232477, 4.139126, -3.068618, 3.352930, -1.547140, -1.612576, 2.995427, -32.648651, -84.851410, -594.770630
1733468298.242495, 3.544466, -3.481319, 2.847454, -1.578343, -1.601733, 2.976368, -33.561035, -85.595871, -595.651367
1733468298.252490, 2.971055, -3.819500, 2.252794, -1.561288, -1.563179, 2.925272, -34.650742, -86.114334, -596.564819
1733468298.261728, 2.355146, -4.081515, 1.771260, -1.522956, -1.495833, 2.858066, -35.881348, -86.550781, -597.381470
1733468298.272479, 1.911471, -4.242675, 1.805527, -1.532450, -1.493987, 2.776864, -36.557983, -87.191559, -598.389648
1733468298.282477, 1.551742, -4.450522, 1.996315, -1.551323, -1.549452, 2.675855, -37.362030, -87.669403, -598.826721
1733468298.292481, 1.191265, -4.727052, 1.826477, -1.541876, -1.601395, 2.573726, -38.403748, -87.824463, -600.098083
1733468298.302474, 1.018134, -4.697723, 1.786972, -1.553907, -1.703055, 2.497159, -39.269775, -88.109360, -600.917664
1733468298.312491, 0.835726, -4.684405, 1.820940, -1.590590, -1.849756, 2.438561, -39.995026, -88.456085, -601.818359
1733468298.322477, 0.626832, -4.749946, 1.468843, -1.627519, -1.965623, 2.386956, -40.856079, -88.957397, -602.734619
1733468298.332490, 0.497395, -4.778677, 0.826448, -1.643584, -2.044122, 2.349571, -41.885880, -88.847519, -603.689819
1733468298.342474, 0.348805, -4.823119, 0.085144, -1.623983, -2.064458, 2.335814, -42.671982, -89.108536, -604.261047
1733468298.352478, 0.179715, -4.828506, -0.590620, -1.601184, -2.002898, 2.357183, -43.316315, -89.348709, -604.815857
1733468298.362471, -0.092326, -4.942829, -1.212663, -1.608465, -1.830355, 2.394955, -44.405411, -89.265961, -605.399048
1733468298.372472, -0.398036, -5.026477, -1.696591, -1.623115, -1.635548, 2.438855, -45.376602, -89.434723, -606.479553
1733468298.382473, -0.667533, -5.223400, -1.999757, -1.613899, -1.463134, 2.461364, -46.539307, -89.437012, -606.350891
1733468298.392482, -0.939575, -5.311836, -2.181118, -1.585069, -1.347331, 2.486147, -47.556870, -89.502914, -607.914917
1733468298.402475, -1.215955, -5.167585, -2.049586, -1.546621, -1.314084, 2.490127, -48.624924, -89.455063, -608.373657
1733468298.412485, -1.476325, -5.357625, -1.916259, -1.520287, -1.381230, 2.481090, -49.910858, -89.047760, -609.321289
1733468298.422473, -1.625064, -5.507412, -1.533785, -1.545265, -1.648707, 2.470967, -51.089920, -89.023773, -609.490112
1733468298.432470, -1.913117, -5.665729, -1.460463, -1.602705, -1.983302, 2.462589, -52.152298, -88.692657, -610.112061
1733468298.441889, -2.430414, -5.592406, -2.212242, -1.639322, -2.212274, 2.468149, -52.839066, -88.482422, -610.674561
1733468298.452472, -3.290082, -5.533449, -3.291878, -1.656632, -2.229143, 2.462026, -53.869583, -88.309326, -611.165100
1733468298.462471, -4.083610, -6.024560, -4.695329, -1.652087, -1.942241, 2.428553, -54.680161, -87.840057, -611.693726
1733468298.472470, -4.477307, -6.473323, -5.866692, -1.624086, -1.494545, 2.411393, -56.042191, -87.401062, -611.948730
1733468298.482472, -4.507982, -6.517466, -6.186318, -1.616548, -1.115138, 2.433271, -56.815384, -87.106125, -611.819885
1733468298.492474, -4.305523, -6.340893, -5.855768, -1.662834, -0.996639, 2.532963, -58.124603, -86.577881, -613.216309
1733468298.502475, -4.557064, -6.240636, -5.823596, -1.681363, -1.061986, 2.630952, -59.301224, -86.099731, -613.754578
1733468298.512478, -5.428852, -6.604256, -6.614730, -1.593258, -1.155698, 2.648552, -60.393814, -85.613846, -614.114380
1733468298.522470, -6.386982, -6.989273, -7.495497, -1.433669, -1.258118, 2.600805, -61.729630, -84.885986, -614.668579
1733468298.531947, -7.304859, -7.440879, -8.069657, -1.285759, -1.279893, 2.502696, -62.618179, -84.224762, -615.001099
1733468298.542481, -8.035839, -7.914183, -8.555680, -1.185734, -1.189356, 2.396763, -63.275833, -83.593781, -614.929260
1733468298.552481, -8.683620, -8.240543, -9.034819, -1.143719, -0.953956, 2.283654, -64.456070, -83.010208, -615.179504
1733468298.562469, -9.361328, -8.740781, -9.489119, -1.147178, -0.687633, 2.145804, -65.023743, -82.199997, -615.429810
1733468298.572468, -9.982773, -9.249549, -9.843910, -1.145613, -0.536169, 1.999773, -65.745316, -81.822372, -616.039917
1733468298.582468, -10.795455, -9.488670, -10.199748, -1.100805, -0.559742, 1.828195, -66.747314, -81.377258, -615.709717
1733468298.592473, -11.803863, -9.688137, -11.128998, -0.971610, -0.569919, 1.610381, -67.057983, -80.720947, -616.358704
1733468298.602467, -12.539781, -10.259453, -12.675353, -0.757526, -0.411731, 1.364417, -67.578201, -80.310486, -616.298218
1733468298.612470, -13.005902, -10.759991, -13.958794, -0.481299, -0.100208, 1.134142, -67.825836, -80.055374, -616.828613
1733468298.622469, -13.260735, -11.062558, -14.420127, -0.178612, 0.202234, 0.909272, -68.443939, -79.860840, -616.846436
1733468298.632466, -13.436409, -11.109545, -13.800478, 0.147504, 0.280422, 0.677393, -68.748886, -79.571655, -616.368042
1733468298.642459, -13.748853, -11.112837, -12.943802, 0.493659, 0.219496, 0.415268, -68.903809, -79.473007, -616.653442
1733468298.652464, -13.945626, -11.278336, -12.400019, 0.814586, 0.158586, 0.141034, -68.859528, -79.474625, -616.269165
1733468298.662473, -14.111275, -11.315296, -11.674726, 1.048835, 0.162357, -0.142163, -68.859528, -79.474625, -616.269165
1733468298.672473, -14.145093, -11.389517, -10.778696, 1.153794, 0.257629, -0.426052, -68.574402, -79.427582, -616.061707
1733468298.682477, -13.878738, -11.381735, -9.881170, 1.145499, 0.426724, -0.696224, -68.401794, -79.687347, -615.688354
1733468298.692475, -13.364733, -11.275044, -9.119664, 1.081299, 0.643995, -0.920952, -68.204666, -79.930267, -614.717102
1733468298.702467, -12.594847, -11.034277, -8.651448, 1.027556, 0.897726, -1.086025, -67.872681, -80.225403, -614.889160
1733468298.712458, -11.787702, -10.715100, -8.225579, 1.003895, 1.122300, -1.204900, -67.289764, -80.712402, -614.957703
1733468298.722464, -11.077672, -10.285341, -7.488015, 0.997776, 1.245026, -1.292476, -66.601685, -81.097443, -615.206299
1733468298.732463, -10.394726, -9.917831, -6.853702, 1.007771, 1.319707, -1.364556, -66.311371, -81.364349, -614.925659
1733468298.742474, -9.697265, -9.615563, -6.402544, 1.009734, 1.389813, -1.416908, -65.958679, -81.893051, -614.861328
1733468298.752483, -9.103952, -9.273940, -5.937770, 0.993805, 1.458662, -1.453622, -65.381271, -82.297699, -615.029053
1733468298.762468, -8.615235, -8.996063, -5.540632, 0.969059, 1.543260, -1.495757, -64.802399, -82.701828, -615.023682
1733468298.772462, -8.154651, -8.761282, -5.079299, 0.920660, 1.602633, -1.544483, -64.165848, -83.258850, -615.203979
1733468298.782472, -7.843405, -8.378509, -4.550031, 0.844881, 1.647858, -1.608768, -63.661606, -83.605301, -614.635254
1733468298.792469, -7.639449, -7.949797, -4.305223, 0.759090, 1.755596, -1.690848, -62.771637, -84.250916, -614.708496
1733468298.801568, -7.283161, -7.635708, -4.325873, 0.683248, 1.927959, -1.764201, -61.944153, -84.538300, -614.854919
1733468298.812462, -6.732196, -7.346009, -4.402937, 0.642960, 2.145973, -1.826286, -61.569275, -84.868896, -615.258728
1733468298.822455, -6.077382, -7.265055, -4.470423, 0.681013, 2.331867, -1.881845, -60.799072, -85.399536, -615.585327
1733468298.832472, -5.442320, -7.010821, -4.181623, 0.773604, 2.414330, -1.922568, -59.955185, -85.993591, -615.850037
1733468298.842469, -4.892252, -6.449381, -3.586215, 0.872963, 2.384913, -1.963129, -59.423050, -86.294449, -615.778687
1733468298.852473, -4.498406, -5.837662, -2.985121, 0.957527, 2.270329, -2.004517, -58.232971, -86.712524, -616.073303
1733468298.862464, -4.127753, -5.469105, -2.641553, 1.021225, 2.112981, -2.061648, -57.501083, -87.273193, -615.667725
1733468298.872524, -3.756802, -5.118504, -2.408717, 1.046796, 1.928971, -2.117480, -56.332443, -87.562225, -615.702881
1733468298.882469, -3.466355, -4.854244, -2.522291, 1.086283, 1.832522, -2.198934, -55.542892, -87.914566, -615.046509
1733468298.892470, -3.126528, -5.129278, -3.104382, 1.192334, 1.868261, -2.309867, -54.787125, -88.298660, -615.124512
1733468298.902521, -2.718466, -5.282806, -3.472939, 1.362720, 1.991359, -2.427496, -53.311432, -88.655945, -614.500305
1733468298.912454, -2.294244, -5.060893, -3.286491, 1.559866, 2.108874, -2.554951, -52.396851, -88.886856, -614.325134
1733468298.922455, -1.750012, -4.789002, -2.466626, 1.727848, 2.101501, -2.674957, -51.242889, -89.309158, -613.758545
1733468298.932459, -1.151461, -4.261829, -1.431134, 1.849392, 1.972742, -2.763484, -49.777527, -89.638916, -613.051758
1733468298.942504, -0.637307, -3.554941, -0.588375, 1.915649, 1.776624, -2.834895, -48.509506, -89.778183, -612.044800
1733468298.952457, -0.241216, -3.096900, 0.079607, 1.920524, 1.568823, -2.903753, -47.012970, -89.786087, -611.189453
1733468298.962458, 0.350601, -2.880374, 0.533458, 1.851588, 1.368848, -2.946349, -45.684662, -89.945999, -610.325623
1733468298.972501, 0.982221, -2.866458, 0.659603, 1.745297, 1.242186, -2.977976, -44.566116, -89.788223, -609.596863
1733468298.982457, 1.407342, -3.439121, 0.143203, 1.709826, 1.288753, -3.047275, -43.100082, -89.694550, -608.306702
1733468298.992471, 1.834856, -3.554492, -0.487519, 1.759012, 1.430615, -3.081868, -41.777878, -89.732407, -607.937012
1733468299.002463, 2.190096, -3.049165, -0.512210, 1.852750, 1.585904, -3.097105, -40.266220, -89.473190, -607.181396
1733468299.012471, 2.608782, -2.636764, -0.261567, 1.928706, 1.733475, -3.068122, -38.638382, -89.149918, -605.635559
1733468299.022460, 3.089568, -1.941398, 0.274735, 1.928206, 1.830966, -2.967360, -37.293961, -88.819199, -604.758728
1733468299.032459, 3.413832, -1.321599, 1.008109, 1.848440, 1.897504, -2.850368, -36.367935, -88.420197, -603.481445
1733468299.042454, 3.637241, -1.164629, 1.381903, 1.775657, 2.015381, -2.773419, -35.921112, -88.298264, -602.595520
1733468299.052510, 3.900155, -1.591546, 1.318906, 1.829619, 2.181970, -2.771795, -34.883530, -87.757187, -601.707520
1733468299.062449, 4.379444, -2.134281, 1.630152, 2.015681, 2.235706, -2.808639, -33.921234, -87.430893, -600.900818
1733468299.072455, 5.109526, -2.024447, 2.781165, 2.228691, 2.060766, -2.822678, -33.076904, -86.716248, -599.726440
1733468299.082457, 5.742193, -1.288679, 4.204517, 2.367950, 1.708030, -2.786735, -32.219086, -86.185257, -597.737366
1733468299.092462, 6.374412, -0.566827, 5.407454, 2.322951, 1.350529, -2.673069, -31.283035, -85.188812, -596.778625
1733468299.102453, 6.925079, -0.030227, 6.218939, 2.077913, 1.069814, -2.520749, -30.282471, -84.441528, -596.072632
1733468299.112455, 7.113472, -0.236427, 6.298845, 1.792846, 1.014253, -2.420835, -29.863525, -83.727295, -595.385376
1733468299.122456, 7.537396, -0.634763, 5.784391, 1.547974, 1.100234, -2.314640, -29.134872, -83.123108, -594.526245
1733468299.132507, 8.234557, -0.717662, 5.565471, 1.313188, 1.174214, -2.171690, -28.654816, -82.267136, -593.717041
1733468299.142451, 8.629601, -1.044470, 5.135114, 1.135185, 1.336488, -2.051267, -28.217865, -81.866974, -592.904053
1733468299.152458, 8.757840, -1.430236, 4.227412, 1.063439, 1.607780, -1.964899, -27.639572, -81.341019, -592.502808
1733468299.162453, 8.956559, -1.311873, 3.829376, 1.090212, 1.828382, -1.874401, -27.718674, -80.938232, -592.102783
1733468299.172455, 9.226505, -1.173907, 3.847781, 1.276395, 1.969146, -1.819738, -27.948425, -80.506973, -591.624268
1733468299.182447, 9.713426, -1.410185, 3.845537, 1.684817, 2.019915, -1.787572, -27.922623, -79.905792, -590.233643
1733468299.192467, 10.500220, -1.319654, 4.908862, 2.198225, 1.840906, -1.743523, -28.014008, -79.188843, -589.665527
1733468299.202512, 11.598860, -1.009006, 7.709778, 2.555172, 1.317066, -1.665791, -28.228104, -78.155243, -588.208862
1733468299.212450, 12.621483, -0.558896, 10.789769, 2.618568, 0.625728, -1.542257, -27.861954, -77.093628, -587.224976
1733468299.221939, 12.962507, -0.539444, 12.570008, 2.462919, 0.132500, -1.469359, -27.485229, -76.122360, -586.531494
1733468299.232515, 12.964003, -1.113902, 13.027151, 2.195186, 0.008661, -1.449978, -26.974747, -75.079285, -585.925781
1733468299.242458, 13.455713, -1.235258, 13.321039, 1.777371, 0.199113, -1.391081, -26.274261, -74.424820, -585.089478
1733468299.252458, 14.512603, -0.606780, 14.176367, 1.214750, 0.451341, -1.222602, -26.408417, -73.755722, -584.382202
1733468299.262528, 15.906777, -0.002245, 14.986954, 0.659574, 0.585816, -0.936211, -26.359818, -73.505585, -584.053101
1733468299.272451, 17.007062, 0.205452, 15.012093, 0.221546, 0.614149, -0.586160, -26.367188, -73.331848, -584.014160
1733468299.282475, 17.587506, 0.140210, 14.563181, -0.070364, 0.533462, -0.216686, -26.636185, -73.407471, -583.281982
1733468299.292461, 17.742531, 0.018256, 14.053664, -0.224834, 0.333047, 0.161302, -26.742416, -73.350754, -583.690552
1733468299.302499, 17.445949, -0.238971, 13.557765, -0.277743, 0.082949, 0.497696, -26.842239, -73.511490, -584.342834
1733468299.312464, 16.609774, -0.531812, 13.100473, -0.269563, -0.159414, 0.779765, -26.924911, -73.662964, -584.300903
1733468299.322458, 15.664813, -0.671274, 12.767829, -0.274754, -0.328055, 1.022996, -27.121552, -74.108612, -584.500366
1733468299.332450, 14.705636, -0.807744, 12.583325, -0.317590, -0.445952, 1.231024, -27.356461, -74.137650, -584.242554
1733468299.342464, 13.724162, -0.988207, 12.377125, -0.375498, -0.530050, 1.399089, -27.695221, -74.593735, -584.722107
1733468299.352450, 12.676101, -1.250671, 12.215666, -0.466615, -0.597455, 1.514489, -27.398758, -74.997131, -584.926208
1733468299.362454, 11.690887, -1.483956, 12.228235, -0.600234, -0.680631, 1.574497, -27.629013, -75.440048, -585.006958
1733468299.372454, 10.875362, -1.574936, 12.101492, -0.746877, -0.788832, 1.606404, -27.896622, -75.893646, -585.771973
1733468299.382449, 10.208427, -1.646911, 11.760169, -0.879015, -0.933337, 1.622614, -28.202850, -76.504684, -585.334656
1733468299.392460, 9.699061, -1.748216, 11.265467, -0.965729, -1.119193, 1.637139, -28.072647, -77.031662, -586.049561
1733468299.402469, 9.228600, -1.759439, 10.594791, -0.999675, -1.315963, 1.643494, -28.157349, -77.517059, -586.865479
1733468299.412457, 8.814104, -1.912817, 9.842563, -0.977727, -1.491393, 1.645486, -28.150421, -77.933685, -587.212158
1733468299.422458, 8.491186, -2.118719, 9.054721, -0.917428, -1.624282, 1.650514, -28.367065, -78.491669, -587.820007
1733468299.432459, 8.324639, -2.139668, 8.471733, -0.870287, -1.685822, 1.699893, -28.307510, -78.946198, -587.976746
1733468299.442447, 8.329278, -1.976713, 8.083423, -0.878826, -1.680640, 1.810322, -28.025482, -79.468582, -588.541626
1733468299.452455, 8.270620, -1.731756, 7.923760, -0.946803, -1.644279, 1.974615, -28.331329, -80.115402, -589.924561
1733468299.462446, 8.160786, -1.634940, 7.769184, -1.087986, -1.567072, 2.172076, -28.598053, -80.694275, -590.255859
1733468299.472453, 7.865551, -1.597531, 7.437887, -1.271141, -1.464764, 2.379592, -29.000183, -81.274597, -590.657593
1733468299.482444, 7.388955, -1.516427, 7.041646, -1.475051, -1.347584, 2.574874, -29.496429, -82.001190, -590.621704
1733468299.492455, 6.877195, -1.631050, 6.725612, -1.695422, -1.273415, 2.730865, -30.560974, -82.636169, -592.091125
1733468299.502454, 6.344485, -1.816301, 6.201581, -1.894504, -1.235411, 2.860434, -31.134811, -83.539688, -592.919922
1733468299.512447, 5.849484, -2.011578, 5.436334, -2.051391, -1.211317, 2.965003, -32.394623, -84.245056, -594.008301
1733468299.522470, 5.370793, -2.259079, 4.666000, -2.163939, -1.212194, 3.040949, -33.289612, -84.991714, -595.015137
1733468299.532446, 4.859631, -2.535011, 3.937265, -2.237828, -1.246267, 3.100646, -34.242630, -85.864685, -596.353516
1733468299.542446, 4.272154, -2.659958, 3.232472, -2.258868, -1.290607, 3.139633, -35.490433, -86.417236, -597.542969
1733468299.552449, 3.644723, -2.877531, 2.451363, -2.213075, -1.319156, 3.148528, -36.522156, -86.957428, -598.568848
1733468299.562458, 3.082385, -3.165284, 1.870470, -2.146041, -1.333194, 3.142883, -37.977051, -87.550598, -599.634644
1733468299.572460, 2.517952, -3.313126, 1.607856, -2.104667, -1.353489, 3.113643, -39.044815, -88.070602, -600.510864
1733468299.582445, 1.981950, -3.413683, 1.468843, -2.076744, -1.423409, 3.072125, -40.182053, -88.382675, -601.180725
1733468299.592452, 1.493383, -3.528904, 1.334468, -2.046274, -1.566228, 3.019588, -41.387405, -88.774063, -602.520813
1733468299.602443, 1.019631, -3.719093, 1.177947, -2.006044, -1.793405, 2.939537, -42.786911, -88.952057, -603.405273
1733468299.612442, 0.464026, -3.997718, 0.803554, -1.936833, -2.023060, 2.826924, -43.583435, -89.168900, -604.378906
1733468299.622442, -0.072874, -4.300585, 0.145298, -1.843511, -2.180297, 2.694243, -44.666916, -89.325012, -605.491455
1733468299.632439, -0.401328, -4.646996, -0.497096, -1.763022, -2.217654, 2.556519, -45.726593, -89.349518, -606.240906
1733468299.642454, -0.737115, -4.985626, -1.135899, -1.678412, -2.136084, 2.421330, -46.704407, -89.539383, -606.775024
1733468299.652451, -0.986261, -5.090671, -1.522263, -1.619724, -1.984823, 2.297509, -47.513962, -89.399780, -607.437622
1733468299.662445, -1.120037, -5.057152, -1.545158, -1.615620, -1.823355, 2.191262, -48.443848, -89.462311, -608.394897
1733468299.672449, -1.085172, -4.857386, -1.483657, -1.661555, -1.677349, 2.130765, -49.301544, -89.368256, -608.903503
1733468299.682458, -0.814777, -4.609437, -1.446397, -1.741011, -1.581449, 2.121910, -49.899292, -89.460938, -609.329895
1733468299.692456, -0.694917, -4.428076, -1.487697, -1.810561, -1.579930, 2.153478, -51.147903, -89.238464, -610.367188
1733468299.702440, -0.752827, -4.120122, -1.678635, -1.848361, -1.635148, 2.215876, -52.219757, -88.916504, -611.379639
1733468299.712502, -0.930447, -4.133290, -2.193987, -1.828510, -1.694294, 2.281667, -53.226776, -88.626236, -612.363159
1733468299.722438, -1.189020, -4.528932, -2.802862, -1.776522, -1.742491, 2.318315, -54.258820, -88.383972, -612.761963
1733468299.732439, -1.490241, -4.748300, -3.304597, -1.701843, -1.775470, 2.361239, -55.357361, -88.248566, -613.221436
1733468299.742437, -1.948731, -4.668394, -3.801094, -1.627955, -1.730652, 2.409909, -56.420441, -87.726303, -613.885376
1733468299.752481, -2.545336, -5.045780, -4.243872, -1.584618, -1.603500, 2.423006, -57.478577, -87.207062, -614.018982
1733468299.762440, -3.006519, -5.473145, -4.330961, -1.612406, -1.565012, 2.403975, -58.351044, -86.887268, -614.347656
1733468299.772439, -3.632453, -5.424812, -4.176535, -1.658231, -1.724497, 2.376413, -59.491150, -86.402847, -614.924133
1733468299.781918, -4.405630, -5.311387, -4.691737, -1.643930, -1.936050, 2.340845, -60.264008, -86.010010, -614.771851
1733468299.792441, -5.180304, -5.438279, -5.931784, -1.550091, -2.106292, 2.323231, -61.127655, -85.242813, -615.481079
1733468299.802512, -5.873874, -5.687127, -7.579594, -1.358044, -2.104123, 2.359006, -62.021347, -84.568756, -615.677795
1733468299.812438, -6.631639, -6.181380, -9.533711, -1.098352, -1.805542, 2.415647, -62.837051, -83.926910, -615.671997
1733468299.822439, -7.613711, -7.167043, -10.954221, -0.868527, -1.286628, 2.423661, -64.039108, -83.271042, -615.924438
1733468299.832452, -8.442554, -8.050503, -11.255441, -0.741273, -0.813241, 2.382985, -65.045181, -82.618607, -616.207825
1733468299.842439, -9.378387, -8.721029, -10.850971, -0.658714, -0.553327, 2.260827, -66.126663, -82.053864, -615.683838
1733468299.852440, -10.304045, -9.121310, -10.415525, -0.547597, -0.541820, 2.071926, -67.105804, -81.567902, -615.828552
1733468299.862436, -11.060912, -9.558850, -10.192266, -0.372075, -0.758775, 1.822833, -67.497391, -81.022156, -616.124329
1733468299.872497, -11.672481, -10.107272, -10.217704, -0.152006, -1.045884, 1.555805, -67.951431, -80.525986, -615.346497
1733468299.882445, -12.171972, -10.573543, -10.647613, 0.078965, -1.172033, 1.292492, -68.230026, -80.080032, -614.214111
1733468299.891691, -12.403162, -11.003452, -11.036222, 0.247680, -1.107354, 1.071618, -68.685440, -79.752167, -614.375916
1733468299.902432, -12.274623, -11.161020, -10.962750, 0.328043, -0.901037, 0.931326, -68.995239, -79.445694, -614.053284
1733468299.912437, -11.994202, -11.271004, -10.780492, 0.350952, -0.612415, 0.854885, -69.268143, -79.211090, -613.852661
1733468299.922433, -11.960384, -11.665748, -10.346243, 0.336505, -0.341090, 0.771925, -69.587830, -79.034103, -613.407532
1733468299.932435, -12.020239, -12.140248, -9.662699, 0.299769, -0.187753, 0.649697, -69.714188, -78.669998, -613.464050
1733468299.942466, -12.166136, -12.362909, -9.131485, 0.268963, -0.092778, 0.504297, -70.070770, -78.649216, -613.360718
1733468299.952436, -12.269685, -12.368595, -8.772804, 0.240001, 0.005185, 0.352678, -70.231934, -78.557098, -613.134521
1733468299.962434, -12.244097, -12.349891, -8.385242, 0.188149, 0.120775, 0.213485, -69.691910, -78.532410, -613.098694
1733468299.972434, -12.148778, -12.248586, -8.041824, 0.122772, 0.261328, 0.085254, -70.095963, -78.444519, -613.257019
1733468299.982433, -12.194717, -12.032809, -7.804798, 0.074068, 0.411600, -0.043938, -70.032669, -78.593674, -613.194641
1733468299.992444, -12.303353, -11.814188, -7.591265, 0.043932, 0.543127, -0.181730, -69.847137, -78.567566, -613.739136
1733468300.002435, -12.501623, -11.548881, -7.351845, 0.019152, 0.639593, -0.330415, -69.723343, -78.822403, -613.676147
1733468300.012432, -12.657845, -11.233594, -7.263260, 0.008829, 0.716213, -0.494249, -69.471237, -79.070282, -614.187134
1733468300.022129, -12.722189, -10.919206, -7.459883, 0.017512, 0.836947, -0.666196, -69.241730, -79.402298, -614.601746
1733468300.032451, -12.633155, -10.531794, -7.766042, 0.047480, 1.030012, -0.849201, -68.881470, -79.733398, -614.819458
1733468300.042435, -12.403760, -10.181642, -7.896376, 0.082231, 1.250543, -1.031138, -68.241913, -80.089661, -615.455078
1733468300.052433, -11.993304, -9.810391, -7.798214, 0.122793, 1.460436, -1.217571, -67.922333, -80.756699, -615.415710
1733468300.062435, -11.398345, -9.370007, -7.638551, 0.184122, 1.646835, -1.383596, -67.308701, -81.310333, -616.116211
1733468300.072440, -10.658387, -8.809315, -7.475895, 0.274957, 1.807242, -1.528401, -66.728470, -81.846527, -616.889038
1733468300.082432, -9.906608, -8.210466, -6.976105, 0.380645, 1.870189, -1.647718, -66.258057, -82.371185, -616.692749
1733468300.092442, -9.135376, -7.655909, -6.484246, 0.500105, 1.913596, -1.752064, -65.500717, -82.810349, -617.315308
1733468300.102434, -8.474277, -7.165546, -6.132897, 0.628303, 1.943183, -1.845361, -64.674088, -83.541122, -617.529297
1733468300.112430, -7.828441, -6.734141, -5.723788, 0.744539, 1.958357, -1.938085, -63.874710, -84.062637, -617.944336
1733468300.122430, -7.181558, -6.444592, -5.275773, 0.846534, 1.944833, -2.028921, -63.011032, -84.594040, -617.825684
1733468300.132430, -6.531981, -6.145317, -4.948815, 0.937216, 1.913389, -2.101429, -62.006912, -85.226303, -617.833862
1733468300.142466, -6.047155, -5.781997, -4.771644, 1.042913, 1.950926, -2.186654, -61.006027, -85.732330, -617.824341
1733468300.152439, -5.540332, -5.690718, -4.734384, 1.176672, 2.045508, -2.271687, -59.995422, -86.262375, -617.252869
1733468300.162439, -4.979491, -5.448604, -4.300734, 1.304044, 2.120946, -2.355752, -59.995422, -86.262375, -617.252869
1733468300.172247, -4.451270, -5.088277, -3.664924, 1.429009, 2.167911, -2.441731, -58.904236, -86.905731, -616.947388
1733468300.182466, -3.820248, -4.802918, -3.092560, 1.540347, 2.170230, -2.518908, -57.543900, -87.622177, -616.803345
1733468300.192453, -3.246238, -4.433762, -2.416498, 1.600956, 2.111843, -2.599388, -56.401245, -88.096832, -615.859863
1733468300.202438, -2.732083, -4.203320, -1.864185, 1.617751, 2.022241, -2.687216, -55.364777, -88.254822, -615.889954
1733468300.212433, -2.205209, -3.893122, -1.584812, 1.620086, 1.953390, -2.751291, -54.122955, -88.646011, -615.265015
1733468300.222437, -1.702876, -3.501670, -1.603816, 1.639292, 1.951900, -2.797540, -52.378525, -89.110947, -614.839417
1733468300.232489, -1.192013, -3.468300, -1.619378, 1.706208, 2.005284, -2.852207, -51.103653, -89.541626, -614.126038
1733468300.242446, -0.603339, -3.695600, -1.446846, 1.829992, 2.070030, -2.907982, -49.916702, -89.786301, -613.245667
1733468300.252425, 0.075268, -3.529801, -0.923264, 1.941096, 2.104813, -2.929078, -48.423935, -89.777466, -612.297119
1733468300.262482, 0.689081, -3.120243, -0.170587, 1.984645, 2.115280, -2.914025, -47.265594, -90.119644, -611.546143
1733468300.272439, 1.216105, -2.609231, 0.562039, 1.932742, 2.129848, -2.853930, -45.991058, -89.810043, -610.242554
1733468300.282438, 1.633444, -2.052579, 1.162086, 1.787708, 2.171382, -2.769598, -44.631592, -89.777618, -609.934326
1733468300.292306, 1.886631, -1.729960, 1.473481, 1.581526, 2.268319, -2.682627, -43.625946, -89.859116, -608.270264
1733468300.302424, 2.183512, -1.894113, 1.436371, 1.382626, 2.385530, -2.627802, -42.862457, -89.829773, -608.411743
1733468300.312436, 2.479196, -2.384176, 1.327136, 1.274782, 2.477332, -2.615195, -41.805893, -89.501450, -607.686096
1733468300.322436, 2.820220, -2.726846, 1.040281, 1.280026, 2.520229, -2.623996, -40.575790, -89.702240, -607.703918
1733468300.332441, 3.145083, -2.634071, 0.861464, 1.376455, 2.472040, -2.614777, -39.360123, -89.454849, -606.927734
1733468300.342429, 3.511995, -2.263418, 0.873734, 1.502622, 2.412808, -2.577856, -38.393005, -89.153580, -605.643738
1733468300.352485, 3.812916, -1.804031, 0.997335, 1.615197, 2.330838, -2.511007, -37.413269, -88.742157, -604.814941
1733468300.362424, 4.040814, -1.534833, 1.156399, 1.723564, 2.279337, -2.455136, -36.992203, -88.286209, -603.697144
1733468300.372425, 4.136432, -1.563863, 1.142333, 1.851676, 2.272474, -2.419113, -36.093018, -87.961334, -603.006775
1733468300.382485, 4.358943, -1.602020, 1.260697, 2.005247, 2.232668, -2.400972, -35.159897, -87.740570, -601.937622
1733468300.392440, 4.617667, -1.585261, 1.738041, 2.171272, 2.108517, -2.382785, -34.753815, -87.035126, -600.851868
1733468300.402425, 4.907216, -1.472584, 2.413355, 2.310328, 1.904593, -2.350227, -33.741318, -86.532532, -599.567078
1733468300.412422, 5.234323, -1.243488, 2.977190, 2.414059, 1.692434, -2.313358, -33.221054, -85.899536, -598.246460
1733468300.422477, 5.416283, -1.279551, 3.179350, 2.519739, 1.590168, -2.294670, -32.356049, -85.184860, -597.115112
1733468300.432437, 5.623830, -1.449839, 3.178452, 2.665699, 1.639288, -2.293890, -32.052414, -84.283783, -595.802734
1733468300.442427, 5.794118, -1.665766, 3.410091, 2.806096, 1.821887, -2.334076, -31.587906, -83.555664, -594.663513
1733468300.452444, 6.035184, -1.606360, 4.705205, 2.880732, 1.907039, -2.391747, -31.208206, -82.445099, -593.323242
1733468300.462433, 6.693440, -1.117943, 6.477513, 2.841092, 1.642498, -2.381810, -30.782074, -81.553024, -592.067200
1733468300.472425, 9.031378, -0.246453, 10.754455, 2.624594, 1.255283, -2.294478, -30.412003, -80.472717, -590.732666
1733468300.482418, 10.280552, -0.292392, 12.171972, 2.357069, 0.827667, -2.165456, -30.160416, -79.759811, -589.626343
1733468300.492421, 11.432313, -0.391602, 12.871677, 2.129198, 0.397360, -1.987851, -29.828552, -78.929886, -588.286438
1733468300.502422, 12.302007, -0.547524, 12.975675, 1.969637, 0.096982, -1.819327, -29.055496, -78.103317, -587.536255
1733468300.512428, 12.874520, -0.723947, 12.552650, 1.836424, 0.093006, -1.653346, -28.505875, -77.332733, -587.268433
1733468300.522421, 13.819033, -0.525827, 12.826337, 1.568116, 0.281397, -1.441267, -28.132599, -76.429184, -586.058594
1733468300.532465, 14.949545, 0.050578, 13.802423, 1.149512, 0.551550, -1.178190, -27.903458, -75.711273, -586.338440
1733468300.542422, 16.134076, 0.224905, 14.445865, 0.681745, 0.797347, -0.885203, -27.886703, -75.521515, -585.688843
1733468300.552418, 17.077242, 0.031723, 14.622886, 0.292360, 0.931543, -0.585424, -27.958359, -75.124527, -585.480835
1733468300.562421, 17.572542, -0.187047, 14.183700, 0.117508, 0.893835, -0.288235, -28.310913, -75.023361, -585.066101
1733468300.572444, 17.780988, -0.227300, 13.740174, 0.148650, 0.649970, 0.002063, -28.616211, -75.064468, -585.240234
1733468300.582424, 17.773506, -0.205602, 13.777134, 0.281017, 0.238511, 0.295468, -28.836761, -75.097900, -584.810181
1733468300.592419, 17.460015, -0.188244, 14.176367, 0.403538, -0.234420, 0.588764, -28.986923, -75.059158, -584.579590
1733468300.602431, 16.713473, -0.317381, 14.380772, 0.413005, -0.567168, 0.859343, -28.926392, -74.738678, -584.804688
1733468300.612420, 15.813552, -0.506074, 14.379426, 0.284870, -0.714547, 1.117605, -29.093201, -74.584869, -584.483887
1733468300.622418, 14.842404, -0.765396, 14.290990, 0.059249, -0.745326, 1.331793, -29.107101, -74.763474, -584.103333
1733468300.632418, 13.789404, -1.007510, 14.234576, -0.219708, -0.749078, 1.502533, -29.267273, -74.933716, -584.737976
1733468300.642429, 12.805238, -1.198298, 13.902680, -0.496973, -0.742736, 1.642862, -29.223114, -75.376450, -584.790039
1733468300.652419, 11.875988, -1.432780, 13.434165, -0.744850, -0.759734, 1.746528, -29.518692, -75.674164, -585.184509
1733468300.662421, 11.136779, -1.481113, 12.839804, -0.936489, -0.816829, 1.856284, -29.568771, -76.203293, -585.285706
1733468300.672428, 10.523414, -1.534234, 12.068871, -1.057927, -0.919048, 1.966165, -29.986542, -76.846756, -585.880127
1733468300.682421, 9.892243, -1.720683, 11.292402, -1.121037, -1.055658, 2.056830, -30.371368, -77.335953, -585.842224
1733468300.692419, 9.133730, -1.903690, 10.639084, -1.148151, -1.235684, 2.111551, -30.484543, -78.018906, -586.991577
1733468300.702416, 8.360403, -2.083704, 10.032902, -1.149708, -1.434560, 2.131926, -30.777847, -78.515167, -587.445190
1733468300.712414, 7.829189, -2.312649, 9.474305, -1.153685, -1.651342, 2.133090, -31.054749, -79.266068, -588.144714
1733468300.722418, 7.366959, -2.506280, 8.919000, -1.164296, -1.851846, 2.138791, -31.272964, -79.780350, -588.701782
1733468300.732415, 6.947824, -2.632275, 8.063073, -1.171407, -1.932832, 2.157980, -31.214493, -80.337585, -589.183105
1733468300.742425, 6.598270, -2.636764, 7.186645, -1.202535, -1.899459, 2.209570, -31.168350, -80.887939, -589.598572
1733468300.752416, 6.351069, -2.539350, 6.646902, -1.290326, -1.796529, 2.289161, -31.794998, -81.324524, -590.316895
1733468300.762420, 6.154595, -2.473061, 6.175694, -1.420439, -1.652770, 2.391624, -32.063019, -82.062302, -590.791260
1733468300.772415, 5.887791, -2.426523, 5.609016, -1.555786, -1.488379, 2.511278, -32.742844, -82.717300, -591.907654
1733468300.782418, 5.636250, -2.267758, 5.106832, -1.693609, -1.351966, 2.652276, -33.190628, -83.252319, -591.592041
1733468300.792416, 5.317372, -2.150891, 4.743213, -1.816650, -1.282393, 2.789347, -33.896057, -83.835800, -593.460022
1733468300.802417, 4.872051, -2.237980, 4.216788, -1.900033, -1.245474, 2.907053, -34.910416, -84.607101, -594.277100
1733468300.812418, 4.353856, -2.374001, 3.652654, -1.944870, -1.234965, 2.999901, -35.910751, -85.225586, -595.223816
1733468300.822416, 3.836559, -2.602048, 3.224241, -1.967692, -1.246442, 3.062747, -37.181198, -85.763077, -596.202576
1733468300.832426, 3.347094, -2.833089, 2.960580, -1.997961, -1.272222, 3.112114, -38.138504, -86.370880, -597.285217
1733468300.842416, 2.899528, -3.129970, 2.731335, -2.053391, -1.299451, 3.138043, -39.376404, -86.831924, -597.920227
1733468300.852406, 2.364125, -3.456030, 2.555810, -2.132183, -1.346728, 3.129303, -40.488358, -87.147629, -599.488647
1733468300.862412, 1.814057, -3.693505, 2.224213, -2.207067, -1.388976, 3.091885, -41.507553, -87.556793, -600.176147
1733468300.872417, 1.330129, -3.853468, 1.545308, -2.226381, -1.383828, 3.032995, -42.833542, -88.220276, -601.331787
1733468300.882416, 0.969203, -4.002357, 0.918775, -2.182290, -1.376527, 2.969429, -43.853989, -88.467758, -601.998657
1733468300.892412, 0.618602, -4.292055, 0.528071, -2.076816, -1.424543, 2.892861, -44.908997, -88.731415, -603.271606
1733468300.902283, 0.293888, -4.591031, 0.284162, -1.932192, -1.531688, 2.817594, -46.407242, -88.606369, -604.377014
1733468300.912421, -0.046837, -4.791546, 0.249446, -1.801120, -1.706701, 2.726429, -47.486557, -88.906555, -605.221802
1733468300.922426, -0.422128, -4.980987, 0.131531, -1.727355, -1.839248, 2.638159, -48.409897, -88.660889, -605.754456
1733468300.932423, -0.890344, -5.117007, -0.192434, -1.723253, -1.862431, 2.573184, -49.477005, -88.669296, -606.735840
1733468300.942408, -1.460014, -5.244349, -0.692074, -1.763776, -1.802992, 2.489580, -50.330536, -88.546783, -607.478394
1733468300.952458, -2.151041, -5.487959, -1.193958, -1.758262, -1.763144, 2.371219, -51.509140, -88.318558, -607.792419
1733468300.962412, -2.624644, -5.656750, -1.748216, -1.668597, -1.740225, 2.225672, -52.686172, -88.529602, -609.099548
1733468300.972168, -2.868403, -5.831677, -2.223166, -1.503221, -1.754777, 2.061860, -53.219147, -88.352753, -609.390015
1733468300.982421, -2.932598, -5.912481, -2.364125, -1.294624, -1.851732, 1.930768, -53.899643, -88.221161, -608.938599
1733468300.992418, -2.664896, -5.896021, -2.308609, -1.124218, -1.961373, 1.872448, -54.967148, -87.474945, -609.932983
1733468301.002404, -2.356493, -5.764489, -2.092532, -1.097762, -2.043138, 1.883301, -55.422165, -87.350876, -609.934875
1733468301.012408, -2.293047, -5.489007, -1.850119, -1.213797, -2.044123, 1.948333, -56.251068, -87.186890, -610.181030
1733468301.022438, -2.343923, -5.262755, -2.025345, -1.397043, -1.935325, 2.023103, -57.004532, -86.953064, -610.512878
1733468301.032411, -2.544737, -5.234174, -2.568081, -1.551229, -1.748625, 2.103718, -57.599548, -86.733475, -611.252441
1733468301.042406, -2.730288, -5.372738, -3.253720, -1.610268, -1.563372, 2.197438, -58.694183, -86.376007, -611.437378
1733468301.052413, -2.855385, -5.724835, -3.809624, -1.598616, -1.404024, 2.289573, -59.538116, -86.059967, -611.761963
1733468301.062404, -3.033603, -6.009596, -4.099771, -1.557846, -1.300327, 2.399544, -60.544418, -85.438675, -612.103699
1733468301.072409, -3.437325, -6.063914, -4.138527, -1.580362, -1.236920, 2.525548, -61.788284, -84.950027, -612.584656
1733468301.082415, -4.062062, -6.268319, -4.163966, -1.688954, -1.216152, 2.599816, -62.899902, -84.315521, -612.676514
1733468301.092411, -5.091270, -6.772598, -4.408473, -1.801712, -1.244767, 2.575162, -63.873016, -83.751953, -614.012085
1733468301.102415, -6.237195, -7.277326, -4.940585, -1.847462, -1.305449, 2.460982, -64.785721, -83.185059, -614.197510
1733468301.112406, -7.137564, -7.581090, -5.675156, -1.820594, -1.339781, 2.320250, -66.024719, -82.518356, -614.577209
1733468301.122414, -7.704840, -7.783250, -6.401796, -1.761843, -1.343896, 2.207440, -66.657684, -81.771088, -614.882080
1733468301.132406, -8.009502, -7.972392, -7.159710, -1.705622, -1.270212, 2.149504, -67.510178, -80.966003, -615.378113
1733468301.142406, -8.277354, -8.268974, -8.090606, -1.685932, -1.099976, 2.128589, -68.193542, -80.382309, -615.932190
1733468301.152407, -8.752303, -8.478167, -8.725668, -1.685472, -0.981896, 2.070501, -68.996933, -79.688171, -616.318115
1733468301.162407, -9.764452, -8.772355, -9.291148, -1.628427, -1.000111, 1.908832, -69.956863, -78.985291, -616.332275
1733468301.172406, -10.903643, -9.374497, -10.498874, -1.442608, -1.002419, 1.676244, -70.411896, -78.366730, -616.726257
1733468301.182410, -11.735778, -9.708488, -11.807155, -1.154142, -0.938108, 1.438873, -70.758026, -77.916229, -616.138245
1733468301.192404, -12.359468, -9.884013, -12.768427, -0.817601, -0.792704, 1.222794, -70.853241, -77.514160, -616.790649
1733468301.202418, -12.818556, -9.958682, -13.243078, -0.496063, -0.566739, 1.047940, -71.411316, -77.137650, -616.519043
1733468301.212409, -13.190255, -9.813234, -13.165116, -0.254732, -0.272430, 0.907012, -71.723602, -76.751923, -616.172363
1733468301.222413, -13.441647, -9.759514, -12.762442, -0.121639, 0.004040, 0.752992, -72.104004, -76.362961, -616.560364
1733468301.232438, -13.678673, -9.926809, -12.018593, -0.049109, 0.142768, 0.556886, -72.257599, -76.289490, -616.493652
1733468301.242413, -13.822175, -10.134955, -11.605893, 0.058151, 0.189480, 0.330055, -72.221390, -76.224579, -616.549805
1733468301.252403, -13.751546, -10.215310, -11.625794, 0.235718, 0.219223, 0.108088, -72.352402, -76.275940, -616.677490
1733468301.262406, -13.650990, -10.076297, -11.550377, 0.450064, 0.264725, -0.107596, -72.183044, -76.468445, -616.361023
1733468301.272409, -13.466187, -9.992949, -11.215638, 0.645868, 0.339931, -0.314797, -71.877319, -76.633682, -616.710510
1733468301.282408, -13.271658, -9.771485, -10.586860, 0.778980, 0.453613, -0.512355, -71.657959, -76.943909, -616.190979
1733468301.292411, -12.968343, -9.521291, -9.899725, 0.841398, 0.612207, -0.694213, -71.372223, -77.121735, -616.687622
1733468301.302418, -12.438327, -9.211392, -9.292346, 0.851330, 0.791772, -0.826679, -71.480560, -77.339371, -616.171997
1733468301.312408, -11.927763, -8.841487, -8.782231, 0.843807, 0.975202, -0.925030, -70.994583, -77.783463, -616.458374
1733468301.322465, -11.537508, -8.698733, -8.361600, 0.844965, 1.141950, -1.032507, -70.576981, -78.355042, -616.348145
1733468301.332404, -11.210101, -8.681674, -7.965210, 0.872945, 1.253314, -1.165237, -70.011673, -78.800949, -616.745239
1733468301.342405, -10.861146, -8.552388, -7.654562, 0.936958, 1.323735, -1.316390, -69.866226, -79.248871, -616.699341
1733468301.352401, -10.454880, -8.325687, -7.380576, 1.020775, 1.367663, -1.481750, -69.322693, -79.833344, -616.763733
1733468301.362404, -10.043227, -8.044966, -6.985532, 1.092020, 1.384906, -1.663185, -68.510803, -80.502991, -616.939087
1733468301.372411, -9.550919, -7.730129, -6.532579, 1.138274, 1.373016, -1.831009, -67.680054, -81.125565, -616.626831
1733468301.382401, -8.963891, -7.300968, -6.306926, 1.183688, 1.391204, -1.972626, -66.831833, -81.750748, -616.244629
1733468301.392411, -8.378658, -6.835446, -6.214300, 1.231401, 1.465104, -2.088408, -66.075912, -82.221436, -616.227661
1733468301.402412, -7.690325, -6.564901, -6.168361, 1.296474, 1.591342, -2.172821, -65.299896, -82.887039, -616.192810
1733468301.412120, -6.906524, -6.469133, -6.155492, 1.387260, 1.764353, -2.222586, -64.440308, -83.523773, -615.841003
1733468301.422406, -6.227618, -6.239290, -5.911733, 1.499511, 1.922985, -2.262317, -63.675888, -84.248810, -616.102295
1733468301.432410, -5.650765, -5.955427, -5.423615, 1.622798, 2.040490, -2.303687, -62.718704, -84.695099, -615.758606
1733468301.442399, -5.116259, -5.637597, -4.820276, 1.745544, 2.087776, -2.346418, -61.381134, -85.504425, -615.570557
1733468301.452396, -4.627244, -5.347150, -4.227412, 1.867356, 2.081199, -2.398499, -60.658493, -86.007675, -614.826904
1733468301.462402, -4.189105, -5.189432, -3.674800, 1.989015, 2.009979, -2.462432, -59.561172, -86.523727, -614.378479
1733468301.472401, -3.795558, -4.941333, -3.091663, 2.097167, 1.895584, -2.539852, -58.427475, -87.060898, -613.998901
1733468301.482398, -3.439271, -4.851550, -2.593369, 2.184700, 1.761133, -2.636995, -57.385895, -87.412735, -612.045715
1733468301.492410, -3.072210, -4.833295, -2.108543, 2.247283, 1.617046, -2.748904, -56.015198, -87.902390, -612.145203
1733468301.501601, -2.684050, -4.786907, -1.657236, 2.285891, 1.482988, -2.870773, -54.849533, -88.230255, -611.134521
1733468301.512396, -2.335095, -4.778378, -1.306636, 2.316046, 1.365025, -3.001133, -53.230362, -88.621399, -610.547363
1733468301.522398, -2.018611, -4.557213, -1.115249, 2.364878, 1.285303, -3.125087, -52.078842, -88.746262, -609.293091
1733468301.532395, -1.666364, -4.213346, -1.011550, 2.436112, 1.255968, -3.245471, -50.457230, -88.864273, -608.346313
1733468301.542398, -1.323545, -3.995025, -0.845004, 2.518621, 1.268278, -3.362944, -48.868073, -89.080399, -606.694397
1733468301.552396, -0.960524, -3.652055, -0.299126, 2.575646, 1.233548, -3.466896, -47.221527, -89.122955, -605.742798
1733468301.562397, -0.524181, -3.233818, 0.499341, 2.572057, 1.119059, -3.572484, -45.772858, -88.896530, -604.498535
1733468301.571951, -0.014066, -2.842366, 1.155502, 2.503900, 0.942921, -3.649827, -43.897797, -88.689407, -603.306519
1733468301.582407, 0.429161, -2.394501, 1.488146, 2.418273, 0.775164, -3.717479, -42.181976, -88.632355, -601.658386
1733468301.592397, 0.846500, -2.313547, 1.478569, 2.355542, 0.691668, -3.775447, -40.271820, -88.233383, -600.701416
1733468301.602404, 1.411532, -2.251597, 1.120037, 2.327035, 0.742150, -3.795292, -38.829086, -87.681244, -599.461792
1733468301.612395, 1.991228, -1.940650, 0.916381, 2.334407, 0.863200, -3.764175, -37.298019, -87.325363, -598.341614
1733468301.622395, 2.401085, -1.506402, 1.086968, 2.379217, 0.986981, -3.721961, -35.654144, -86.560226, -597.392944
1733468301.632394, 2.832191, -1.137844, 1.448791, 2.402972, 1.103242, -3.676722, -34.344284, -85.814255, -595.977051
1733468301.642387, 3.285743, -0.666486, 2.012476, 2.361294, 1.184723, -3.613215, -33.089890, -85.171448, -594.627441
1733468301.652395, 3.798999, -0.240917, 2.606986, 2.242704, 1.246529, -3.535151, -33.089890, -85.171448, -594.627441
1733468301.662441, 4.498705, -0.033220, 3.198653, 2.061703, 1.291295, -3.431097, -32.099808, -84.351990, -593.645203
1733468301.672398, 5.417480, 0.024241, 3.531447, 1.884784, 1.344106, -3.307276, -30.983292, -83.447449, -593.161377
1733468301.682390, 6.170606, 0.010475, 3.840898, 1.764585, 1.348201, -3.177031, -30.231171, -82.796600, -591.899414
1733468301.692389, 6.778135, 0.061950, 4.266318, 1.685312, 1.232065, -3.031470, -29.281494, -81.948013, -590.254272
1733468301.702436, 7.227347, 0.218172, 4.473865, 1.659145, 1.096624, -2.898379, -28.847321, -81.133514, -590.398499
1733468301.712421, 7.483526, 0.107739, 4.275296, 1.698415, 1.040697, -2.811019, -28.137558, -80.514420, -590.415833
1733468301.722392, 7.894281, -0.174029, 4.041712, 1.740735, 1.109351, -2.739637, -26.990936, -79.388290, -589.124939
1733468301.732430, 8.397662, -0.359130, 4.143316, 1.755731, 1.288291, -2.690917, -26.890274, -78.442657, -588.151855
1733468301.742394, 9.042301, -0.439635, 4.678420, 1.783292, 1.433420, -2.642586, -26.327225, -77.402908, -587.533081
1733468301.752393, 9.893141, -0.181211, 6.049399, 1.796195, 1.385989, -2.541878, -25.875427, -76.764755, -586.443909
1733468301.762404, 10.762834, 0.307356, 7.629124, 1.760710, 1.172034, -2.399567, -25.905807, -75.853958, -585.902405
1733468301.772396, 11.331308, 0.446668, 8.797793, 1.734967, 0.891341, -2.283952, -25.523743, -74.728256, -585.324829
1733468301.782403, 11.987468, 0.242114, 9.614515, 1.724608, 0.610602, -2.192871, -25.550339, -73.867447, -584.421753
1733468301.792392, 12.785935, 0.184802, 10.581174, 1.697808, 0.304908, -2.120811, -24.739105, -73.251541, -583.505188
1733468301.802390, 13.698574, 0.209193, 11.697920, 1.552349, 0.086731, -2.035134, -24.602402, -72.151306, -583.167358
1733468301.812393, 14.749479, 0.469712, 12.476185, 1.231872, 0.021746, -1.897609, -24.102310, -71.360565, -583.052246
1733468301.822392, 15.685911, 0.793528, 12.977471, 0.789952, 0.130570, -1.721466, -23.560226, -70.739120, -582.568176
1733468301.832392, 16.695217, 1.036989, 12.826486, 0.369522, 0.367646, -1.458884, -23.124847, -70.352097, -582.074219
1733468301.842394, 17.821988, 1.406893, 12.911331, 0.011392, 0.469518, -1.115392, -23.091339, -70.083679, -582.157532
1733468301.852393, 18.756176, 1.700482, 13.340043, -0.261458, 0.339796, -0.704628, -22.867447, -69.872467, -582.224365
1733468301.862397, 18.978388, 1.812411, 13.073837, -0.413513, 0.138905, -0.288785, -22.859985, -69.988403, -582.367065
1733468301.872390, 18.513464, 1.620426, 12.249933, -0.492769, -0.030268, 0.075233, -22.812286, -70.064865, -582.335510
1733468301.882389, 17.780239, 1.249474, 11.600506, -0.562414, -0.148225, 0.381580, -22.709122, -70.462006, -582.706970
1733468301.892397, 17.036989, 0.965312, 11.040412, -0.636830, -0.214538, 0.633943, -23.078217, -70.847626, -582.223999
1733468301.902391, 16.321722, 0.770185, 10.468048, -0.691108, -0.271625, 0.856436, -23.013672, -71.137527, -582.989319
1733468301.912392, 15.708956, 0.590620, 9.934590, -0.703103, -0.346460, 1.086642, -22.865067, -71.496231, -583.100220
1733468301.922406, 15.026608, 0.498892, 9.454852, -0.688182, -0.453077, 1.304259, -23.162247, -71.912155, -583.385254
1733468301.932387, 14.165743, 0.222511, 9.172935, -0.669529, -0.595106, 1.484382, -23.343079, -72.449356, -583.667114
1733468301.942386, 13.271359, -0.126743, 8.805275, -0.657788, -0.720903, 1.622055, -23.491470, -73.024063, -583.930664
1733468301.952384, 12.380566, -0.386364, 8.237700, -0.643389, -0.792323, 1.720613, -23.618729, -73.471237, -584.484985
1733468301.962388, 11.634773, -0.697760, 7.763947, -0.625856, -0.850910, 1.798203, -23.766830, -73.989822, -584.971313
1733468301.972383, 10.970232, -1.066467, 7.586327, -0.613080, -0.926048, 1.855355, -23.989761, -74.458664, -585.081177
1733468301.982384, 10.394277, -1.270423, 7.507468, -0.620834, -1.012079, 1.901753, -24.452591, -74.920792, -585.707642
1733468301.992395, 9.863363, -1.370830, 7.392397, -0.650805, -1.108264, 1.936691, -24.495789, -75.543930, -585.956909
1733468302.002390, 9.401282, -1.561019, 7.099855, -0.674306, -1.209881, 1.977377, -24.801163, -75.962021, -586.241760
1733468302.012394, 9.133580, -1.638981, 6.821978, -0.689765, -1.337977, 2.040766, -24.792511, -76.596100, -586.718262
1733468302.022416, 8.751256, -1.626112, 6.634482, -0.712184, -1.496983, 2.109531, -24.963608, -77.069000, -587.291687
1733468302.032387, 8.340201, -1.795352, 6.253355, -0.717856, -1.625627, 2.185236, -25.427277, -77.671219, -587.759583
1733468302.042386, 8.111406, -1.894711, 5.643882, -0.702215, -1.678174, 2.285610, -25.723846, -78.336212, -588.037476
1733468302.052388, 7.871836, -1.963096, 5.260660, -0.700876, -1.701866, 2.399746, -26.110916, -78.897980, -588.966064
1733468302.062387, 7.536199, -2.088642, 5.062390, -0.720554, -1.699582, 2.519988, -26.255768, -79.488449, -589.039185
1733468302.072388, 7.180660, -2.129493, 4.716128, -0.762145, -1.617180, 2.643897, -26.854813, -80.070160, -589.722656
1733468302.082395, 6.835446, -2.260875, 4.372860, -0.845344, -1.503498, 2.764689, -27.653427, -80.850510, -590.786743
1733468302.092385, 6.514174, -2.424578, 4.245668, -0.950052, -1.404012, 2.882350, -28.222153, -81.409531, -591.372803
1733468302.102388, 6.159233, -2.460341, 4.073734, -1.050558, -1.337838, 2.974211, -28.878998, -82.051315, -591.697266
1733468302.112385, 5.603330, -2.573318, 4.006846, -1.138426, -1.314582, 3.045295, -29.769897, -82.851715, -592.119019
1733468302.122382, 5.203648, -2.695572, 3.801992, -1.229044, -1.306347, 3.115204, -30.597839, -83.215988, -593.327393
1733468302.132385, 4.612280, -2.769193, 3.734206, -1.347144, -1.330001, 3.146736, -31.584610, -83.989944, -593.931519
1733468302.142381, 4.038120, -2.964770, 3.550751, -1.480298, -1.352629, 3.134281, -32.834991, -84.847870, -594.473633
1733468302.152381, 3.625121, -3.230975, 3.013701, -1.600906, -1.363221, 3.106159, -33.866272, -85.178207, -595.529053
1733468302.162393, 3.433884, -3.452588, 2.319532, -1.685288, -1.362933, 3.091582, -35.081345, -85.822205, -596.122986
1733468302.172381, 3.268534, -3.648015, 1.520019, -1.717468, -1.327743, 3.083000, -36.216507, -86.296524, -596.894897
1733468302.182378, 3.048567, -3.869778, 0.738162, -1.687793, -1.282036, 3.070140, -37.299561, -86.894424, -597.454346
1733468302.192379, 2.882619, -4.091092, 0.251840, -1.620848, -1.263228, 3.057768, -38.685837, -87.219193, -598.711121
1733468302.202399, 2.825308, -4.135983, 0.121057, -1.546080, -1.315085, 3.074202, -39.704163, -87.790421, -599.370972
1733468302.212377, 2.667739, -4.080917, 0.215628, -1.498345, -1.404792, 3.104176, -40.869675, -88.000275, -600.359741
1733468302.222377, 2.360683, -4.177134, 0.324863, -1.494750, -1.503768, 3.116959, -42.183701, -88.165009, -600.981445
1733468302.232399, 2.060211, -4.378097, 0.319476, -1.530036, -1.619838, 3.120922, -43.544067, -88.387939, -601.587219
1733468302.242392, 1.695244, -4.510975, 0.015862, -1.578272, -1.688746, 3.123656, -44.660645, -88.457870, -602.378601
1733468302.251548, 1.198896, -4.589685, -0.588974, -1.607518, -1.690183, 3.113927, -45.951752, -88.547043, -603.158020
1733468302.262382, 0.747889, -4.834043, -1.209670, -1.617782, -1.656943, 3.085537, -47.208023, -88.603912, -604.261475
1733468302.272375, 0.307206, -4.858583, -1.695993, -1.604418, -1.608950, 3.064120, -48.405045, -88.600143, -604.632507
1733468302.282377, -0.092177, -4.803816, -2.295590, -1.565088, -1.491057, 3.050164, -49.609344, -88.403900, -605.052063
1733468302.292432, -0.489465, -4.977845, -2.800917, -1.543824, -1.309398, 3.042122, -51.060547, -88.161575, -605.754700
1733468302.302382, -0.862810, -5.250185, -3.143587, -1.558805, -1.115005, 3.023074, -52.361313, -88.048050, -606.412964
1733468302.312387, -1.433379, -5.622334, -3.321356, -1.592302, -1.010999, 2.940343, -53.667114, -87.852112, -607.161255
1733468302.322384, -2.324471, -6.038027, -3.503016, -1.579548, -1.018517, 2.769022, -54.852356, -87.548203, -607.822632
1733468302.332421, -3.086575, -6.370372, -3.984400, -1.485547, -1.088326, 2.535227, -55.925201, -87.279907, -608.258301
1733468302.342383, -3.488651, -6.524200, -4.512322, -1.298194, -1.204648, 2.317636, -56.715027, -86.921387, -608.702637
1733468302.352387, -3.587262, -6.495918, -5.085135, -1.036667, -1.275373, 2.194230, -57.619171, -86.620621, -608.651001
1733468302.362379, -3.580529, -6.611738, -5.561431, -0.742415, -1.286338, 2.138782, -58.466248, -86.379288, -609.101196
1733468302.372388, -3.877859, -7.060800, -5.631462, -0.477712, -1.244124, 2.086368, -59.266617, -85.854416, -609.105530
1733468302.382433, -4.540603, -7.801207, -5.260959, -0.308843, -1.224248, 1.997328, -59.905258, -85.615692, -608.233948
1733468302.392391, -5.323507, -8.494029, -4.637419, -0.268555, -1.240193, 1.850420, -60.797440, -84.973221, -608.837280
1733468302.402388, -6.041918, -8.944588, -4.166659, -0.294770, -1.281462, 1.642249, -61.178650, -84.744400, -608.931458
1733468302.411684, -6.453720, -9.377789, -4.034679, -0.328805, -1.321271, 1.432727, -61.715393, -84.302658, -608.637695
1733468302.422442, -6.376058, -9.629778, -4.146009, -0.364324, -1.329870, 1.288103, -61.956467, -84.166443, -608.621460
1733468302.432390, -6.118981, -9.745299, -4.411017, -0.395357, -1.294135, 1.220786, -62.414780, -83.911621, -608.540222
1733468302.442392, -5.910985, -9.899126, -4.611981, -0.428745, -1.250306, 1.203838, -62.876740, -83.422089, -608.484741
1733468302.452389, -5.786486, -10.121488, -4.678869, -0.506565, -1.227816, 1.216515, -63.237244, -82.933655, -608.210754
1733468302.462386, -5.808184, -10.256012, -4.852897, -0.602640, -1.195221, 1.240350, -63.585007, -82.719131, -607.946533
1733468302.472383, -6.072893, -10.360159, -5.247791, -0.700942, -1.101989, 1.271037, -64.216202, -82.441650, -608.074707
1733468302.482375, -6.647202, -10.375722, -5.576245, -0.833154, -0.922056, 1.282222, -64.599426, -82.197876, -607.360474
1733468302.492381, -7.314436, -10.623073, -5.833472, -0.990273, -0.677614, 1.243410, -65.030045, -81.793762, -608.387939
1733468302.502384, -7.649025, -11.011382, -6.102521, -1.154908, -0.449838, 1.182321, -65.336288, -81.578949, -609.187866
1733468302.512386, -7.880964, -11.076175, -6.392219, -1.273637, -0.253772, 1.124797, -65.716934, -81.454971, -609.474304
1733468302.522381, -8.147618, -11.179725, -6.936601, -1.320217, -0.061048, 1.071145, -66.523392, -81.212891, -610.150391
1733468302.532373, -8.385392, -11.319486, -7.412299, -1.305521, 0.093758, 0.987516, -66.849533, -80.891586, -610.679504
1733468302.542437, -8.560917, -11.518355, -7.640945, -1.257684, 0.155718, 0.871824, -67.176682, -80.796677, -611.329468
1733468302.552372, -8.722825, -11.573122, -7.797765, -1.195549, 0.148419, 0.741607, -67.380478, -80.481491, -611.731689
1733468302.562381, -8.961497, -11.527333, -8.088062, -1.115187, 0.133311, 0.610528, -67.662811, -80.408493, -612.549194
1733468302.572435, -9.314043, -11.370962, -8.527847, -1.019908, 0.184885, 0.480633, -67.966568, -80.147110, -612.725647
1733468302.582374, -9.694721, -11.374553, -9.068338, -0.944162, 0.355984, 0.337977, -67.869995, -80.262360, -612.582153
1733468302.592374, -9.965266, -11.606641, -9.519795, -0.872365, 0.574828, 0.171080, -68.077789, -80.348969, -613.793030
1733468302.602417, -10.176105, -11.656620, -9.866954, -0.772282, 0.803956, -0.020139, -68.167496, -80.339203, -613.978760
1733468302.612374, -10.391733, -11.484686, -10.118944, -0.616704, 1.026199, -0.230269, -67.882339, -80.409454, -614.793884
1733468302.622373, -10.386795, -11.353155, -10.181492, -0.419720, 1.178052, -0.449523, -67.720398, -80.702621, -615.163696
1733468302.632376, -10.211569, -11.166257, -9.891644, -0.195095, 1.196875, -0.661280, -67.286484, -80.954346, -615.948364
1733468302.642369, -9.936835, -10.818948, -9.414450, 0.035598, 1.115052, -0.851272, -66.761993, -81.119507, -616.049683
1733468302.652376, -9.685593, -10.281600, -8.859893, 0.252064, 0.988593, -1.019616, -66.354370, -81.620834, -616.283203
1733468302.662381, -9.507076, -10.024971, -8.387786, 0.410693, 0.887483, -1.182681, -65.871033, -81.947845, -615.956177
1733468302.672375, -9.270947, -9.843610, -8.093599, 0.500362, 0.860351, -1.323481, -64.842285, -82.486481, -616.060120
1733468302.682373, -9.069236, -9.625888, -7.973739, 0.549519, 0.964211, -1.456630, -64.380554, -83.086823, -615.790283
1733468302.692365, -8.823232, -9.394398, -8.006959, 0.600766, 1.181437, -1.579324, -63.946198, -83.397781, -616.073181
1733468302.702422, -8.435970, -9.125500, -7.839065, 0.647360, 1.423094, -1.707944, -63.172516, -83.917618, -616.600464
1733468302.712165, -7.899219, -8.977658, -7.294534, 0.664750, 1.576119, -1.837420, -62.423111, -84.226212, -615.912231
1733468302.722365, -7.247099, -8.727314, -6.713341, 0.661592, 1.651865, -1.943033, -61.538147, -85.102310, -616.198914
1733468302.732366, -6.578668, -8.302642, -6.345682, 0.665207, 1.693085, -2.006737, -60.351654, -85.626953, -616.281372
1733468302.742378, -6.029348, -7.882610, -6.142175, 0.678103, 1.744639, -2.047574, -59.404114, -86.047882, -616.436462
1733468302.752367, -5.479130, -7.587674, -5.970540, 0.703268, 1.804929, -2.062779, -58.530090, -86.536102, -616.362671
1733468302.762378, -4.999392, -7.320870, -5.715109, 0.743526, 1.859695, -2.069262, -57.579742, -86.954056, -616.463318
1733468302.772369, -4.642058, -6.988375, -5.448006, 0.804944, 1.949457, -2.073790, -56.738892, -87.494858, -616.611572
1733468302.782427, -4.233098, -6.664560, -5.221604, 0.899041, 2.054821, -2.078131, -56.004898, -88.057816, -615.493774
1733468302.792366, -3.748422, -6.399701, -4.794090, 1.012472, 2.104432, -2.081879, -54.920715, -88.191681, -616.098694
1733468302.802364, -3.171569, -5.993585, -4.168305, 1.120542, 2.065758, -2.071294, -53.815079, -88.675446, -615.699524
1733468302.812407, -2.708890, -5.537040, -3.535488, 1.192621, 1.982680, -2.051132, -52.751373, -88.913773, -615.406250
1733468302.822365, -2.415749, -5.061043, -3.009063, 1.210708, 1.918892, -2.031521, -52.065262, -89.261978, -615.105469
1733468302.832366, -2.174534, -4.741118, -2.686444, 1.178579, 1.875516, -2.017071, -51.033356, -89.309845, -614.864014
1733468302.842381, -1.959953, -4.689343, -2.490119, 1.109354, 1.857700, -2.024131, -50.104187, -89.739624, -614.639282
1733468302.851713, -1.743128, -4.826561, -2.623746, 1.047134, 1.892104, -2.062951, -49.408646, -89.825607, -614.223755
1733468302.862371, -1.467047, -5.054160, -3.018939, 1.070104, 1.949361, -2.112238, -48.316650, -90.197144, -613.760254
1733468302.872361, -1.171962, -5.148880, -3.476979, 1.224505, 2.048962, -2.173675, -47.351227, -90.364899, -613.153503
1733468302.882362, -0.176722, -4.698920, -3.006818, 1.722129, 2.132602, -2.255123, -46.318359, -90.472198, -611.845154
1733468302.892320, -0.176722, -4.698920, -3.006818, 1.938679, 2.053100, -2.243771, -45.325333, -90.445251, -611.418701
1733468302.902362, 1.001524, -4.097826, -1.033697, 2.046392, 1.854018, -2.210550, -44.355331, -90.427872, -610.527527
1733468302.912382, 1.398214, -3.821146, 0.278176, 1.993167, 1.518831, -2.161572, -43.318268, -90.191666, -609.272217
1733468302.922370, 1.549198, -3.662680, 0.876128, 1.862902, 1.245122, -2.126489, -42.212509, -90.203278, -608.713623
1733468302.932371, 1.565808, -3.854216, 0.649726, 1.771139, 1.162192, -2.103935, -41.419693, -89.960205, -607.729492
1733468302.942363, 1.526154, -4.211850, 0.182259, 1.725945, 1.271906, -2.112894, -40.423920, -89.919861, -606.822021
1733468302.952362, 1.660678, -4.604199, -0.068534, 1.715154, 1.457776, -2.131740, -39.692429, -89.700226, -606.306519
1733468302.962370, 1.981352, -4.649091, 0.206051, 1.710536, 1.612195, -2.130522, -38.712051, -89.413162, -605.270142
1733468302.972363, 2.303372, -4.368670, 0.727089, 1.682415, 1.681307, -2.109167, -37.668716, -89.136078, -604.282898
1733468302.982362, 2.622549, -4.036325, 1.332074, 1.608503, 1.657102, -2.065725, -37.056320, -89.028839, -602.828735
1733468302.992368, 2.839374, -3.950433, 1.843386, 1.508878, 1.561303, -2.044841, -36.170059, -88.793243, -602.708374
1733468303.002363, 2.894889, -4.181024, 1.817648, 1.489983, 1.435774, -2.064746, -35.775436, -88.500381, -601.993347
1733468303.012361, 2.889203, -4.393659, 1.454029, 1.627065, 1.293702, -2.116406, -34.937500, -88.177063, -601.228027
1733468303.022372, 2.840421, -4.643704, 1.166724, 1.876767, 1.187615, -2.221085, -34.005814, -87.602875, -600.059143
1733468303.032361, 2.917185, -4.955249, 1.163881, 2.165792, 1.153516, -2.340524, -33.157333, -87.006393, -599.299561
1733468303.042360, 3.263596, -4.607641, 1.782633, 2.353330, 1.192022, -2.403431, -32.363739, -86.394577, -597.414673
1733468303.052362, 3.736002, -4.083012, 2.781464, 2.382633, 1.310615, -2.415364, -31.822311, -85.730576, -596.415405
1733468303.062370, 4.229058, -3.724330, 4.068946, 2.232968, 1.409260, -2.381185, -30.915329, -84.724457, -595.084106
1733468303.072368, 4.667197, -3.274969, 5.346851, 1.955786, 1.440027, -2.320960, -30.151489, -84.251297, -594.577271
1733468303.082368, 5.108927, -3.411139, 6.091747, 1.712741, 1.436190, -2.294089, -29.687851, -83.666977, -592.718872
1733468303.092360, 5.571607, -3.580529, 6.179734, 1.585485, 1.352832, -2.254959, -29.228485, -83.077469, -592.400879
1733468303.102358, 6.125864, -3.437774, 6.628946, 1.482404, 1.159334, -2.211801, -28.678940, -82.189468, -592.067200
1733468303.112358, 6.737134, -3.550003, 6.924480, 1.368877, 0.994234, -2.182482, -28.076996, -81.525009, -591.225769
1733468303.122356, 7.237971, -3.500622, 6.934955, 1.252905, 0.933487, -2.162224, -27.750763, -80.962723, -590.971130
1733468303.132358, 7.855376, -3.251775, 7.030124, 1.134442, 0.938097, -2.132464, -27.512085, -80.446762, -590.477539
1733468303.142357, 8.665663, -3.202394, 7.312640, 1.019959, 0.927422, -2.096314, -26.787766, -79.985153, -589.877380
1733468303.152357, 9.345766, -3.155558, 7.698406, 0.923284, 0.865201, -2.072660, -26.199402, -79.514175, -589.400208
1733468303.162363, 9.901371, -3.045125, 7.930494, 0.823343, 0.794922, -2.068669, -25.866287, -78.999939, -588.874329
1733468303.172358, 10.535086, -2.843264, 7.941417, 0.775764, 0.727531, -2.058317, -25.282333, -78.259232, -588.519897
1733468303.182358, 11.561600, -2.366968, 7.816021, 0.803629, 0.675414, -1.968957, -24.986847, -77.860764, -587.327637
1733468303.192356, 12.771270, -1.817498, 8.060080, 0.844373, 0.556040, -1.812641, -24.524979, -77.270096, -587.770752
1733468303.202358, 13.827712, -1.361852, 8.787768, 0.814478, 0.346018, -1.623973, -24.232559, -76.760773, -587.366272
1733468303.212362, 14.526968, -1.141735, 9.353547, 0.752146, 0.133408, -1.460093, -24.232559, -76.760773, -587.366272
1733468303.222368, 15.275904, -1.281945, 9.537751, 0.694469, -0.047166, -1.292836, -24.006226, -76.352295, -587.191406
1733468303.232356, 15.912612, -1.181239, 9.754726, 0.602023, -0.196789, -1.113624, -23.582489, -75.904419, -586.747559
1733468303.242361, 16.458939, -0.926706, 10.023026, 0.449352, -0.307679, -0.890149, -23.196091, -75.365372, -586.574158
1733468303.252363, 16.970401, -0.550217, 10.264391, 0.244816, -0.373973, -0.600713, -22.790161, -75.093414, -586.282715
1733468303.261618, 17.122133, -0.199916, 10.128520, 0.033540, -0.376876, -0.271185, -22.404343, -75.007812, -586.312561
1733468303.272356, 17.125276, 0.044293, 9.874286, -0.154926, -0.382098, 0.106120, -21.868301, -74.750412, -586.200745
1733468303.281414, 17.025617, 0.227300, 9.716419, -0.337388, -0.416075, 0.507137, -21.989578, -75.028580, -586.267822
1733468303.292367, 16.405968, 0.059107, 9.184606, -0.473148, -0.405685, 0.863242, -21.825577, -75.291992, -586.314392
1733468303.302356, 15.573983, -0.401478, 8.441207, -0.542466, -0.397963, 1.156074, -22.067795, -75.521790, -587.277588
1733468303.312358, 14.839860, -0.757765, 8.024466, -0.584954, -0.418125, 1.399353, -22.328369, -75.931168, -587.398376
1733468303.322362, 14.074763, -0.936582, 7.615806, -0.598724, -0.461849, 1.606594, -22.767685, -76.413788, -587.564331
1733468303.332375, 13.305327, -1.168221, 7.209989, -0.580756, -0.538438, 1.783583, -23.228867, -76.982498, -588.124023
1733468303.342364, 12.552949, -1.474978, 6.933608, -0.549564, -0.652565, 1.915766, -23.692261, -77.490280, -588.430420
1733468303.352371, 11.725154, -1.731008, 6.636428, -0.508825, -0.774410, 2.015421, -24.037857, -77.801331, -588.655701
1733468303.362356, 10.940903, -1.917456, 6.362591, -0.467317, -0.919816, 2.082467, -24.578415, -78.384964, -589.056213
1733468303.372356, 10.267085, -2.181267, 6.156091, -0.430004, -1.092015, 2.123986, -24.911362, -78.687271, -589.529968
1733468303.382354, 9.621848, -2.475754, 5.827636, -0.375345, -1.254301, 2.143378, -25.325012, -79.148880, -589.800354
1733468303.392354, 8.949526, -2.683900, 5.515193, -0.318144, -1.401983, 2.144361, -25.912109, -79.700073, -589.176392
1733468303.402353, 8.362049, -2.958485, 5.149928, -0.247639, -1.497306, 2.136801, -26.034332, -80.134262, -590.326904
1733468303.412358, 7.988703, -3.300706, 4.774337, -0.183531, -1.541556, 2.143735, -26.723038, -80.538956, -590.846130
1733468303.422369, 7.665785, -3.473837, 4.520851, -0.130278, -1.548294, 2.171727, -27.071808, -80.868393, -591.542542
1733468303.432359, 7.429208, -3.553594, 4.272154, -0.113415, -1.489955, 2.222626, -27.535355, -81.042084, -591.261658
1733468303.442351, 7.255628, -3.613748, 4.171896, -0.116734, -1.433915, 2.298245, -27.792389, -81.520279, -591.391052
1733468303.452351, 7.016058, -3.642479, 4.178032, -0.123199, -1.405161, 2.391884, -28.440842, -81.743042, -591.219666
1733468303.462352, 6.686107, -3.591452, 4.150797, -0.121608, -1.389309, 2.479926, -28.912689, -82.047012, -591.257019
1733468303.472364, 6.429479, -3.806631, 4.201525, -0.122388, -1.394556, 2.546274, -29.609055, -82.482269, -591.908325
1733468303.482398, 6.206669, -4.114436, 4.458752, -0.154355, -1.447302, 2.612119, -30.309799, -82.768555, -592.178223
1733468303.492360, 5.888090, -4.211999, 4.817283, -0.238705, -1.553676, 2.669653, -31.301987, -83.111465, -591.994324
1733468303.502350, 5.474342, -4.176685, 5.032762, -0.370791, -1.640081, 2.742190, -31.842224, -83.395828, -592.768372
1733468303.512358, 5.020641, -4.080468, 4.830003, -0.520200, -1.646693, 2.830917, -32.559357, -83.601730, -592.654358
1733468303.522399, 4.512322, -4.038420, 4.464588, -0.675787, -1.592300, 2.916554, -32.989532, -84.017242, -593.427063
1733468303.532359, 4.093786, -4.020912, 4.077475, -0.830861, -1.496524, 3.012561, -34.167068, -84.195801, -593.385559
1733468303.542357, 3.708169, -3.917512, 3.555838, -0.961564, -1.367956, 3.119321, -35.237640, -84.762848, -594.031006
1733468303.552348, 3.329586, -3.962853, 3.070414, -1.068506, -1.235021, 3.226430, -36.211212, -84.931931, -594.602783
1733468303.561689, 3.087173, -4.126556, 2.638560, -1.154186, -1.119420, 3.333420, -37.520828, -85.300949, -595.161499
1733468303.572352, 2.774730, -4.208109, 2.289306, -1.214367, -1.039528, 3.438991, -38.804947, -85.611801, -595.376953
1733468303.582341, 2.346018, -4.276942, 2.090587, -1.249007, -1.020827, 3.523538, -40.276917, -85.896378, -596.420471
1733468303.592344, 1.742680, -4.308366, 2.053028, -1.271426, -1.069473, 3.583572, -41.685471, -86.092896, -596.905457
1733468303.602359, 1.093402, -4.300435, 1.987487, -1.290067, -1.119415, 3.617329, -42.929123, -85.997543, -597.561340
1733468303.612362, 0.468216, -4.425981, 1.793856, -1.321718, -1.141242, 3.635199, -44.354691, -86.148575, -598.411621
1733468303.622362, -0.108487, -4.574571, 1.791012, -1.399326, -1.148617, 3.629825, -45.798126, -86.309433, -598.922791
1733468303.632356, -0.591069, -4.662109, 1.690606, -1.519165, -1.129136, 3.617664, -47.200073, -86.164215, -599.878296
1733468303.642353, -1.009156, -4.678120, 1.309928, -1.627480, -1.068239, 3.598204, -48.596451, -86.268570, -600.206970
1733468303.652355, -1.440112, -4.687398, 0.951396, -1.686751, -1.101133, 3.561208, -49.825073, -86.172089, -600.982056
1733468303.662355, -2.060360, -4.841375, 0.733524, -1.684006, -1.243330, 3.460519, -51.618362, -85.835938, -601.673645
1733468303.672346, -2.601300, -5.191976, 0.288801, -1.638904, -1.405282, 3.330168, -52.893646, -85.671387, -602.169739
1733468303.682349, -2.853589, -5.336376, -0.219967, -1.579423, -1.534410, 3.247417, -54.010666, -85.273926, -602.665710
1733468303.692404, -3.098995, -5.179406, -0.699406, -1.498357, -1.583896, 3.207691, -55.083313, -84.999512, -602.889282
1733468303.702347, -3.385401, -5.123592, -0.991798, -1.433639, -1.585383, 3.176590, -56.511047, -84.617264, -603.488831
1733468303.712346, -3.727922, -5.343708, -0.902913, -1.425872, -1.598797, 3.145929, -57.462463, -84.055389, -603.673401
1733468303.722347, -4.079121, -5.581483, -0.976834, -1.452660, -1.570956, 3.122395, -58.830826, -83.671112, -604.258301
1733468303.732340, -4.427178, -5.601833, -1.242142, -1.502972, -1.503451, 3.100463, -59.679962, -83.293457, -604.442505
1733468303.742357, -4.740819, -5.554249, -1.506701, -1.593771, -1.407137, 3.099529, -60.727737, -82.592499, -604.689148
1733468303.752350, -5.029918, -5.442619, -1.966088, -1.716422, -1.248240, 3.118070, -61.995773, -81.808334, -605.533447
1733468303.762353, -5.305252, -5.250035, -2.577957, -1.824171, -1.081768, 3.159868, -63.019791, -81.265198, -606.205078
1733468303.772349, -5.640889, -5.084237, -3.209278, -1.869691, -0.950733, 3.222451, -64.172226, -80.565308, -606.487122
1733468303.782356, -6.242282, -5.170278, -3.751415, -1.857291, -0.895821, 3.246756, -65.320663, -79.877472, -606.504883
1733468303.792344, -7.170784, -5.554249, -4.138527, -1.813705, -0.962988, 3.208110, -66.673126, -78.990387, -607.331909
1733468303.802342, -8.281544, -6.200084, -4.809353, -1.712529, -1.052395, 3.102327, -67.624939, -78.160812, -607.769043
1733468303.812352, -9.443480, -6.769456, -5.896769, -1.552670, -1.055483, 2.950097, -68.417358, -77.292633, -608.170471
1733468303.822361, -10.402357, -7.287351, -7.181258, -1.370208, -0.892034, 2.785045, -69.311920, -76.348175, -608.116760
1733468303.832355, -11.032631, -7.784896, -8.252963, -1.188356, -0.643429, 2.613965, -70.155991, -75.639587, -608.720703
1733468303.842342, -11.622502, -8.313716, -8.626757, -0.989207, -0.606461, 2.401205, -70.832382, -74.966156, -608.909912
1733468303.852353, -12.586318, -9.147197, -8.476821, -0.747642, -0.843676, 2.098806, -71.437119, -74.235580, -608.971069
1733468303.862342, -13.731195, -9.911696, -8.877400, -0.427953, -1.097769, 1.718623, -71.862000, -73.637939, -608.714478
1733468303.872398, -14.674810, -10.526856, -9.665242, -0.062948, -1.186298, 1.331950, -72.009964, -73.088959, -607.969421
1733468303.882339, -15.120132, -11.014824, -10.014197, 0.244209, -1.088969, 1.015405, -71.849854, -72.817413, -607.110352
1733468303.892336, -15.216798, -11.089792, -9.474006, 0.383638, -0.868164, 0.789770, -71.787140, -72.336182, -607.006470
1733468303.902348, -15.045612, -10.830022, -8.523807, 0.340402, -0.573565, 0.653845, -71.775696, -72.168961, -606.640503
1733468303.911789, -14.868142, -10.596288, -7.502231, 0.183210, -0.316753, 0.572288, -72.239349, -71.829926, -606.478027
1733468303.922358, -15.022568, -10.562320, -7.016657, 0.017908, -0.106526, 0.485029, -72.380081, -71.688461, -606.340454
1733468303.932349, -15.432425, -10.839000, -7.226150, -0.082683, 0.112714, 0.340744, -72.438934, -71.702164, -606.502136
1733468303.942386, -15.669002, -11.302128, -7.729231, -0.101493, 0.324177, 0.153577, -72.821457, -71.616241, -606.676941
1733468303.952336, -15.719430, -11.525537, -8.000225, -0.066594, 0.476160, -0.058971, -72.861237, -71.629944, -607.021362
1733468303.962341, -15.706412, -11.364228, -7.851036, -0.013530, 0.599202, -0.291565, -72.793930, -71.861893, -607.256287
1733468303.972417, -15.444845, -11.152940, -7.529465, 0.028196, 0.681199, -0.519349, -72.733688, -71.921432, -607.169006
1733468303.982349, -15.034389, -10.876110, -7.121553, 0.055062, 0.718707, -0.726727, -72.482834, -72.413010, -607.091125
1733468303.992355, -14.726734, -10.563517, -6.901286, 0.092597, 0.751250, -0.944315, -72.370255, -72.620346, -607.907715
1733468304.002342, -14.505420, -10.386196, -6.808960, 0.150045, 0.803076, -1.178682, -72.173935, -73.198883, -607.972290
1733468304.012349, -14.092720, -10.200945, -6.820332, 0.226257, 0.889722, -1.408893, -71.785461, -73.709396, -607.881653
1733468304.022343, -13.429077, -9.869498, -6.705710, 0.308695, 0.977824, -1.614664, -71.604080, -74.114288, -608.316223
1733468304.031816, -12.677148, -9.402778, -6.382193, 0.377841, 1.044183, -1.790341, -70.861053, -75.027298, -608.734375
1733468304.042419, -11.902325, -8.870368, -6.065860, 0.434998, 1.127418, -1.923993, -70.114349, -75.601089, -608.859375
1733468304.052349, -11.104607, -8.263737, -5.867590, 0.487731, 1.251021, -2.001567, -69.564621, -76.172943, -608.795044
1733468304.062347, -10.370933, -7.675062, -5.653309, 0.530911, 1.407220, -2.030350, -69.079041, -76.854080, -609.435242
1733468304.072397, -9.733776, -7.121254, -5.376778, 0.556431, 1.587043, -2.040797, -68.617737, -77.611862, -609.242188
1733468304.082334, -9.128792, -6.672041, -5.062240, 0.567157, 1.759246, -2.048841, -68.153336, -78.440643, -609.399902
1733468304.092331, -8.493580, -6.474370, -4.769250, 0.578202, 1.879904, -2.065699, -67.426575, -78.973038, -610.405945
1733468304.102385, -7.898621, -6.306776, -4.538509, 0.612983, 1.949492, -2.101843, -66.835724, -79.548996, -610.575134
1733468304.112332, -7.376835, -6.253505, -4.486734, 0.698485, 1.965055, -2.167543, -66.194427, -80.326797, -610.856140
1733468304.122346, -6.981941, -6.084714, -4.307468, 0.827117, 1.903269, -2.262216, -65.598099, -81.021255, -610.948730
1733468304.132339, -6.593631, -5.858013, -3.953276, 0.978916, 1.785329, -2.382695, -64.714996, -81.718124, -610.969849
1733468304.142333, -6.162525, -5.711069, -3.613748, 1.118885, 1.639744, -2.506200, -63.635010, -82.219833, -610.782593
1733468304.152346, -5.729474, -5.417181, -3.292775, 1.222682, 1.531896, -2.635350, -62.776932, -82.982101, -610.471008
1733468304.162343, -5.278766, -5.130176, -3.056198, 1.310130, 1.484128, -2.753592, -61.671997, -83.642639, -610.506714
1733468304.172332, -4.679018, -4.887912, -2.917484, 1.380147, 1.507479, -2.828367, -60.543228, -84.338562, -610.792114
1733468304.182338, -4.041113, -4.654927, -2.757222, 1.439675, 1.570338, -2.890640, -59.462769, -84.972794, -609.755615
1733468304.192337, -3.396624, -4.509479, -2.522591, 1.499216, 1.626260, -2.942561, -58.163330, -85.399841, -609.917480
1733468304.202345, -2.768894, -4.298191, -2.174983, 1.546672, 1.644107, -2.977343, -56.864624, -85.844055, -609.251282
1733468304.212348, -2.092233, -4.010138, -1.658733, 1.568458, 1.562058, -3.000190, -56.025925, -86.492966, -608.521240
1733468304.222338, -1.529895, -3.878906, -1.096993, 1.578080, 1.395815, -3.020136, -54.700226, -86.867813, -608.263000
1733468304.232333, -1.027113, -3.806182, -0.866252, 1.596447, 1.262251, -3.043301, -53.461319, -86.891357, -607.205811
1733468304.242341, -0.554557, -3.869928, -0.777068, 1.634069, 1.159571, -3.060679, -52.034256, -87.418808, -606.858765
1733468304.252355, -0.068235, -3.989937, -0.651672, 1.685302, 1.088417, -3.071538, -50.664551, -87.537552, -605.956482
1733468304.262343, 0.418087, -4.075231, -0.423474, 1.712895, 1.058637, -3.057564, -49.345581, -87.723419, -605.227783
1733468304.272270, 0.824503, -3.979313, -0.068384, 1.670456, 1.090682, -3.019102, -47.889877, -87.946381, -604.968323
1733468304.281801, 1.204283, -3.647267, 0.285957, 1.547205, 1.195696, -2.944219, -46.591660, -87.933731, -603.575256
1733468304.292340, 1.626561, -3.345448, 0.421978, 1.361583, 1.431603, -2.806757, -45.199387, -87.897385, -603.490051
1733468304.302333, 2.059313, -3.059191, 0.336984, 1.161537, 1.766499, -2.633479, -44.541733, -88.026138, -603.116699
1733468304.312352, 2.338536, -2.911200, 0.346112, 1.007331, 2.068280, -2.464914, -43.776566, -88.006851, -602.970215
1733468304.322340, 2.553715, -3.097798, 0.424073, 0.940017, 2.254100, -2.345952, -43.112778, -87.856583, -602.504089
1733468304.332336, 2.681207, -3.576937, 0.389956, 0.985555, 2.309355, -2.289075, -42.431915, -87.900650, -602.192261
1733468304.342330, 2.808548, -3.802142, 0.464325, 1.142760, 2.224038, -2.273353, -41.977646, -87.918442, -601.408264
1733468304.352341, 3.005172, -3.831471, 0.785149, 1.372738, 2.015180, -2.281303, -41.025803, -87.743668, -600.739014
1733468304.362330, 3.199851, -3.605668, 1.416470, 1.598792, 1.704265, -2.287300, -40.132187, -87.384659, -599.694580
1733468304.372328, 3.181295, -3.289633, 2.204162, 1.737677, 1.400101, -2.313445, -39.358444, -86.980392, -599.224243
1733468304.382383, 3.151368, -3.158850, 2.532616, 1.756297, 1.244978, -2.335972, -38.337646, -86.760406, -597.648376
1733468304.392327, 3.091064, -3.076549, 2.634819, 1.690973, 1.196612, -2.366801, -37.513214, -86.316757, -597.447876
1733468304.402329, 3.072210, -3.302652, 2.579004, 1.626980, 1.255943, -2.422089, -36.498062, -85.934753, -596.979126
1733468304.412326, 3.236661, -3.665223, 2.036568, 1.647358, 1.485499, -2.455312, -35.720459, -85.518494, -596.299805
1733468304.422384, 3.598485, -3.444358, 2.014571, 1.707562, 1.687036, -2.457399, -35.232788, -85.097961, -595.078552
1733468304.432335, 4.091541, -3.114856, 2.932448, 1.745079, 1.725737, -2.448677, -34.677353, -84.515594, -594.106323
1733468304.442331, 4.726902, -3.017891, 3.830723, 1.755345, 1.658022, -2.440893, -33.957123, -84.108109, -593.252563
1733468304.452331, 5.200505, -2.942324, 4.518158, 1.714035, 1.531465, -2.458885, -33.261276, -83.458923, -592.603943
1733468304.462376, 5.572504, -2.879327, 5.369895, 1.621791, 1.263372, -2.505937, -32.916351, -82.936600, -591.606445
1733468304.472349, 5.837662, -2.948609, 5.957223, 1.533241, 0.941439, -2.585576, -31.854370, -82.209091, -591.341064
1733468304.482338, 6.118382, -3.157204, 5.794716, 1.522211, 0.675264, -2.679621, -30.901245, -81.481781, -589.840698
